"trial_type","trial_index","time_elapsed","internal_node_id","success","rt","response","stimulus","start_time","start_time_unix","item_width_mm","item_height_mm","item_width_px","px2mm","view_dist_mm","item_width_deg","px2deg","win_width_deg","win_height_deg","trialType","correct","participantID","criticalSpacing","criticalSpacing_deg","isLeft","isUp","isEccen4","eccentricity","eccentricity_deg","viewingDistanceMean","critical_spacing","critical_spacing_deg","crowding_session","correctRate","viewDistance_1","viewDistance_2","viewDistance_3"
"pavlovia","0","5","0.0-0.0","","","","","","","","","","","","","","","","","","","","","","","","","","","","","","","","",""
"fullscreen","1","123997","0.0-1.0","true","","","","","","","","","","","","","","","","","","","","","","","","","","","","","","","",""
"survey-text","2","132575","0.0-2.0","","8574.100000023842","{""Q0"":""PILOT A""}","","","","","","","","","","","","","","","","","","","","","","","","","","","","","",""
"html-keyboard-response","3","134943","0.0-3.0","","2363.7999999523163"," ","<h1>Welcome to the Visual Crowding Experiment!</h1>
       <p>This test will take <b>10-12</b> minutes to complete.</p>
       <p>Press any key to start the experiment!</p>","11/16/2021, 9:42:04 PM","1637127724711","","","","","","","","","","","","","","","","","","","","","","","","","","",""
"html-keyboard-response","4","143829","0.0-4.0","","8885","arrowdown","<div> 
<p> Before you begin this study, let&#39;s quickly test how far away you are sitting. You might know that vision tests at a doctor&#39;s practice often involve chinrests, the doctor basically asks you to sit away from a screen in a specific distance. We do this here with a <b>virtual chinrest</b>. </p>
<p> Please press the <b>down</b> arrow to continue.
</p>
</div>","","","","","","","","","","","","","","","","","","","","","","","","","","","","",""
"virtual-chinrest","5","200668","0.0-5.0","","56835.89999997616","","","","","85.6","53.98","358","4.18","415.11","11.77338364374717","30.407571080055085","47.35662694691599","29.597891841822495","","","","","","","","","","","","","","","","","",""
"html-keyboard-response","6","214766","0.0-6.0","","14093.199999928474","arrowdown","
	<h2 class=""bolded-blue"">Now, you will take a peripheral vision test!</h2>
<p> 
	<b>
		<font size=""140%"">1. </font>
	</b>
	<em><b>Please use both eyes for the following task.</b></em> First, you will see a screen (like the one in the image below) showing a <b>black dot</b> in the middle of the screen, with a group of circles displayed on either the <span class=""bolded-blue"">left</span> or <span class=""bolded-blue"">right</span> of the black dot for 150 ms. <span class=""bolded-blue"">Please make sure to focus on the black dot all the time!</span>

	<div>
		<img src=""example.png"" alt=""example"" style=""border: 2px solid black"" width=""600""/> 
	</div>
	
	<b>
		<font size=""140%"">2. </font>
	</b>
	Your task is to identify whether the opening of the <b class=""bolded-blue"">center circle</b> is upward by pressing UP or downward by pressing DOWN on your keyboard. The opening of the circle will only be upward or downward, not towards left or right.

	<div>
		<img src=""arrow_keys+.png"" alt=""arrows"" style=""border: 2px solid black"" width=""600""/>
	</div>
	<br>

<p>Please press the <b>down</b> arrow key to start the <span class=""bolded-blue"">practice task</span> (this first practice task will not count toward your final results).</p>
</p>
","","","","","","","","","","","","","","","","","","","","","","","","","","","","",""
"html-keyboard-response","7","215271","0.0-7.0","","null","null","
    <div style="" display: block;  position: relative;"">
    
    <svg width=1440 height=900>
    <circle cx=657 cy=450 r=10.611963833956315 stroke=""black"" stroke-width=""1"" fill=""black"" />
    <circle cx=NaN cy=450 r=15.159948334223309 stroke=""none"" stroke-width=""1.5"" fill=""none"" />
    <circle cx=475.22 cy=NaN r=15.159948334223309 stroke=""none"" stroke-width=""1.5"" fill=""none"" />
    <circle cx=NaN cy=450 r=15.159948334223309 stroke=""none"" stroke-width=""1.5"" fill=""none"" />
    <circle cx=475.22 cy=NaN r=15.159948334223309 stroke=""none"" stroke-width=""1.5"" fill=""none"" />
    <polygon points = ""475.22,450 479.48441766667537,465.1599483342233 470.9555823333247,465.1599483342233"" stroke=""none"" stroke-width=""3"" fill = ""none"" />
    
    </svg>
    </div>
        ","","","","","","","","","","","","","","","","","","","","","","","","","","","","",""
"html-keyboard-response","8","215428","0.0-8.0","","null","null","
    <div style="" display: block;  position: relative;"">
    <svg width=1440 height=900>
    
    <circle cx=657 cy=450 r=10.611963833956315 stroke=""black"" stroke-width=""1"" fill=""black"" />
    <circle cx=838.78 cy=450 r=15.159948334223309 stroke=""black"" stroke-width=""1.5"" fill=""none"" />
    <circle cx=956.937 cy=450 r=15.159948334223309 stroke=""black"" stroke-width=""1.5"" fill=""none"" />
    <circle cx=838.78 cy=568.157 r=15.159948334223309 stroke=""black"" stroke-width=""1.5"" fill=""none"" />
    <circle cx=720.6229999999999 cy=450 r=15.159948334223309 stroke=""black"" stroke-width=""1.5"" fill=""none"" />
    <circle cx=838.78 cy=331.84299999999996 r=15.159948334223309 stroke=""black"" stroke-width=""1.5"" fill=""none"" />
    <polygon points = ""838.78,450 843.0444176666754,434.8400516657767 834.5155823333246,434.8400516657767"" stroke=""white"" stroke-width=""3"" fill = ""white"" />
    
    </svg>
    </div>
        ","","","","","","","","","","","","stimulus","","","","","","","","","","","","","","","","",""
"html-keyboard-response","9","215739","0.0-9.0","","308.2999999523163","arrowup","
    <div style="" display: block;  position: relative;"">
    
    <svg width=1440 height=900>
    <circle cx=657 cy=450 r=10.611963833956315 stroke=""black"" stroke-width=""1"" fill=""black"" />
    <circle cx=956.937 cy=450 r=15.159948334223309 stroke=""none"" stroke-width=""1.5"" fill=""none"" />
    <circle cx=838.78 cy=568.157 r=15.159948334223309 stroke=""none"" stroke-width=""1.5"" fill=""none"" />
    <circle cx=720.6229999999999 cy=450 r=15.159948334223309 stroke=""none"" stroke-width=""1.5"" fill=""none"" />
    <circle cx=838.78 cy=331.84299999999996 r=15.159948334223309 stroke=""none"" stroke-width=""1.5"" fill=""none"" />
    <polygon points = ""838.78,450 843.0444176666754,434.8400516657767 834.5155823333246,434.8400516657767"" stroke=""none"" stroke-width=""3"" fill = ""none"" />
    
    </svg>
    </div>
        ","","","","","","","","","","","","practice_get_response","true","UHB3ugGTmB1Cnwlb","118.15700000000001","3.89","false","true","false","181.78","6","416.88200000000006","","","","","","",""
"html-keyboard-response","10","216244","0.0-10.0","","null","null","
    <div style="" display: block;  position: relative;"">
    
    <svg width=1440 height=900>
    <circle cx=657 cy=450 r=10.611963833956315 stroke=""black"" stroke-width=""1"" fill=""black"" />
    <circle cx=956.937 cy=450 r=15.159948334223309 stroke=""none"" stroke-width=""1.5"" fill=""none"" />
    <circle cx=838.78 cy=568.157 r=15.159948334223309 stroke=""none"" stroke-width=""1.5"" fill=""none"" />
    <circle cx=720.6229999999999 cy=450 r=15.159948334223309 stroke=""none"" stroke-width=""1.5"" fill=""none"" />
    <circle cx=838.78 cy=331.84299999999996 r=15.159948334223309 stroke=""none"" stroke-width=""1.5"" fill=""none"" />
    <polygon points = ""838.78,450 843.0444176666754,434.8400516657767 834.5155823333246,434.8400516657767"" stroke=""none"" stroke-width=""3"" fill = ""none"" />
    
    </svg>
    </div>
        ","","","","","","","","","","","","","","","","","","","","","","","","","","","","",""
"html-keyboard-response","11","216400","0.0-11.0","","null","null","
    <div style="" display: block;  position: relative;"">
    <svg width=1440 height=900>
    
    <circle cx=657 cy=450 r=10.611963833956315 stroke=""black"" stroke-width=""1"" fill=""black"" />
    <circle cx=838.78 cy=450 r=15.159948334223309 stroke=""black"" stroke-width=""1.5"" fill=""none"" />
    <circle cx=956.937 cy=450 r=15.159948334223309 stroke=""black"" stroke-width=""1.5"" fill=""none"" />
    <circle cx=838.78 cy=568.157 r=15.159948334223309 stroke=""black"" stroke-width=""1.5"" fill=""none"" />
    <circle cx=720.6229999999999 cy=450 r=15.159948334223309 stroke=""black"" stroke-width=""1.5"" fill=""none"" />
    <circle cx=838.78 cy=331.84299999999996 r=15.159948334223309 stroke=""black"" stroke-width=""1.5"" fill=""none"" />
    <polygon points = ""838.78,450 843.0444176666754,434.8400516657767 834.5155823333246,434.8400516657767"" stroke=""white"" stroke-width=""3"" fill = ""white"" />
    
    </svg>
    </div>
        ","","","","","","","","","","","","stimulus","","","","","","","","","","","","","","","","",""
"html-keyboard-response","12","216632","0.0-12.0","","230","arrowup","
    <div style="" display: block;  position: relative;"">
    
    <svg width=1440 height=900>
    <circle cx=657 cy=450 r=10.611963833956315 stroke=""black"" stroke-width=""1"" fill=""black"" />
    <circle cx=956.937 cy=450 r=15.159948334223309 stroke=""none"" stroke-width=""1.5"" fill=""none"" />
    <circle cx=838.78 cy=568.157 r=15.159948334223309 stroke=""none"" stroke-width=""1.5"" fill=""none"" />
    <circle cx=720.6229999999999 cy=450 r=15.159948334223309 stroke=""none"" stroke-width=""1.5"" fill=""none"" />
    <circle cx=838.78 cy=331.84299999999996 r=15.159948334223309 stroke=""none"" stroke-width=""1.5"" fill=""none"" />
    <polygon points = ""838.78,450 843.0444176666754,434.8400516657767 834.5155823333246,434.8400516657767"" stroke=""none"" stroke-width=""3"" fill = ""none"" />
    
    </svg>
    </div>
        ","","","","","","","","","","","","practice_get_response","true","UHB3ugGTmB1Cnwlb","118.15700000000001","3.89","false","true","false","181.78","6","416.88200000000006","","","","","","",""
"html-keyboard-response","13","217136","0.0-13.0","","null","null","
    <div style="" display: block;  position: relative;"">
    
    <svg width=1440 height=900>
    <circle cx=657 cy=450 r=10.611963833956315 stroke=""black"" stroke-width=""1"" fill=""black"" />
    <circle cx=956.937 cy=450 r=15.159948334223309 stroke=""none"" stroke-width=""1.5"" fill=""none"" />
    <circle cx=838.78 cy=568.157 r=15.159948334223309 stroke=""none"" stroke-width=""1.5"" fill=""none"" />
    <circle cx=720.6229999999999 cy=450 r=15.159948334223309 stroke=""none"" stroke-width=""1.5"" fill=""none"" />
    <circle cx=838.78 cy=331.84299999999996 r=15.159948334223309 stroke=""none"" stroke-width=""1.5"" fill=""none"" />
    <polygon points = ""838.78,450 843.0444176666754,434.8400516657767 834.5155823333246,434.8400516657767"" stroke=""none"" stroke-width=""3"" fill = ""none"" />
    
    </svg>
    </div>
        ","","","","","","","","","","","","","","","","","","","","","","","","","","","","",""
"html-keyboard-response","14","217292","0.0-14.0","","null","null","
    <div style="" display: block;  position: relative;"">
    <svg width=1440 height=900>
    
    <circle cx=657 cy=450 r=10.611963833956315 stroke=""black"" stroke-width=""1"" fill=""black"" />
    <circle cx=838.78 cy=450 r=15.159948334223309 stroke=""black"" stroke-width=""1.5"" fill=""none"" />
    <circle cx=956.937 cy=450 r=15.159948334223309 stroke=""black"" stroke-width=""1.5"" fill=""none"" />
    <circle cx=838.78 cy=568.157 r=15.159948334223309 stroke=""black"" stroke-width=""1.5"" fill=""none"" />
    <circle cx=720.6229999999999 cy=450 r=15.159948334223309 stroke=""black"" stroke-width=""1.5"" fill=""none"" />
    <circle cx=838.78 cy=331.84299999999996 r=15.159948334223309 stroke=""black"" stroke-width=""1.5"" fill=""none"" />
    <polygon points = ""838.78,450 843.0444176666754,465.1599483342233 834.5155823333246,465.1599483342233"" stroke=""white"" stroke-width=""3"" fill = ""white"" />
    
    </svg>
    </div>
        ","","","","","","","","","","","","stimulus","","","","","","","","","","","","","","","","",""
"html-keyboard-response","15","217614","0.0-15.0","","319.60000002384186","arrowdown","
    <div style="" display: block;  position: relative;"">
    
    <svg width=1440 height=900>
    <circle cx=657 cy=450 r=10.611963833956315 stroke=""black"" stroke-width=""1"" fill=""black"" />
    <circle cx=956.937 cy=450 r=15.159948334223309 stroke=""none"" stroke-width=""1.5"" fill=""none"" />
    <circle cx=838.78 cy=568.157 r=15.159948334223309 stroke=""none"" stroke-width=""1.5"" fill=""none"" />
    <circle cx=720.6229999999999 cy=450 r=15.159948334223309 stroke=""none"" stroke-width=""1.5"" fill=""none"" />
    <circle cx=838.78 cy=331.84299999999996 r=15.159948334223309 stroke=""none"" stroke-width=""1.5"" fill=""none"" />
    <polygon points = ""838.78,450 843.0444176666754,465.1599483342233 834.5155823333246,465.1599483342233"" stroke=""none"" stroke-width=""3"" fill = ""none"" />
    
    </svg>
    </div>
        ","","","","","","","","","","","","practice_get_response","true","UHB3ugGTmB1Cnwlb","118.15700000000001","3.89","false","false","false","181.78","6","416.88200000000006","","","","","","",""
"html-keyboard-response","16","218116","0.0-16.0","","null","null","
    <div style="" display: block;  position: relative;"">
    
    <svg width=1440 height=900>
    <circle cx=657 cy=450 r=10.611963833956315 stroke=""black"" stroke-width=""1"" fill=""black"" />
    <circle cx=956.937 cy=450 r=15.159948334223309 stroke=""none"" stroke-width=""1.5"" fill=""none"" />
    <circle cx=838.78 cy=568.157 r=15.159948334223309 stroke=""none"" stroke-width=""1.5"" fill=""none"" />
    <circle cx=720.6229999999999 cy=450 r=15.159948334223309 stroke=""none"" stroke-width=""1.5"" fill=""none"" />
    <circle cx=838.78 cy=331.84299999999996 r=15.159948334223309 stroke=""none"" stroke-width=""1.5"" fill=""none"" />
    <polygon points = ""838.78,450 843.0444176666754,465.1599483342233 834.5155823333246,465.1599483342233"" stroke=""none"" stroke-width=""3"" fill = ""none"" />
    
    </svg>
    </div>
        ","","","","","","","","","","","","","","","","","","","","","","","","","","","","",""
"html-keyboard-response","17","218270","0.0-17.0","","null","null","
    <div style="" display: block;  position: relative;"">
    <svg width=1440 height=900>
    
    <circle cx=657 cy=450 r=10.611963833956315 stroke=""black"" stroke-width=""1"" fill=""black"" />
    <circle cx=838.78 cy=450 r=15.159948334223309 stroke=""black"" stroke-width=""1.5"" fill=""none"" />
    <circle cx=946.1954545454545 cy=450 r=15.159948334223309 stroke=""black"" stroke-width=""1.5"" fill=""none"" />
    <circle cx=838.78 cy=557.4154545454545 r=15.159948334223309 stroke=""black"" stroke-width=""1.5"" fill=""none"" />
    <circle cx=731.3645454545455 cy=450 r=15.159948334223309 stroke=""black"" stroke-width=""1.5"" fill=""none"" />
    <circle cx=838.78 cy=342.58454545454543 r=15.159948334223309 stroke=""black"" stroke-width=""1.5"" fill=""none"" />
    <polygon points = ""838.78,450 843.0444176666754,465.1599483342233 834.5155823333246,465.1599483342233"" stroke=""white"" stroke-width=""3"" fill = ""white"" />
    
    </svg>
    </div>
        ","","","","","","","","","","","","stimulus","","","","","","","","","","","","","","","","",""
"html-keyboard-response","18","218558","0.0-18.0","","285.8000000715256","arrowdown","
    <div style="" display: block;  position: relative;"">
    
    <svg width=1440 height=900>
    <circle cx=657 cy=450 r=10.611963833956315 stroke=""black"" stroke-width=""1"" fill=""black"" />
    <circle cx=946.1954545454545 cy=450 r=15.159948334223309 stroke=""none"" stroke-width=""1.5"" fill=""none"" />
    <circle cx=838.78 cy=557.4154545454545 r=15.159948334223309 stroke=""none"" stroke-width=""1.5"" fill=""none"" />
    <circle cx=731.3645454545455 cy=450 r=15.159948334223309 stroke=""none"" stroke-width=""1.5"" fill=""none"" />
    <circle cx=838.78 cy=342.58454545454543 r=15.159948334223309 stroke=""none"" stroke-width=""1.5"" fill=""none"" />
    <polygon points = ""838.78,450 843.0444176666754,465.1599483342233 834.5155823333246,465.1599483342233"" stroke=""none"" stroke-width=""3"" fill = ""none"" />
    
    </svg>
    </div>
        ","","","","","","","","","","","","practice_get_response","true","UHB3ugGTmB1Cnwlb","107.41545454545455","3.54","false","false","false","181.78","6","416.88200000000006","","","","","","",""
"html-keyboard-response","19","219060","0.0-19.0","","null","null","
    <div style="" display: block;  position: relative;"">
    
    <svg width=1440 height=900>
    <circle cx=657 cy=450 r=10.611963833956315 stroke=""black"" stroke-width=""1"" fill=""black"" />
    <circle cx=946.1954545454545 cy=450 r=15.159948334223309 stroke=""none"" stroke-width=""1.5"" fill=""none"" />
    <circle cx=838.78 cy=557.4154545454545 r=15.159948334223309 stroke=""none"" stroke-width=""1.5"" fill=""none"" />
    <circle cx=731.3645454545455 cy=450 r=15.159948334223309 stroke=""none"" stroke-width=""1.5"" fill=""none"" />
    <circle cx=838.78 cy=342.58454545454543 r=15.159948334223309 stroke=""none"" stroke-width=""1.5"" fill=""none"" />
    <polygon points = ""838.78,450 843.0444176666754,465.1599483342233 834.5155823333246,465.1599483342233"" stroke=""none"" stroke-width=""3"" fill = ""none"" />
    
    </svg>
    </div>
        ","","","","","","","","","","","","","","","","","","","","","","","","","","","","",""
"html-keyboard-response","20","219213","0.0-20.0","","null","null","
    <div style="" display: block;  position: relative;"">
    <svg width=1440 height=900>
    
    <circle cx=657 cy=450 r=10.611963833956315 stroke=""black"" stroke-width=""1"" fill=""black"" />
    <circle cx=475.22 cy=450 r=15.159948334223309 stroke=""black"" stroke-width=""1.5"" fill=""none"" />
    <circle cx=572.8704132231405 cy=450 r=15.159948334223309 stroke=""black"" stroke-width=""1.5"" fill=""none"" />
    <circle cx=475.22 cy=547.6504132231405 r=15.159948334223309 stroke=""black"" stroke-width=""1.5"" fill=""none"" />
    <circle cx=377.5695867768595 cy=450 r=15.159948334223309 stroke=""black"" stroke-width=""1.5"" fill=""none"" />
    <circle cx=475.22 cy=352.3495867768595 r=15.159948334223309 stroke=""black"" stroke-width=""1.5"" fill=""none"" />
    <polygon points = ""475.22,450 479.48441766667537,465.1599483342233 470.9555823333247,465.1599483342233"" stroke=""white"" stroke-width=""3"" fill = ""white"" />
    
    </svg>
    </div>
        ","","","","","","","","","","","","stimulus","","","","","","","","","","","","","","","","",""
"html-keyboard-response","21","219581","0.0-21.0","","365.59999990463257","arrowup","
    <div style="" display: block;  position: relative;"">
    
    <svg width=1440 height=900>
    <circle cx=657 cy=450 r=10.611963833956315 stroke=""black"" stroke-width=""1"" fill=""black"" />
    <circle cx=572.8704132231405 cy=450 r=15.159948334223309 stroke=""none"" stroke-width=""1.5"" fill=""none"" />
    <circle cx=475.22 cy=547.6504132231405 r=15.159948334223309 stroke=""none"" stroke-width=""1.5"" fill=""none"" />
    <circle cx=377.5695867768595 cy=450 r=15.159948334223309 stroke=""none"" stroke-width=""1.5"" fill=""none"" />
    <circle cx=475.22 cy=352.3495867768595 r=15.159948334223309 stroke=""none"" stroke-width=""1.5"" fill=""none"" />
    <polygon points = ""475.22,450 479.48441766667537,465.1599483342233 470.9555823333247,465.1599483342233"" stroke=""none"" stroke-width=""3"" fill = ""none"" />
    
    </svg>
    </div>
        ","","","","","","","","","","","","practice_get_response","false","UHB3ugGTmB1Cnwlb","97.65041322314049","3.21","true","false","false","181.78","6","416.88200000000006","","","","","","",""
"html-keyboard-response","22","223315","0.0-22.0","","3731.7999999523163","arrowdown","<div> 
<h2 class=""bolded-blue"">Well done!</h2>
<p> Now that you have the hang of it, we&#39;ll start the study. This session has 25 trials and takes about 2 minute to complete. </p> 
<p>If you are ready for the real deal, please press the <b>down</b> arrow to continue.
</p>
</div>","","","","","","","","","","","","","","","","","","","","","","","","","","","","",""
"html-keyboard-response","23","227204","0.0-23.0","","3887.9000000953674","arrowdown","<div id=""continue""> 
<p>Again, please keep the <b>full screen</b> mode for the best experience.</p>
<p>Please do not move around and keep your eye on the black dot. Click <b>up</b> or <b>down</b> key on your keyboard to indicate the opening of the center circle. Make your best guess!</p>
<p>Please press the <b>down</b> arrow key to start the session 1. </p>
</div>","","","","","","","","","","","","","","","","","","","","","","","","","","","","",""
"html-keyboard-response","24","227707","0.0-24.0","","null","null","
    <div style="" display: block;  position: relative;"">
    
    <svg width=1440 height=900>
    <circle cx=657 cy=450 r=10.611963833956315 stroke=""black"" stroke-width=""1"" fill=""black"" />
    <circle cx=572.8704132231405 cy=450 r=15.159948334223309 stroke=""none"" stroke-width=""1.5"" fill=""none"" />
    <circle cx=475.22 cy=547.6504132231405 r=15.159948334223309 stroke=""none"" stroke-width=""1.5"" fill=""none"" />
    <circle cx=377.5695867768595 cy=450 r=15.159948334223309 stroke=""none"" stroke-width=""1.5"" fill=""none"" />
    <circle cx=475.22 cy=352.3495867768595 r=15.159948334223309 stroke=""none"" stroke-width=""1.5"" fill=""none"" />
    <polygon points = ""475.22,450 479.48441766667537,465.1599483342233 470.9555823333247,465.1599483342233"" stroke=""none"" stroke-width=""3"" fill = ""none"" />
    
    </svg>
    </div>
        ","","","","","","","","","","","","","","","","","","","","","","","","","","","","",""
"html-keyboard-response","25","227863","0.0-25.0","","null","null","
    <div style="" display: block;  position: relative;"">
    <svg width=1440 height=900>
    
    <circle cx=657 cy=450 r=10.611963833956315 stroke=""black"" stroke-width=""1"" fill=""black"" />
    <circle cx=475.22 cy=450 r=15.159948334223309 stroke=""black"" stroke-width=""1.5"" fill=""none"" />
    <circle cx=593.3770000000001 cy=450 r=15.159948334223309 stroke=""black"" stroke-width=""1.5"" fill=""none"" />
    <circle cx=475.22 cy=568.157 r=15.159948334223309 stroke=""black"" stroke-width=""1.5"" fill=""none"" />
    <circle cx=357.063 cy=450 r=15.159948334223309 stroke=""black"" stroke-width=""1.5"" fill=""none"" />
    <circle cx=475.22 cy=331.84299999999996 r=15.159948334223309 stroke=""black"" stroke-width=""1.5"" fill=""none"" />
    <polygon points = ""475.22,450 479.48441766667537,465.1599483342233 470.9555823333247,465.1599483342233"" stroke=""white"" stroke-width=""3"" fill = ""white"" />
    
    </svg>
    </div>
        ","","","","","","","","","","","","stimulus","","","","","","","","","","","","","","","","",""
"html-keyboard-response","26","228361","0.0-26.0","","495.39999997615814","arrowdown","
    <div style="" display: block;  position: relative;"">
    
    <svg width=1440 height=900>
    <circle cx=657 cy=450 r=10.611963833956315 stroke=""black"" stroke-width=""1"" fill=""black"" />
    <circle cx=593.3770000000001 cy=450 r=15.159948334223309 stroke=""none"" stroke-width=""1.5"" fill=""none"" />
    <circle cx=475.22 cy=568.157 r=15.159948334223309 stroke=""none"" stroke-width=""1.5"" fill=""none"" />
    <circle cx=357.063 cy=450 r=15.159948334223309 stroke=""none"" stroke-width=""1.5"" fill=""none"" />
    <circle cx=475.22 cy=331.84299999999996 r=15.159948334223309 stroke=""none"" stroke-width=""1.5"" fill=""none"" />
    <polygon points = ""475.22,450 479.48441766667537,465.1599483342233 470.9555823333247,465.1599483342233"" stroke=""none"" stroke-width=""3"" fill = ""none"" />
    
    </svg>
    </div>
        ","","","","","","","","","","","","get_response","true","UHB3ugGTmB1Cnwlb","","","true","false","false","181.78","6","416.88200000000006","118.15700000000001","3.89","1","0","","",""
"html-keyboard-response","27","228864","0.0-27.0","","null","null","
    <div style="" display: block;  position: relative;"">
    
    <svg width=1440 height=900>
    <circle cx=657 cy=450 r=10.611963833956315 stroke=""black"" stroke-width=""1"" fill=""black"" />
    <circle cx=593.3770000000001 cy=450 r=15.159948334223309 stroke=""none"" stroke-width=""1.5"" fill=""none"" />
    <circle cx=475.22 cy=568.157 r=15.159948334223309 stroke=""none"" stroke-width=""1.5"" fill=""none"" />
    <circle cx=357.063 cy=450 r=15.159948334223309 stroke=""none"" stroke-width=""1.5"" fill=""none"" />
    <circle cx=475.22 cy=331.84299999999996 r=15.159948334223309 stroke=""none"" stroke-width=""1.5"" fill=""none"" />
    <polygon points = ""475.22,450 479.48441766667537,465.1599483342233 470.9555823333247,465.1599483342233"" stroke=""none"" stroke-width=""3"" fill = ""none"" />
    
    </svg>
    </div>
        ","","","","","","","","","","","","","","","","","","","","","","","","","","","","",""
"html-keyboard-response","28","229020","0.0-28.0","","null","null","
    <div style="" display: block;  position: relative;"">
    <svg width=1440 height=900>
    
    <circle cx=657 cy=450 r=10.611963833956315 stroke=""black"" stroke-width=""1"" fill=""black"" />
    <circle cx=475.22 cy=450 r=15.159948334223309 stroke=""black"" stroke-width=""1.5"" fill=""none"" />
    <circle cx=593.3770000000001 cy=450 r=15.159948334223309 stroke=""black"" stroke-width=""1.5"" fill=""none"" />
    <circle cx=475.22 cy=568.157 r=15.159948334223309 stroke=""black"" stroke-width=""1.5"" fill=""none"" />
    <circle cx=357.063 cy=450 r=15.159948334223309 stroke=""black"" stroke-width=""1.5"" fill=""none"" />
    <circle cx=475.22 cy=331.84299999999996 r=15.159948334223309 stroke=""black"" stroke-width=""1.5"" fill=""none"" />
    <polygon points = ""475.22,450 479.48441766667537,434.8400516657767 470.9555823333247,434.8400516657767"" stroke=""white"" stroke-width=""3"" fill = ""white"" />
    
    </svg>
    </div>
        ","","","","","","","","","","","","stimulus","","","","","","","","","","","","","","","","",""
"html-keyboard-response","29","229390","0.0-29.0","","367.89999997615814","arrowdown","
    <div style="" display: block;  position: relative;"">
    
    <svg width=1440 height=900>
    <circle cx=657 cy=450 r=10.611963833956315 stroke=""black"" stroke-width=""1"" fill=""black"" />
    <circle cx=593.3770000000001 cy=450 r=15.159948334223309 stroke=""none"" stroke-width=""1.5"" fill=""none"" />
    <circle cx=475.22 cy=568.157 r=15.159948334223309 stroke=""none"" stroke-width=""1.5"" fill=""none"" />
    <circle cx=357.063 cy=450 r=15.159948334223309 stroke=""none"" stroke-width=""1.5"" fill=""none"" />
    <circle cx=475.22 cy=331.84299999999996 r=15.159948334223309 stroke=""none"" stroke-width=""1.5"" fill=""none"" />
    <polygon points = ""475.22,450 479.48441766667537,434.8400516657767 470.9555823333247,434.8400516657767"" stroke=""none"" stroke-width=""3"" fill = ""none"" />
    
    </svg>
    </div>
        ","","","","","","","","","","","","get_response","false","UHB3ugGTmB1Cnwlb","","","true","true","false","181.78","6","416.88200000000006","118.15700000000001","3.89","1","0","","",""
"html-keyboard-response","30","229895","0.0-30.0","","null","null","
    <div style="" display: block;  position: relative;"">
    
    <svg width=1440 height=900>
    <circle cx=657 cy=450 r=10.611963833956315 stroke=""black"" stroke-width=""1"" fill=""black"" />
    <circle cx=593.3770000000001 cy=450 r=15.159948334223309 stroke=""none"" stroke-width=""1.5"" fill=""none"" />
    <circle cx=475.22 cy=568.157 r=15.159948334223309 stroke=""none"" stroke-width=""1.5"" fill=""none"" />
    <circle cx=357.063 cy=450 r=15.159948334223309 stroke=""none"" stroke-width=""1.5"" fill=""none"" />
    <circle cx=475.22 cy=331.84299999999996 r=15.159948334223309 stroke=""none"" stroke-width=""1.5"" fill=""none"" />
    <polygon points = ""475.22,450 479.48441766667537,434.8400516657767 470.9555823333247,434.8400516657767"" stroke=""none"" stroke-width=""3"" fill = ""none"" />
    
    </svg>
    </div>
        ","","","","","","","","","","","","","","","","","","","","","","","","","","","","",""
"html-keyboard-response","31","230054","0.0-31.0","","null","null","
    <div style="" display: block;  position: relative;"">
    <svg width=1440 height=900>
    
    <circle cx=657 cy=450 r=10.611963833956315 stroke=""black"" stroke-width=""1"" fill=""black"" />
    <circle cx=475.22 cy=450 r=15.159948334223309 stroke=""black"" stroke-width=""1.5"" fill=""none"" />
    <circle cx=626.6801033315535 cy=450 r=15.159948334223309 stroke=""black"" stroke-width=""1.5"" fill=""none"" />
    <circle cx=475.22 cy=601.4601033315535 r=15.159948334223309 stroke=""black"" stroke-width=""1.5"" fill=""none"" />
    <circle cx=323.75989666844663 cy=450 r=15.159948334223309 stroke=""black"" stroke-width=""1.5"" fill=""none"" />
    <circle cx=475.22 cy=298.5398966684466 r=15.159948334223309 stroke=""black"" stroke-width=""1.5"" fill=""none"" />
    <polygon points = ""475.22,450 479.48441766667537,465.1599483342233 470.9555823333247,465.1599483342233"" stroke=""white"" stroke-width=""3"" fill = ""white"" />
    
    </svg>
    </div>
        ","","","","","","","","","","","","stimulus","","","","","","","","","","","","","","","","",""
"html-keyboard-response","32","230441","0.0-32.0","","385.40000009536743","arrowdown","
    <div style="" display: block;  position: relative;"">
    
    <svg width=1440 height=900>
    <circle cx=657 cy=450 r=10.611963833956315 stroke=""black"" stroke-width=""1"" fill=""black"" />
    <circle cx=626.6801033315535 cy=450 r=15.159948334223309 stroke=""none"" stroke-width=""1.5"" fill=""none"" />
    <circle cx=475.22 cy=601.4601033315535 r=15.159948334223309 stroke=""none"" stroke-width=""1.5"" fill=""none"" />
    <circle cx=323.75989666844663 cy=450 r=15.159948334223309 stroke=""none"" stroke-width=""1.5"" fill=""none"" />
    <circle cx=475.22 cy=298.5398966684466 r=15.159948334223309 stroke=""none"" stroke-width=""1.5"" fill=""none"" />
    <polygon points = ""475.22,450 479.48441766667537,465.1599483342233 470.9555823333247,465.1599483342233"" stroke=""none"" stroke-width=""3"" fill = ""none"" />
    
    </svg>
    </div>
        ","","","","","","","","","","","","get_response","true","UHB3ugGTmB1Cnwlb","","","true","false","false","181.78","6","416.88200000000006","151.4601033315534","4.99","1","0","","",""
"html-keyboard-response","33","230945","0.0-33.0","","null","null","
    <div style="" display: block;  position: relative;"">
    
    <svg width=1440 height=900>
    <circle cx=657 cy=450 r=10.611963833956315 stroke=""black"" stroke-width=""1"" fill=""black"" />
    <circle cx=626.6801033315535 cy=450 r=15.159948334223309 stroke=""none"" stroke-width=""1.5"" fill=""none"" />
    <circle cx=475.22 cy=601.4601033315535 r=15.159948334223309 stroke=""none"" stroke-width=""1.5"" fill=""none"" />
    <circle cx=323.75989666844663 cy=450 r=15.159948334223309 stroke=""none"" stroke-width=""1.5"" fill=""none"" />
    <circle cx=475.22 cy=298.5398966684466 r=15.159948334223309 stroke=""none"" stroke-width=""1.5"" fill=""none"" />
    <polygon points = ""475.22,450 479.48441766667537,465.1599483342233 470.9555823333247,465.1599483342233"" stroke=""none"" stroke-width=""3"" fill = ""none"" />
    
    </svg>
    </div>
        ","","","","","","","","","","","","","","","","","","","","","","","","","","","","",""
"html-keyboard-response","34","231101","0.0-34.0","","null","null","
    <div style="" display: block;  position: relative;"">
    <svg width=1440 height=900>
    
    <circle cx=657 cy=450 r=10.611963833956315 stroke=""black"" stroke-width=""1"" fill=""black"" />
    <circle cx=475.22 cy=450 r=15.159948334223309 stroke=""black"" stroke-width=""1.5"" fill=""none"" />
    <circle cx=626.6801033315535 cy=450 r=15.159948334223309 stroke=""black"" stroke-width=""1.5"" fill=""none"" />
    <circle cx=475.22 cy=601.4601033315535 r=15.159948334223309 stroke=""black"" stroke-width=""1.5"" fill=""none"" />
    <circle cx=323.75989666844663 cy=450 r=15.159948334223309 stroke=""black"" stroke-width=""1.5"" fill=""none"" />
    <circle cx=475.22 cy=298.5398966684466 r=15.159948334223309 stroke=""black"" stroke-width=""1.5"" fill=""none"" />
    <polygon points = ""475.22,450 479.48441766667537,465.1599483342233 470.9555823333247,465.1599483342233"" stroke=""white"" stroke-width=""3"" fill = ""white"" />
    
    </svg>
    </div>
        ","","","","","","","","","","","","stimulus","","","","","","","","","","","","","","","","",""
"html-keyboard-response","35","231393","0.0-35.0","","290.5","arrowdown","
    <div style="" display: block;  position: relative;"">
    
    <svg width=1440 height=900>
    <circle cx=657 cy=450 r=10.611963833956315 stroke=""black"" stroke-width=""1"" fill=""black"" />
    <circle cx=626.6801033315535 cy=450 r=15.159948334223309 stroke=""none"" stroke-width=""1.5"" fill=""none"" />
    <circle cx=475.22 cy=601.4601033315535 r=15.159948334223309 stroke=""none"" stroke-width=""1.5"" fill=""none"" />
    <circle cx=323.75989666844663 cy=450 r=15.159948334223309 stroke=""none"" stroke-width=""1.5"" fill=""none"" />
    <circle cx=475.22 cy=298.5398966684466 r=15.159948334223309 stroke=""none"" stroke-width=""1.5"" fill=""none"" />
    <polygon points = ""475.22,450 479.48441766667537,465.1599483342233 470.9555823333247,465.1599483342233"" stroke=""none"" stroke-width=""3"" fill = ""none"" />
    
    </svg>
    </div>
        ","","","","","","","","","","","","get_response","true","UHB3ugGTmB1Cnwlb","","","true","false","false","181.78","6","416.88200000000006","151.4601033315534","4.99","1","0","","",""
"html-keyboard-response","36","231896","0.0-36.0","","null","null","
    <div style="" display: block;  position: relative;"">
    
    <svg width=1440 height=900>
    <circle cx=657 cy=450 r=10.611963833956315 stroke=""black"" stroke-width=""1"" fill=""black"" />
    <circle cx=626.6801033315535 cy=450 r=15.159948334223309 stroke=""none"" stroke-width=""1.5"" fill=""none"" />
    <circle cx=475.22 cy=601.4601033315535 r=15.159948334223309 stroke=""none"" stroke-width=""1.5"" fill=""none"" />
    <circle cx=323.75989666844663 cy=450 r=15.159948334223309 stroke=""none"" stroke-width=""1.5"" fill=""none"" />
    <circle cx=475.22 cy=298.5398966684466 r=15.159948334223309 stroke=""none"" stroke-width=""1.5"" fill=""none"" />
    <polygon points = ""475.22,450 479.48441766667537,465.1599483342233 470.9555823333247,465.1599483342233"" stroke=""none"" stroke-width=""3"" fill = ""none"" />
    
    </svg>
    </div>
        ","","","","","","","","","","","","","","","","","","","","","","","","","","","","",""
"html-keyboard-response","37","232053","0.0-37.0","","null","null","
    <div style="" display: block;  position: relative;"">
    <svg width=1440 height=900>
    
    <circle cx=657 cy=450 r=10.611963833956315 stroke=""black"" stroke-width=""1"" fill=""black"" />
    <circle cx=838.78 cy=450 r=15.159948334223309 stroke=""black"" stroke-width=""1.5"" fill=""none"" />
    <circle cx=990.2401033315534 cy=450 r=15.159948334223309 stroke=""black"" stroke-width=""1.5"" fill=""none"" />
    <circle cx=838.78 cy=601.4601033315535 r=15.159948334223309 stroke=""black"" stroke-width=""1.5"" fill=""none"" />
    <circle cx=687.3198966684465 cy=450 r=15.159948334223309 stroke=""black"" stroke-width=""1.5"" fill=""none"" />
    <circle cx=838.78 cy=298.5398966684466 r=15.159948334223309 stroke=""black"" stroke-width=""1.5"" fill=""none"" />
    <polygon points = ""838.78,450 843.0444176666754,434.8400516657767 834.5155823333246,434.8400516657767"" stroke=""white"" stroke-width=""3"" fill = ""white"" />
    
    </svg>
    </div>
        ","","","","","","","","","","","","stimulus","","","","","","","","","","","","","","","","",""
"html-keyboard-response","38","232491","0.0-38.0","","435.5","arrowup","
    <div style="" display: block;  position: relative;"">
    
    <svg width=1440 height=900>
    <circle cx=657 cy=450 r=10.611963833956315 stroke=""black"" stroke-width=""1"" fill=""black"" />
    <circle cx=990.2401033315534 cy=450 r=15.159948334223309 stroke=""none"" stroke-width=""1.5"" fill=""none"" />
    <circle cx=838.78 cy=601.4601033315535 r=15.159948334223309 stroke=""none"" stroke-width=""1.5"" fill=""none"" />
    <circle cx=687.3198966684465 cy=450 r=15.159948334223309 stroke=""none"" stroke-width=""1.5"" fill=""none"" />
    <circle cx=838.78 cy=298.5398966684466 r=15.159948334223309 stroke=""none"" stroke-width=""1.5"" fill=""none"" />
    <polygon points = ""838.78,450 843.0444176666754,434.8400516657767 834.5155823333246,434.8400516657767"" stroke=""none"" stroke-width=""3"" fill = ""none"" />
    
    </svg>
    </div>
        ","","","","","","","","","","","","get_response","true","UHB3ugGTmB1Cnwlb","","","false","true","false","181.78","6","416.88200000000006","151.4601033315534","4.99","1","0","","",""
"html-keyboard-response","39","232994","0.0-39.0","","null","null","
    <div style="" display: block;  position: relative;"">
    
    <svg width=1440 height=900>
    <circle cx=657 cy=450 r=10.611963833956315 stroke=""black"" stroke-width=""1"" fill=""black"" />
    <circle cx=990.2401033315534 cy=450 r=15.159948334223309 stroke=""none"" stroke-width=""1.5"" fill=""none"" />
    <circle cx=838.78 cy=601.4601033315535 r=15.159948334223309 stroke=""none"" stroke-width=""1.5"" fill=""none"" />
    <circle cx=687.3198966684465 cy=450 r=15.159948334223309 stroke=""none"" stroke-width=""1.5"" fill=""none"" />
    <circle cx=838.78 cy=298.5398966684466 r=15.159948334223309 stroke=""none"" stroke-width=""1.5"" fill=""none"" />
    <polygon points = ""838.78,450 843.0444176666754,434.8400516657767 834.5155823333246,434.8400516657767"" stroke=""none"" stroke-width=""3"" fill = ""none"" />
    
    </svg>
    </div>
        ","","","","","","","","","","","","","","","","","","","","","","","","","","","","",""
"html-keyboard-response","40","233149","0.0-40.0","","null","null","
    <div style="" display: block;  position: relative;"">
    <svg width=1440 height=900>
    
    <circle cx=657 cy=450 r=10.611963833956315 stroke=""black"" stroke-width=""1"" fill=""black"" />
    <circle cx=475.22 cy=450 r=15.159948334223309 stroke=""black"" stroke-width=""1.5"" fill=""none"" />
    <circle cx=612.911003028685 cy=450 r=15.159948334223309 stroke=""black"" stroke-width=""1.5"" fill=""none"" />
    <circle cx=475.22 cy=587.6910030286849 r=15.159948334223309 stroke=""black"" stroke-width=""1.5"" fill=""none"" />
    <circle cx=337.5289969713151 cy=450 r=15.159948334223309 stroke=""black"" stroke-width=""1.5"" fill=""none"" />
    <circle cx=475.22 cy=312.3089969713151 r=15.159948334223309 stroke=""black"" stroke-width=""1.5"" fill=""none"" />
    <polygon points = ""475.22,450 479.48441766667537,465.1599483342233 470.9555823333247,465.1599483342233"" stroke=""white"" stroke-width=""3"" fill = ""white"" />
    
    </svg>
    </div>
        ","","","","","","","","","","","","stimulus","","","","","","","","","","","","","","","","",""
"html-keyboard-response","41","233736","0.0-41.0","","584.3999999761581","arrowdown","
    <div style="" display: block;  position: relative;"">
    
    <svg width=1440 height=900>
    <circle cx=657 cy=450 r=10.611963833956315 stroke=""black"" stroke-width=""1"" fill=""black"" />
    <circle cx=612.911003028685 cy=450 r=15.159948334223309 stroke=""none"" stroke-width=""1.5"" fill=""none"" />
    <circle cx=475.22 cy=587.6910030286849 r=15.159948334223309 stroke=""none"" stroke-width=""1.5"" fill=""none"" />
    <circle cx=337.5289969713151 cy=450 r=15.159948334223309 stroke=""none"" stroke-width=""1.5"" fill=""none"" />
    <circle cx=475.22 cy=312.3089969713151 r=15.159948334223309 stroke=""none"" stroke-width=""1.5"" fill=""none"" />
    <polygon points = ""475.22,450 479.48441766667537,465.1599483342233 470.9555823333247,465.1599483342233"" stroke=""none"" stroke-width=""3"" fill = ""none"" />
    
    </svg>
    </div>
        ","","","","","","","","","","","","get_response","true","UHB3ugGTmB1Cnwlb","","","true","false","false","181.78","6","416.88200000000006","137.6910030286849","4.54","1","0","","",""
"html-keyboard-response","42","234239","0.0-42.0","","null","null","
    <div style="" display: block;  position: relative;"">
    
    <svg width=1440 height=900>
    <circle cx=657 cy=450 r=10.611963833956315 stroke=""black"" stroke-width=""1"" fill=""black"" />
    <circle cx=612.911003028685 cy=450 r=15.159948334223309 stroke=""none"" stroke-width=""1.5"" fill=""none"" />
    <circle cx=475.22 cy=587.6910030286849 r=15.159948334223309 stroke=""none"" stroke-width=""1.5"" fill=""none"" />
    <circle cx=337.5289969713151 cy=450 r=15.159948334223309 stroke=""none"" stroke-width=""1.5"" fill=""none"" />
    <circle cx=475.22 cy=312.3089969713151 r=15.159948334223309 stroke=""none"" stroke-width=""1.5"" fill=""none"" />
    <polygon points = ""475.22,450 479.48441766667537,465.1599483342233 470.9555823333247,465.1599483342233"" stroke=""none"" stroke-width=""3"" fill = ""none"" />
    
    </svg>
    </div>
        ","","","","","","","","","","","","","","","","","","","","","","","","","","","","",""
"html-keyboard-response","43","234392","0.0-43.0","","null","null","
    <div style="" display: block;  position: relative;"">
    <svg width=1440 height=900>
    
    <circle cx=657 cy=450 r=10.611963833956315 stroke=""black"" stroke-width=""1"" fill=""black"" />
    <circle cx=475.22 cy=450 r=15.159948334223309 stroke=""black"" stroke-width=""1.5"" fill=""none"" />
    <circle cx=600.3936391169863 cy=450 r=15.159948334223309 stroke=""black"" stroke-width=""1.5"" fill=""none"" />
    <circle cx=475.22 cy=575.1736391169862 r=15.159948334223309 stroke=""black"" stroke-width=""1.5"" fill=""none"" />
    <circle cx=350.0463608830138 cy=450 r=15.159948334223309 stroke=""black"" stroke-width=""1.5"" fill=""none"" />
    <circle cx=475.22 cy=324.82636088301376 r=15.159948334223309 stroke=""black"" stroke-width=""1.5"" fill=""none"" />
    <polygon points = ""475.22,450 479.48441766667537,434.8400516657767 470.9555823333247,434.8400516657767"" stroke=""white"" stroke-width=""3"" fill = ""white"" />
    
    </svg>
    </div>
        ","","","","","","","","","","","","stimulus","","","","","","","","","","","","","","","","",""
"html-keyboard-response","44","234689","0.0-44.0","","295.09999990463257","arrowdown","
    <div style="" display: block;  position: relative;"">
    
    <svg width=1440 height=900>
    <circle cx=657 cy=450 r=10.611963833956315 stroke=""black"" stroke-width=""1"" fill=""black"" />
    <circle cx=600.3936391169863 cy=450 r=15.159948334223309 stroke=""none"" stroke-width=""1.5"" fill=""none"" />
    <circle cx=475.22 cy=575.1736391169862 r=15.159948334223309 stroke=""none"" stroke-width=""1.5"" fill=""none"" />
    <circle cx=350.0463608830138 cy=450 r=15.159948334223309 stroke=""none"" stroke-width=""1.5"" fill=""none"" />
    <circle cx=475.22 cy=324.82636088301376 r=15.159948334223309 stroke=""none"" stroke-width=""1.5"" fill=""none"" />
    <polygon points = ""475.22,450 479.48441766667537,434.8400516657767 470.9555823333247,434.8400516657767"" stroke=""none"" stroke-width=""3"" fill = ""none"" />
    
    </svg>
    </div>
        ","","","","","","","","","","","","get_response","false","UHB3ugGTmB1Cnwlb","","","true","true","false","181.78","6","416.88200000000006","125.17363911698625","4.12","1","0","","",""
"html-keyboard-response","45","235194","0.0-45.0","","null","null","
    <div style="" display: block;  position: relative;"">
    
    <svg width=1440 height=900>
    <circle cx=657 cy=450 r=10.611963833956315 stroke=""black"" stroke-width=""1"" fill=""black"" />
    <circle cx=600.3936391169863 cy=450 r=15.159948334223309 stroke=""none"" stroke-width=""1.5"" fill=""none"" />
    <circle cx=475.22 cy=575.1736391169862 r=15.159948334223309 stroke=""none"" stroke-width=""1.5"" fill=""none"" />
    <circle cx=350.0463608830138 cy=450 r=15.159948334223309 stroke=""none"" stroke-width=""1.5"" fill=""none"" />
    <circle cx=475.22 cy=324.82636088301376 r=15.159948334223309 stroke=""none"" stroke-width=""1.5"" fill=""none"" />
    <polygon points = ""475.22,450 479.48441766667537,434.8400516657767 470.9555823333247,434.8400516657767"" stroke=""none"" stroke-width=""3"" fill = ""none"" />
    
    </svg>
    </div>
        ","","","","","","","","","","","","","","","","","","","","","","","","","","","","",""
"html-keyboard-response","46","235347","0.0-46.0","","null","null","
    <div style="" display: block;  position: relative;"">
    <svg width=1440 height=900>
    
    <circle cx=657 cy=450 r=10.611963833956315 stroke=""black"" stroke-width=""1"" fill=""black"" />
    <circle cx=838.78 cy=450 r=15.159948334223309 stroke=""black"" stroke-width=""1.5"" fill=""none"" />
    <circle cx=990.2401033315534 cy=450 r=15.159948334223309 stroke=""black"" stroke-width=""1.5"" fill=""none"" />
    <circle cx=838.78 cy=601.4601033315535 r=15.159948334223309 stroke=""black"" stroke-width=""1.5"" fill=""none"" />
    <circle cx=687.3198966684465 cy=450 r=15.159948334223309 stroke=""black"" stroke-width=""1.5"" fill=""none"" />
    <circle cx=838.78 cy=298.5398966684466 r=15.159948334223309 stroke=""black"" stroke-width=""1.5"" fill=""none"" />
    <polygon points = ""838.78,450 843.0444176666754,434.8400516657767 834.5155823333246,434.8400516657767"" stroke=""white"" stroke-width=""3"" fill = ""white"" />
    
    </svg>
    </div>
        ","","","","","","","","","","","","stimulus","","","","","","","","","","","","","","","","",""
"html-keyboard-response","47","235603","0.0-47.0","","253.60000002384186","arrowup","
    <div style="" display: block;  position: relative;"">
    
    <svg width=1440 height=900>
    <circle cx=657 cy=450 r=10.611963833956315 stroke=""black"" stroke-width=""1"" fill=""black"" />
    <circle cx=990.2401033315534 cy=450 r=15.159948334223309 stroke=""none"" stroke-width=""1.5"" fill=""none"" />
    <circle cx=838.78 cy=601.4601033315535 r=15.159948334223309 stroke=""none"" stroke-width=""1.5"" fill=""none"" />
    <circle cx=687.3198966684465 cy=450 r=15.159948334223309 stroke=""none"" stroke-width=""1.5"" fill=""none"" />
    <circle cx=838.78 cy=298.5398966684466 r=15.159948334223309 stroke=""none"" stroke-width=""1.5"" fill=""none"" />
    <polygon points = ""838.78,450 843.0444176666754,434.8400516657767 834.5155823333246,434.8400516657767"" stroke=""none"" stroke-width=""3"" fill = ""none"" />
    
    </svg>
    </div>
        ","","","","","","","","","","","","get_response","true","UHB3ugGTmB1Cnwlb","","","false","true","false","181.78","6","416.88200000000006","151.4601033315534","4.99","1","0","","",""
"html-keyboard-response","48","236105","0.0-48.0","","null","null","
    <div style="" display: block;  position: relative;"">
    
    <svg width=1440 height=900>
    <circle cx=657 cy=450 r=10.611963833956315 stroke=""black"" stroke-width=""1"" fill=""black"" />
    <circle cx=990.2401033315534 cy=450 r=15.159948334223309 stroke=""none"" stroke-width=""1.5"" fill=""none"" />
    <circle cx=838.78 cy=601.4601033315535 r=15.159948334223309 stroke=""none"" stroke-width=""1.5"" fill=""none"" />
    <circle cx=687.3198966684465 cy=450 r=15.159948334223309 stroke=""none"" stroke-width=""1.5"" fill=""none"" />
    <circle cx=838.78 cy=298.5398966684466 r=15.159948334223309 stroke=""none"" stroke-width=""1.5"" fill=""none"" />
    <polygon points = ""838.78,450 843.0444176666754,434.8400516657767 834.5155823333246,434.8400516657767"" stroke=""none"" stroke-width=""3"" fill = ""none"" />
    
    </svg>
    </div>
        ","","","","","","","","","","","","","","","","","","","","","","","","","","","","",""
"html-keyboard-response","49","236263","0.0-49.0","","null","null","
    <div style="" display: block;  position: relative;"">
    <svg width=1440 height=900>
    
    <circle cx=657 cy=450 r=10.611963833956315 stroke=""black"" stroke-width=""1"" fill=""black"" />
    <circle cx=475.22 cy=450 r=15.159948334223309 stroke=""black"" stroke-width=""1.5"" fill=""none"" />
    <circle cx=626.6801033315535 cy=450 r=15.159948334223309 stroke=""black"" stroke-width=""1.5"" fill=""none"" />
    <circle cx=475.22 cy=601.4601033315535 r=15.159948334223309 stroke=""black"" stroke-width=""1.5"" fill=""none"" />
    <circle cx=323.75989666844663 cy=450 r=15.159948334223309 stroke=""black"" stroke-width=""1.5"" fill=""none"" />
    <circle cx=475.22 cy=298.5398966684466 r=15.159948334223309 stroke=""black"" stroke-width=""1.5"" fill=""none"" />
    <polygon points = ""475.22,450 479.48441766667537,465.1599483342233 470.9555823333247,465.1599483342233"" stroke=""white"" stroke-width=""3"" fill = ""white"" />
    
    </svg>
    </div>
        ","","","","","","","","","","","","stimulus","","","","","","","","","","","","","","","","",""
"html-keyboard-response","50","236555","0.0-50.0","","290.40000009536743","arrowdown","
    <div style="" display: block;  position: relative;"">
    
    <svg width=1440 height=900>
    <circle cx=657 cy=450 r=10.611963833956315 stroke=""black"" stroke-width=""1"" fill=""black"" />
    <circle cx=626.6801033315535 cy=450 r=15.159948334223309 stroke=""none"" stroke-width=""1.5"" fill=""none"" />
    <circle cx=475.22 cy=601.4601033315535 r=15.159948334223309 stroke=""none"" stroke-width=""1.5"" fill=""none"" />
    <circle cx=323.75989666844663 cy=450 r=15.159948334223309 stroke=""none"" stroke-width=""1.5"" fill=""none"" />
    <circle cx=475.22 cy=298.5398966684466 r=15.159948334223309 stroke=""none"" stroke-width=""1.5"" fill=""none"" />
    <polygon points = ""475.22,450 479.48441766667537,465.1599483342233 470.9555823333247,465.1599483342233"" stroke=""none"" stroke-width=""3"" fill = ""none"" />
    
    </svg>
    </div>
        ","","","","","","","","","","","","get_response","true","UHB3ugGTmB1Cnwlb","","","true","false","false","181.78","6","416.88200000000006","151.4601033315534","4.99","1","0","","",""
"html-keyboard-response","51","237057","0.0-51.0","","null","null","
    <div style="" display: block;  position: relative;"">
    
    <svg width=1440 height=900>
    <circle cx=657 cy=450 r=10.611963833956315 stroke=""black"" stroke-width=""1"" fill=""black"" />
    <circle cx=626.6801033315535 cy=450 r=15.159948334223309 stroke=""none"" stroke-width=""1.5"" fill=""none"" />
    <circle cx=475.22 cy=601.4601033315535 r=15.159948334223309 stroke=""none"" stroke-width=""1.5"" fill=""none"" />
    <circle cx=323.75989666844663 cy=450 r=15.159948334223309 stroke=""none"" stroke-width=""1.5"" fill=""none"" />
    <circle cx=475.22 cy=298.5398966684466 r=15.159948334223309 stroke=""none"" stroke-width=""1.5"" fill=""none"" />
    <polygon points = ""475.22,450 479.48441766667537,465.1599483342233 470.9555823333247,465.1599483342233"" stroke=""none"" stroke-width=""3"" fill = ""none"" />
    
    </svg>
    </div>
        ","","","","","","","","","","","","","","","","","","","","","","","","","","","","",""
"html-keyboard-response","52","237212","0.0-52.0","","null","null","
    <div style="" display: block;  position: relative;"">
    <svg width=1440 height=900>
    
    <circle cx=657 cy=450 r=10.611963833956315 stroke=""black"" stroke-width=""1"" fill=""black"" />
    <circle cx=838.78 cy=450 r=15.159948334223309 stroke=""black"" stroke-width=""1.5"" fill=""none"" />
    <circle cx=990.2401033315534 cy=450 r=15.159948334223309 stroke=""black"" stroke-width=""1.5"" fill=""none"" />
    <circle cx=838.78 cy=601.4601033315535 r=15.159948334223309 stroke=""black"" stroke-width=""1.5"" fill=""none"" />
    <circle cx=687.3198966684465 cy=450 r=15.159948334223309 stroke=""black"" stroke-width=""1.5"" fill=""none"" />
    <circle cx=838.78 cy=298.5398966684466 r=15.159948334223309 stroke=""black"" stroke-width=""1.5"" fill=""none"" />
    <polygon points = ""838.78,450 843.0444176666754,434.8400516657767 834.5155823333246,434.8400516657767"" stroke=""white"" stroke-width=""3"" fill = ""white"" />
    
    </svg>
    </div>
        ","","","","","","","","","","","","stimulus","","","","","","","","","","","","","","","","",""
"html-keyboard-response","53","237426","0.0-53.0","","212.60000002384186","arrowup","
    <div style="" display: block;  position: relative;"">
    
    <svg width=1440 height=900>
    <circle cx=657 cy=450 r=10.611963833956315 stroke=""black"" stroke-width=""1"" fill=""black"" />
    <circle cx=990.2401033315534 cy=450 r=15.159948334223309 stroke=""none"" stroke-width=""1.5"" fill=""none"" />
    <circle cx=838.78 cy=601.4601033315535 r=15.159948334223309 stroke=""none"" stroke-width=""1.5"" fill=""none"" />
    <circle cx=687.3198966684465 cy=450 r=15.159948334223309 stroke=""none"" stroke-width=""1.5"" fill=""none"" />
    <circle cx=838.78 cy=298.5398966684466 r=15.159948334223309 stroke=""none"" stroke-width=""1.5"" fill=""none"" />
    <polygon points = ""838.78,450 843.0444176666754,434.8400516657767 834.5155823333246,434.8400516657767"" stroke=""none"" stroke-width=""3"" fill = ""none"" />
    
    </svg>
    </div>
        ","","","","","","","","","","","","get_response","true","UHB3ugGTmB1Cnwlb","","","false","true","false","181.78","6","416.88200000000006","151.4601033315534","4.99","1","0","","",""
"html-keyboard-response","54","237928","0.0-54.0","","null","null","
    <div style="" display: block;  position: relative;"">
    
    <svg width=1440 height=900>
    <circle cx=657 cy=450 r=10.611963833956315 stroke=""black"" stroke-width=""1"" fill=""black"" />
    <circle cx=990.2401033315534 cy=450 r=15.159948334223309 stroke=""none"" stroke-width=""1.5"" fill=""none"" />
    <circle cx=838.78 cy=601.4601033315535 r=15.159948334223309 stroke=""none"" stroke-width=""1.5"" fill=""none"" />
    <circle cx=687.3198966684465 cy=450 r=15.159948334223309 stroke=""none"" stroke-width=""1.5"" fill=""none"" />
    <circle cx=838.78 cy=298.5398966684466 r=15.159948334223309 stroke=""none"" stroke-width=""1.5"" fill=""none"" />
    <polygon points = ""838.78,450 843.0444176666754,434.8400516657767 834.5155823333246,434.8400516657767"" stroke=""none"" stroke-width=""3"" fill = ""none"" />
    
    </svg>
    </div>
        ","","","","","","","","","","","","","","","","","","","","","","","","","","","","",""
"html-keyboard-response","55","238086","0.0-55.0","","null","null","
    <div style="" display: block;  position: relative;"">
    <svg width=1440 height=900>
    
    <circle cx=657 cy=450 r=10.611963833956315 stroke=""black"" stroke-width=""1"" fill=""black"" />
    <circle cx=838.78 cy=450 r=15.159948334223309 stroke=""black"" stroke-width=""1.5"" fill=""none"" />
    <circle cx=976.4710030286849 cy=450 r=15.159948334223309 stroke=""black"" stroke-width=""1.5"" fill=""none"" />
    <circle cx=838.78 cy=587.6910030286849 r=15.159948334223309 stroke=""black"" stroke-width=""1.5"" fill=""none"" />
    <circle cx=701.088996971315 cy=450 r=15.159948334223309 stroke=""black"" stroke-width=""1.5"" fill=""none"" />
    <circle cx=838.78 cy=312.3089969713151 r=15.159948334223309 stroke=""black"" stroke-width=""1.5"" fill=""none"" />
    <polygon points = ""838.78,450 843.0444176666754,434.8400516657767 834.5155823333246,434.8400516657767"" stroke=""white"" stroke-width=""3"" fill = ""white"" />
    
    </svg>
    </div>
        ","","","","","","","","","","","","stimulus","","","","","","","","","","","","","","","","",""
"html-keyboard-response","56","238367","0.0-56.0","","279.09999990463257","arrowup","
    <div style="" display: block;  position: relative;"">
    
    <svg width=1440 height=900>
    <circle cx=657 cy=450 r=10.611963833956315 stroke=""black"" stroke-width=""1"" fill=""black"" />
    <circle cx=976.4710030286849 cy=450 r=15.159948334223309 stroke=""none"" stroke-width=""1.5"" fill=""none"" />
    <circle cx=838.78 cy=587.6910030286849 r=15.159948334223309 stroke=""none"" stroke-width=""1.5"" fill=""none"" />
    <circle cx=701.088996971315 cy=450 r=15.159948334223309 stroke=""none"" stroke-width=""1.5"" fill=""none"" />
    <circle cx=838.78 cy=312.3089969713151 r=15.159948334223309 stroke=""none"" stroke-width=""1.5"" fill=""none"" />
    <polygon points = ""838.78,450 843.0444176666754,434.8400516657767 834.5155823333246,434.8400516657767"" stroke=""none"" stroke-width=""3"" fill = ""none"" />
    
    </svg>
    </div>
        ","","","","","","","","","","","","get_response","true","UHB3ugGTmB1Cnwlb","","","false","true","false","181.78","6","416.88200000000006","137.6910030286849","4.54","1","0","","",""
"html-keyboard-response","57","238870","0.0-57.0","","null","null","
    <div style="" display: block;  position: relative;"">
    
    <svg width=1440 height=900>
    <circle cx=657 cy=450 r=10.611963833956315 stroke=""black"" stroke-width=""1"" fill=""black"" />
    <circle cx=976.4710030286849 cy=450 r=15.159948334223309 stroke=""none"" stroke-width=""1.5"" fill=""none"" />
    <circle cx=838.78 cy=587.6910030286849 r=15.159948334223309 stroke=""none"" stroke-width=""1.5"" fill=""none"" />
    <circle cx=701.088996971315 cy=450 r=15.159948334223309 stroke=""none"" stroke-width=""1.5"" fill=""none"" />
    <circle cx=838.78 cy=312.3089969713151 r=15.159948334223309 stroke=""none"" stroke-width=""1.5"" fill=""none"" />
    <polygon points = ""838.78,450 843.0444176666754,434.8400516657767 834.5155823333246,434.8400516657767"" stroke=""none"" stroke-width=""3"" fill = ""none"" />
    
    </svg>
    </div>
        ","","","","","","","","","","","","","","","","","","","","","","","","","","","","",""
"html-keyboard-response","58","239027","0.0-58.0","","null","null","
    <div style="" display: block;  position: relative;"">
    <svg width=1440 height=900>
    
    <circle cx=657 cy=450 r=10.611963833956315 stroke=""black"" stroke-width=""1"" fill=""black"" />
    <circle cx=838.78 cy=450 r=15.159948334223309 stroke=""black"" stroke-width=""1.5"" fill=""none"" />
    <circle cx=963.9536391169862 cy=450 r=15.159948334223309 stroke=""black"" stroke-width=""1.5"" fill=""none"" />
    <circle cx=838.78 cy=575.1736391169862 r=15.159948334223309 stroke=""black"" stroke-width=""1.5"" fill=""none"" />
    <circle cx=713.6063608830137 cy=450 r=15.159948334223309 stroke=""black"" stroke-width=""1.5"" fill=""none"" />
    <circle cx=838.78 cy=324.82636088301376 r=15.159948334223309 stroke=""black"" stroke-width=""1.5"" fill=""none"" />
    <polygon points = ""838.78,450 843.0444176666754,434.8400516657767 834.5155823333246,434.8400516657767"" stroke=""white"" stroke-width=""3"" fill = ""white"" />
    
    </svg>
    </div>
        ","","","","","","","","","","","","stimulus","","","","","","","","","","","","","","","","",""
"html-keyboard-response","59","239293","0.0-59.0","","264","arrowup","
    <div style="" display: block;  position: relative;"">
    
    <svg width=1440 height=900>
    <circle cx=657 cy=450 r=10.611963833956315 stroke=""black"" stroke-width=""1"" fill=""black"" />
    <circle cx=963.9536391169862 cy=450 r=15.159948334223309 stroke=""none"" stroke-width=""1.5"" fill=""none"" />
    <circle cx=838.78 cy=575.1736391169862 r=15.159948334223309 stroke=""none"" stroke-width=""1.5"" fill=""none"" />
    <circle cx=713.6063608830137 cy=450 r=15.159948334223309 stroke=""none"" stroke-width=""1.5"" fill=""none"" />
    <circle cx=838.78 cy=324.82636088301376 r=15.159948334223309 stroke=""none"" stroke-width=""1.5"" fill=""none"" />
    <polygon points = ""838.78,450 843.0444176666754,434.8400516657767 834.5155823333246,434.8400516657767"" stroke=""none"" stroke-width=""3"" fill = ""none"" />
    
    </svg>
    </div>
        ","","","","","","","","","","","","get_response","true","UHB3ugGTmB1Cnwlb","","","false","true","false","181.78","6","416.88200000000006","125.17363911698625","4.12","1","0","","",""
"html-keyboard-response","60","239797","0.0-60.0","","null","null","
    <div style="" display: block;  position: relative;"">
    
    <svg width=1440 height=900>
    <circle cx=657 cy=450 r=10.611963833956315 stroke=""black"" stroke-width=""1"" fill=""black"" />
    <circle cx=963.9536391169862 cy=450 r=15.159948334223309 stroke=""none"" stroke-width=""1.5"" fill=""none"" />
    <circle cx=838.78 cy=575.1736391169862 r=15.159948334223309 stroke=""none"" stroke-width=""1.5"" fill=""none"" />
    <circle cx=713.6063608830137 cy=450 r=15.159948334223309 stroke=""none"" stroke-width=""1.5"" fill=""none"" />
    <circle cx=838.78 cy=324.82636088301376 r=15.159948334223309 stroke=""none"" stroke-width=""1.5"" fill=""none"" />
    <polygon points = ""838.78,450 843.0444176666754,434.8400516657767 834.5155823333246,434.8400516657767"" stroke=""none"" stroke-width=""3"" fill = ""none"" />
    
    </svg>
    </div>
        ","","","","","","","","","","","","","","","","","","","","","","","","","","","","",""
"html-keyboard-response","61","239953","0.0-61.0","","null","null","
    <div style="" display: block;  position: relative;"">
    <svg width=1440 height=900>
    
    <circle cx=657 cy=450 r=10.611963833956315 stroke=""black"" stroke-width=""1"" fill=""black"" />
    <circle cx=838.78 cy=450 r=15.159948334223309 stroke=""black"" stroke-width=""1.5"" fill=""none"" />
    <circle cx=952.5742173790784 cy=450 r=15.159948334223309 stroke=""black"" stroke-width=""1.5"" fill=""none"" />
    <circle cx=838.78 cy=563.7942173790784 r=15.159948334223309 stroke=""black"" stroke-width=""1.5"" fill=""none"" />
    <circle cx=724.9857826209216 cy=450 r=15.159948334223309 stroke=""black"" stroke-width=""1.5"" fill=""none"" />
    <circle cx=838.78 cy=336.2057826209216 r=15.159948334223309 stroke=""black"" stroke-width=""1.5"" fill=""none"" />
    <polygon points = ""838.78,450 843.0444176666754,434.8400516657767 834.5155823333246,434.8400516657767"" stroke=""white"" stroke-width=""3"" fill = ""white"" />
    
    </svg>
    </div>
        ","","","","","","","","","","","","stimulus","","","","","","","","","","","","","","","","",""
"html-keyboard-response","62","240243","0.0-62.0","","287.60000002384186","arrowup","
    <div style="" display: block;  position: relative;"">
    
    <svg width=1440 height=900>
    <circle cx=657 cy=450 r=10.611963833956315 stroke=""black"" stroke-width=""1"" fill=""black"" />
    <circle cx=952.5742173790784 cy=450 r=15.159948334223309 stroke=""none"" stroke-width=""1.5"" fill=""none"" />
    <circle cx=838.78 cy=563.7942173790784 r=15.159948334223309 stroke=""none"" stroke-width=""1.5"" fill=""none"" />
    <circle cx=724.9857826209216 cy=450 r=15.159948334223309 stroke=""none"" stroke-width=""1.5"" fill=""none"" />
    <circle cx=838.78 cy=336.2057826209216 r=15.159948334223309 stroke=""none"" stroke-width=""1.5"" fill=""none"" />
    <polygon points = ""838.78,450 843.0444176666754,434.8400516657767 834.5155823333246,434.8400516657767"" stroke=""none"" stroke-width=""3"" fill = ""none"" />
    
    </svg>
    </div>
        ","","","","","","","","","","","","get_response","true","UHB3ugGTmB1Cnwlb","","","false","true","false","181.78","6","416.88200000000006","113.7942173790784","3.75","1","0","","",""
"html-keyboard-response","63","240746","0.0-63.0","","null","null","
    <div style="" display: block;  position: relative;"">
    
    <svg width=1440 height=900>
    <circle cx=657 cy=450 r=10.611963833956315 stroke=""black"" stroke-width=""1"" fill=""black"" />
    <circle cx=952.5742173790784 cy=450 r=15.159948334223309 stroke=""none"" stroke-width=""1.5"" fill=""none"" />
    <circle cx=838.78 cy=563.7942173790784 r=15.159948334223309 stroke=""none"" stroke-width=""1.5"" fill=""none"" />
    <circle cx=724.9857826209216 cy=450 r=15.159948334223309 stroke=""none"" stroke-width=""1.5"" fill=""none"" />
    <circle cx=838.78 cy=336.2057826209216 r=15.159948334223309 stroke=""none"" stroke-width=""1.5"" fill=""none"" />
    <polygon points = ""838.78,450 843.0444176666754,434.8400516657767 834.5155823333246,434.8400516657767"" stroke=""none"" stroke-width=""3"" fill = ""none"" />
    
    </svg>
    </div>
        ","","","","","","","","","","","","","","","","","","","","","","","","","","","","",""
"html-keyboard-response","64","240902","0.0-64.0","","null","null","
    <div style="" display: block;  position: relative;"">
    <svg width=1440 height=900>
    
    <circle cx=657 cy=450 r=10.611963833956315 stroke=""black"" stroke-width=""1"" fill=""black"" />
    <circle cx=475.22 cy=450 r=15.159948334223309 stroke=""black"" stroke-width=""1.5"" fill=""none"" />
    <circle cx=578.6692885264349 cy=450 r=15.159948334223309 stroke=""black"" stroke-width=""1.5"" fill=""none"" />
    <circle cx=475.22 cy=553.4492885264349 r=15.159948334223309 stroke=""black"" stroke-width=""1.5"" fill=""none"" />
    <circle cx=371.77071147356514 cy=450 r=15.159948334223309 stroke=""black"" stroke-width=""1.5"" fill=""none"" />
    <circle cx=475.22 cy=346.5507114735651 r=15.159948334223309 stroke=""black"" stroke-width=""1.5"" fill=""none"" />
    <polygon points = ""475.22,450 479.48441766667537,465.1599483342233 470.9555823333247,465.1599483342233"" stroke=""white"" stroke-width=""3"" fill = ""white"" />
    
    </svg>
    </div>
        ","","","","","","","","","","","","stimulus","","","","","","","","","","","","","","","","",""
"html-keyboard-response","65","241159","0.0-65.0","","255.10000002384186","arrowdown","
    <div style="" display: block;  position: relative;"">
    
    <svg width=1440 height=900>
    <circle cx=657 cy=450 r=10.611963833956315 stroke=""black"" stroke-width=""1"" fill=""black"" />
    <circle cx=578.6692885264349 cy=450 r=15.159948334223309 stroke=""none"" stroke-width=""1.5"" fill=""none"" />
    <circle cx=475.22 cy=553.4492885264349 r=15.159948334223309 stroke=""none"" stroke-width=""1.5"" fill=""none"" />
    <circle cx=371.77071147356514 cy=450 r=15.159948334223309 stroke=""none"" stroke-width=""1.5"" fill=""none"" />
    <circle cx=475.22 cy=346.5507114735651 r=15.159948334223309 stroke=""none"" stroke-width=""1.5"" fill=""none"" />
    <polygon points = ""475.22,450 479.48441766667537,465.1599483342233 470.9555823333247,465.1599483342233"" stroke=""none"" stroke-width=""3"" fill = ""none"" />
    
    </svg>
    </div>
        ","","","","","","","","","","","","get_response","true","UHB3ugGTmB1Cnwlb","","","true","false","false","181.78","6","416.88200000000006","103.4492885264349","3.41","1","0","","",""
"html-keyboard-response","66","241661","0.0-66.0","","null","null","
    <div style="" display: block;  position: relative;"">
    
    <svg width=1440 height=900>
    <circle cx=657 cy=450 r=10.611963833956315 stroke=""black"" stroke-width=""1"" fill=""black"" />
    <circle cx=578.6692885264349 cy=450 r=15.159948334223309 stroke=""none"" stroke-width=""1.5"" fill=""none"" />
    <circle cx=475.22 cy=553.4492885264349 r=15.159948334223309 stroke=""none"" stroke-width=""1.5"" fill=""none"" />
    <circle cx=371.77071147356514 cy=450 r=15.159948334223309 stroke=""none"" stroke-width=""1.5"" fill=""none"" />
    <circle cx=475.22 cy=346.5507114735651 r=15.159948334223309 stroke=""none"" stroke-width=""1.5"" fill=""none"" />
    <polygon points = ""475.22,450 479.48441766667537,465.1599483342233 470.9555823333247,465.1599483342233"" stroke=""none"" stroke-width=""3"" fill = ""none"" />
    
    </svg>
    </div>
        ","","","","","","","","","","","","","","","","","","","","","","","","","","","","",""
"html-keyboard-response","67","241815","0.0-67.0","","null","null","
    <div style="" display: block;  position: relative;"">
    <svg width=1440 height=900>
    
    <circle cx=657 cy=450 r=10.611963833956315 stroke=""black"" stroke-width=""1"" fill=""black"" />
    <circle cx=838.78 cy=450 r=15.159948334223309 stroke=""black"" stroke-width=""1.5"" fill=""none"" />
    <circle cx=932.8248077513044 cy=450 r=15.159948334223309 stroke=""black"" stroke-width=""1.5"" fill=""none"" />
    <circle cx=838.78 cy=544.0448077513045 r=15.159948334223309 stroke=""black"" stroke-width=""1.5"" fill=""none"" />
    <circle cx=744.7351922486955 cy=450 r=15.159948334223309 stroke=""black"" stroke-width=""1.5"" fill=""none"" />
    <circle cx=838.78 cy=355.95519224869554 r=15.159948334223309 stroke=""black"" stroke-width=""1.5"" fill=""none"" />
    <polygon points = ""838.78,450 843.0444176666754,465.1599483342233 834.5155823333246,465.1599483342233"" stroke=""white"" stroke-width=""3"" fill = ""white"" />
    
    </svg>
    </div>
        ","","","","","","","","","","","","stimulus","","","","","","","","","","","","","","","","",""
"html-keyboard-response","68","242105","0.0-68.0","","288.7000000476837","arrowdown","
    <div style="" display: block;  position: relative;"">
    
    <svg width=1440 height=900>
    <circle cx=657 cy=450 r=10.611963833956315 stroke=""black"" stroke-width=""1"" fill=""black"" />
    <circle cx=932.8248077513044 cy=450 r=15.159948334223309 stroke=""none"" stroke-width=""1.5"" fill=""none"" />
    <circle cx=838.78 cy=544.0448077513045 r=15.159948334223309 stroke=""none"" stroke-width=""1.5"" fill=""none"" />
    <circle cx=744.7351922486955 cy=450 r=15.159948334223309 stroke=""none"" stroke-width=""1.5"" fill=""none"" />
    <circle cx=838.78 cy=355.95519224869554 r=15.159948334223309 stroke=""none"" stroke-width=""1.5"" fill=""none"" />
    <polygon points = ""838.78,450 843.0444176666754,465.1599483342233 834.5155823333246,465.1599483342233"" stroke=""none"" stroke-width=""3"" fill = ""none"" />
    
    </svg>
    </div>
        ","","","","","","","","","","","","get_response","true","UHB3ugGTmB1Cnwlb","","","false","false","false","181.78","6","416.88200000000006","94.04480775130445","3.1","1","0","","",""
"html-keyboard-response","69","242607","0.0-69.0","","null","null","
    <div style="" display: block;  position: relative;"">
    
    <svg width=1440 height=900>
    <circle cx=657 cy=450 r=10.611963833956315 stroke=""black"" stroke-width=""1"" fill=""black"" />
    <circle cx=932.8248077513044 cy=450 r=15.159948334223309 stroke=""none"" stroke-width=""1.5"" fill=""none"" />
    <circle cx=838.78 cy=544.0448077513045 r=15.159948334223309 stroke=""none"" stroke-width=""1.5"" fill=""none"" />
    <circle cx=744.7351922486955 cy=450 r=15.159948334223309 stroke=""none"" stroke-width=""1.5"" fill=""none"" />
    <circle cx=838.78 cy=355.95519224869554 r=15.159948334223309 stroke=""none"" stroke-width=""1.5"" fill=""none"" />
    <polygon points = ""838.78,450 843.0444176666754,465.1599483342233 834.5155823333246,465.1599483342233"" stroke=""none"" stroke-width=""3"" fill = ""none"" />
    
    </svg>
    </div>
        ","","","","","","","","","","","","","","","","","","","","","","","","","","","","",""
"html-keyboard-response","70","242762","0.0-70.0","","null","null","
    <div style="" display: block;  position: relative;"">
    <svg width=1440 height=900>
    
    <circle cx=657 cy=450 r=10.611963833956315 stroke=""black"" stroke-width=""1"" fill=""black"" />
    <circle cx=475.22 cy=450 r=15.159948334223309 stroke=""black"" stroke-width=""1.5"" fill=""none"" />
    <circle cx=560.7152797739132 cy=450 r=15.159948334223309 stroke=""black"" stroke-width=""1.5"" fill=""none"" />
    <circle cx=475.22 cy=535.4952797739131 r=15.159948334223309 stroke=""black"" stroke-width=""1.5"" fill=""none"" />
    <circle cx=389.7247202260869 cy=450 r=15.159948334223309 stroke=""black"" stroke-width=""1.5"" fill=""none"" />
    <circle cx=475.22 cy=364.5047202260869 r=15.159948334223309 stroke=""black"" stroke-width=""1.5"" fill=""none"" />
    <polygon points = ""475.22,450 479.48441766667537,465.1599483342233 470.9555823333247,465.1599483342233"" stroke=""white"" stroke-width=""3"" fill = ""white"" />
    
    </svg>
    </div>
        ","","","","","","","","","","","","stimulus","","","","","","","","","","","","","","","","",""
"html-keyboard-response","71","243045","0.0-71.0","","281.2999999523163","arrowdown","
    <div style="" display: block;  position: relative;"">
    
    <svg width=1440 height=900>
    <circle cx=657 cy=450 r=10.611963833956315 stroke=""black"" stroke-width=""1"" fill=""black"" />
    <circle cx=560.7152797739132 cy=450 r=15.159948334223309 stroke=""none"" stroke-width=""1.5"" fill=""none"" />
    <circle cx=475.22 cy=535.4952797739131 r=15.159948334223309 stroke=""none"" stroke-width=""1.5"" fill=""none"" />
    <circle cx=389.7247202260869 cy=450 r=15.159948334223309 stroke=""none"" stroke-width=""1.5"" fill=""none"" />
    <circle cx=475.22 cy=364.5047202260869 r=15.159948334223309 stroke=""none"" stroke-width=""1.5"" fill=""none"" />
    <polygon points = ""475.22,450 479.48441766667537,465.1599483342233 470.9555823333247,465.1599483342233"" stroke=""none"" stroke-width=""3"" fill = ""none"" />
    
    </svg>
    </div>
        ","","","","","","","","","","","","get_response","true","UHB3ugGTmB1Cnwlb","","","true","false","false","181.78","6","416.88200000000006","85.49527977391313","2.81","1","0","","",""
"html-keyboard-response","72","243546","0.0-72.0","","null","null","
    <div style="" display: block;  position: relative;"">
    
    <svg width=1440 height=900>
    <circle cx=657 cy=450 r=10.611963833956315 stroke=""black"" stroke-width=""1"" fill=""black"" />
    <circle cx=560.7152797739132 cy=450 r=15.159948334223309 stroke=""none"" stroke-width=""1.5"" fill=""none"" />
    <circle cx=475.22 cy=535.4952797739131 r=15.159948334223309 stroke=""none"" stroke-width=""1.5"" fill=""none"" />
    <circle cx=389.7247202260869 cy=450 r=15.159948334223309 stroke=""none"" stroke-width=""1.5"" fill=""none"" />
    <circle cx=475.22 cy=364.5047202260869 r=15.159948334223309 stroke=""none"" stroke-width=""1.5"" fill=""none"" />
    <polygon points = ""475.22,450 479.48441766667537,465.1599483342233 470.9555823333247,465.1599483342233"" stroke=""none"" stroke-width=""3"" fill = ""none"" />
    
    </svg>
    </div>
        ","","","","","","","","","","","","","","","","","","","","","","","","","","","","",""
"html-keyboard-response","73","243703","0.0-73.0","","null","null","
    <div style="" display: block;  position: relative;"">
    <svg width=1440 height=900>
    
    <circle cx=657 cy=450 r=10.611963833956315 stroke=""black"" stroke-width=""1"" fill=""black"" />
    <circle cx=475.22 cy=450 r=15.159948334223309 stroke=""black"" stroke-width=""1.5"" fill=""none"" />
    <circle cx=552.9429816126483 cy=450 r=15.159948334223309 stroke=""black"" stroke-width=""1.5"" fill=""none"" />
    <circle cx=475.22 cy=527.7229816126483 r=15.159948334223309 stroke=""black"" stroke-width=""1.5"" fill=""none"" />
    <circle cx=397.4970183873518 cy=450 r=15.159948334223309 stroke=""black"" stroke-width=""1.5"" fill=""none"" />
    <circle cx=475.22 cy=372.27701838735175 r=15.159948334223309 stroke=""black"" stroke-width=""1.5"" fill=""none"" />
    <polygon points = ""475.22,450 479.48441766667537,434.8400516657767 470.9555823333247,434.8400516657767"" stroke=""white"" stroke-width=""3"" fill = ""white"" />
    
    </svg>
    </div>
        ","","","","","","","","","","","","stimulus","","","","","","","","","","","","","","","","",""
"html-keyboard-response","74","243974","0.0-74.0","","268.59999990463257","arrowdown","
    <div style="" display: block;  position: relative;"">
    
    <svg width=1440 height=900>
    <circle cx=657 cy=450 r=10.611963833956315 stroke=""black"" stroke-width=""1"" fill=""black"" />
    <circle cx=552.9429816126483 cy=450 r=15.159948334223309 stroke=""none"" stroke-width=""1.5"" fill=""none"" />
    <circle cx=475.22 cy=527.7229816126483 r=15.159948334223309 stroke=""none"" stroke-width=""1.5"" fill=""none"" />
    <circle cx=397.4970183873518 cy=450 r=15.159948334223309 stroke=""none"" stroke-width=""1.5"" fill=""none"" />
    <circle cx=475.22 cy=372.27701838735175 r=15.159948334223309 stroke=""none"" stroke-width=""1.5"" fill=""none"" />
    <polygon points = ""475.22,450 479.48441766667537,434.8400516657767 470.9555823333247,434.8400516657767"" stroke=""none"" stroke-width=""3"" fill = ""none"" />
    
    </svg>
    </div>
        ","","","","","","","","","","","","get_response","false","UHB3ugGTmB1Cnwlb","","","true","true","false","181.78","6","416.88200000000006","77.72298161264828","2.56","1","0","","",""
"html-keyboard-response","75","244475","0.0-75.0","","null","null","
    <div style="" display: block;  position: relative;"">
    
    <svg width=1440 height=900>
    <circle cx=657 cy=450 r=10.611963833956315 stroke=""black"" stroke-width=""1"" fill=""black"" />
    <circle cx=552.9429816126483 cy=450 r=15.159948334223309 stroke=""none"" stroke-width=""1.5"" fill=""none"" />
    <circle cx=475.22 cy=527.7229816126483 r=15.159948334223309 stroke=""none"" stroke-width=""1.5"" fill=""none"" />
    <circle cx=397.4970183873518 cy=450 r=15.159948334223309 stroke=""none"" stroke-width=""1.5"" fill=""none"" />
    <circle cx=475.22 cy=372.27701838735175 r=15.159948334223309 stroke=""none"" stroke-width=""1.5"" fill=""none"" />
    <polygon points = ""475.22,450 479.48441766667537,434.8400516657767 470.9555823333247,434.8400516657767"" stroke=""none"" stroke-width=""3"" fill = ""none"" />
    
    </svg>
    </div>
        ","","","","","","","","","","","","","","","","","","","","","","","","","","","","",""
"html-keyboard-response","76","244630","0.0-76.0","","null","null","
    <div style="" display: block;  position: relative;"">
    <svg width=1440 height=900>
    
    <circle cx=657 cy=450 r=10.611963833956315 stroke=""black"" stroke-width=""1"" fill=""black"" />
    <circle cx=475.22 cy=450 r=15.159948334223309 stroke=""black"" stroke-width=""1.5"" fill=""none"" />
    <circle cx=576.2598760964428 cy=450 r=15.159948334223309 stroke=""black"" stroke-width=""1.5"" fill=""none"" />
    <circle cx=475.22 cy=551.0398760964428 r=15.159948334223309 stroke=""black"" stroke-width=""1.5"" fill=""none"" />
    <circle cx=374.1801239035573 cy=450 r=15.159948334223309 stroke=""black"" stroke-width=""1.5"" fill=""none"" />
    <circle cx=475.22 cy=348.96012390355725 r=15.159948334223309 stroke=""black"" stroke-width=""1.5"" fill=""none"" />
    <polygon points = ""475.22,450 479.48441766667537,434.8400516657767 470.9555823333247,434.8400516657767"" stroke=""white"" stroke-width=""3"" fill = ""white"" />
    
    </svg>
    </div>
        ","","","","","","","","","","","","stimulus","","","","","","","","","","","","","","","","",""
"html-keyboard-response","77","244988","0.0-77.0","","356.60000002384186","arrowdown","
    <div style="" display: block;  position: relative;"">
    
    <svg width=1440 height=900>
    <circle cx=657 cy=450 r=10.611963833956315 stroke=""black"" stroke-width=""1"" fill=""black"" />
    <circle cx=576.2598760964428 cy=450 r=15.159948334223309 stroke=""none"" stroke-width=""1.5"" fill=""none"" />
    <circle cx=475.22 cy=551.0398760964428 r=15.159948334223309 stroke=""none"" stroke-width=""1.5"" fill=""none"" />
    <circle cx=374.1801239035573 cy=450 r=15.159948334223309 stroke=""none"" stroke-width=""1.5"" fill=""none"" />
    <circle cx=475.22 cy=348.96012390355725 r=15.159948334223309 stroke=""none"" stroke-width=""1.5"" fill=""none"" />
    <polygon points = ""475.22,450 479.48441766667537,434.8400516657767 470.9555823333247,434.8400516657767"" stroke=""none"" stroke-width=""3"" fill = ""none"" />
    
    </svg>
    </div>
        ","","","","","","","","","","","","get_response","false","UHB3ugGTmB1Cnwlb","","","true","true","false","181.78","6","416.88200000000006","101.03987609644277","3.33","1","0","","",""
"html-keyboard-response","78","245492","0.0-78.0","","null","null","
    <div style="" display: block;  position: relative;"">
    
    <svg width=1440 height=900>
    <circle cx=657 cy=450 r=10.611963833956315 stroke=""black"" stroke-width=""1"" fill=""black"" />
    <circle cx=576.2598760964428 cy=450 r=15.159948334223309 stroke=""none"" stroke-width=""1.5"" fill=""none"" />
    <circle cx=475.22 cy=551.0398760964428 r=15.159948334223309 stroke=""none"" stroke-width=""1.5"" fill=""none"" />
    <circle cx=374.1801239035573 cy=450 r=15.159948334223309 stroke=""none"" stroke-width=""1.5"" fill=""none"" />
    <circle cx=475.22 cy=348.96012390355725 r=15.159948334223309 stroke=""none"" stroke-width=""1.5"" fill=""none"" />
    <polygon points = ""475.22,450 479.48441766667537,434.8400516657767 470.9555823333247,434.8400516657767"" stroke=""none"" stroke-width=""3"" fill = ""none"" />
    
    </svg>
    </div>
        ","","","","","","","","","","","","","","","","","","","","","","","","","","","","",""
"html-keyboard-response","79","245646","0.0-79.0","","null","null","
    <div style="" display: block;  position: relative;"">
    <svg width=1440 height=900>
    
    <circle cx=657 cy=450 r=10.611963833956315 stroke=""black"" stroke-width=""1"" fill=""black"" />
    <circle cx=475.22 cy=450 r=15.159948334223309 stroke=""black"" stroke-width=""1.5"" fill=""none"" />
    <circle cx=606.5718389253757 cy=450 r=15.159948334223309 stroke=""black"" stroke-width=""1.5"" fill=""none"" />
    <circle cx=475.22 cy=581.3518389253757 r=15.159948334223309 stroke=""black"" stroke-width=""1.5"" fill=""none"" />
    <circle cx=343.8681610746244 cy=450 r=15.159948334223309 stroke=""black"" stroke-width=""1.5"" fill=""none"" />
    <circle cx=475.22 cy=318.6481610746244 r=15.159948334223309 stroke=""black"" stroke-width=""1.5"" fill=""none"" />
    <polygon points = ""475.22,450 479.48441766667537,434.8400516657767 470.9555823333247,434.8400516657767"" stroke=""white"" stroke-width=""3"" fill = ""white"" />
    
    </svg>
    </div>
        ","","","","","","","","","","","","stimulus","","","","","","","","","","","","","","","","",""
"html-keyboard-response","80","245995","0.0-80.0","","346.89999997615814","arrowdown","
    <div style="" display: block;  position: relative;"">
    
    <svg width=1440 height=900>
    <circle cx=657 cy=450 r=10.611963833956315 stroke=""black"" stroke-width=""1"" fill=""black"" />
    <circle cx=606.5718389253757 cy=450 r=15.159948334223309 stroke=""none"" stroke-width=""1.5"" fill=""none"" />
    <circle cx=475.22 cy=581.3518389253757 r=15.159948334223309 stroke=""none"" stroke-width=""1.5"" fill=""none"" />
    <circle cx=343.8681610746244 cy=450 r=15.159948334223309 stroke=""none"" stroke-width=""1.5"" fill=""none"" />
    <circle cx=475.22 cy=318.6481610746244 r=15.159948334223309 stroke=""none"" stroke-width=""1.5"" fill=""none"" />
    <polygon points = ""475.22,450 479.48441766667537,434.8400516657767 470.9555823333247,434.8400516657767"" stroke=""none"" stroke-width=""3"" fill = ""none"" />
    
    </svg>
    </div>
        ","","","","","","","","","","","","get_response","false","UHB3ugGTmB1Cnwlb","","","true","true","false","181.78","6","416.88200000000006","131.3518389253756","4.33","1","0","","",""
"html-keyboard-response","81","246168","0.0-81.0","","170.80000007152557","arrowup","
    <div style="" display: block;  position: relative;"">
    
    <svg width=1440 height=900>
    <circle cx=657 cy=450 r=10.611963833956315 stroke=""black"" stroke-width=""1"" fill=""black"" />
    <circle cx=606.5718389253757 cy=450 r=15.159948334223309 stroke=""none"" stroke-width=""1.5"" fill=""none"" />
    <circle cx=475.22 cy=581.3518389253757 r=15.159948334223309 stroke=""none"" stroke-width=""1.5"" fill=""none"" />
    <circle cx=343.8681610746244 cy=450 r=15.159948334223309 stroke=""none"" stroke-width=""1.5"" fill=""none"" />
    <circle cx=475.22 cy=318.6481610746244 r=15.159948334223309 stroke=""none"" stroke-width=""1.5"" fill=""none"" />
    <polygon points = ""475.22,450 479.48441766667537,434.8400516657767 470.9555823333247,434.8400516657767"" stroke=""none"" stroke-width=""3"" fill = ""none"" />
    
    </svg>
    </div>
        ","","","","","","","","","","","","","","","","","","","","","","","","","","","","",""
"html-keyboard-response","82","246320","0.0-82.0","","null","null","
    <div style="" display: block;  position: relative;"">
    <svg width=1440 height=900>
    
    <circle cx=657 cy=450 r=10.611963833956315 stroke=""black"" stroke-width=""1"" fill=""black"" />
    <circle cx=838.78 cy=450 r=15.159948334223309 stroke=""black"" stroke-width=""1.5"" fill=""none"" />
    <circle cx=990.2401033315534 cy=450 r=15.159948334223309 stroke=""black"" stroke-width=""1.5"" fill=""none"" />
    <circle cx=838.78 cy=601.4601033315535 r=15.159948334223309 stroke=""black"" stroke-width=""1.5"" fill=""none"" />
    <circle cx=687.3198966684465 cy=450 r=15.159948334223309 stroke=""black"" stroke-width=""1.5"" fill=""none"" />
    <circle cx=838.78 cy=298.5398966684466 r=15.159948334223309 stroke=""black"" stroke-width=""1.5"" fill=""none"" />
    <polygon points = ""838.78,450 843.0444176666754,465.1599483342233 834.5155823333246,465.1599483342233"" stroke=""white"" stroke-width=""3"" fill = ""white"" />
    
    </svg>
    </div>
        ","","","","","","","","","","","","stimulus","","","","","","","","","","","","","","","","",""
"html-keyboard-response","83","254321","0.0-83.0","","7999.700000047684","arrowup","
    <div style="" display: block;  position: relative;"">
    
    <svg width=1440 height=900>
    <circle cx=657 cy=450 r=10.611963833956315 stroke=""black"" stroke-width=""1"" fill=""black"" />
    <circle cx=990.2401033315534 cy=450 r=15.159948334223309 stroke=""none"" stroke-width=""1.5"" fill=""none"" />
    <circle cx=838.78 cy=601.4601033315535 r=15.159948334223309 stroke=""none"" stroke-width=""1.5"" fill=""none"" />
    <circle cx=687.3198966684465 cy=450 r=15.159948334223309 stroke=""none"" stroke-width=""1.5"" fill=""none"" />
    <circle cx=838.78 cy=298.5398966684466 r=15.159948334223309 stroke=""none"" stroke-width=""1.5"" fill=""none"" />
    <polygon points = ""838.78,450 843.0444176666754,465.1599483342233 834.5155823333246,465.1599483342233"" stroke=""none"" stroke-width=""3"" fill = ""none"" />
    
    </svg>
    </div>
        ","","","","","","","","","","","","get_response","false","UHB3ugGTmB1Cnwlb","","","false","false","false","181.78","6","416.88200000000006","151.4601033315534","4.99","1","0","","",""
"html-keyboard-response","84","254826","0.0-84.0","","null","null","
    <div style="" display: block;  position: relative;"">
    
    <svg width=1440 height=900>
    <circle cx=657 cy=450 r=10.611963833956315 stroke=""black"" stroke-width=""1"" fill=""black"" />
    <circle cx=990.2401033315534 cy=450 r=15.159948334223309 stroke=""none"" stroke-width=""1.5"" fill=""none"" />
    <circle cx=838.78 cy=601.4601033315535 r=15.159948334223309 stroke=""none"" stroke-width=""1.5"" fill=""none"" />
    <circle cx=687.3198966684465 cy=450 r=15.159948334223309 stroke=""none"" stroke-width=""1.5"" fill=""none"" />
    <circle cx=838.78 cy=298.5398966684466 r=15.159948334223309 stroke=""none"" stroke-width=""1.5"" fill=""none"" />
    <polygon points = ""838.78,450 843.0444176666754,465.1599483342233 834.5155823333246,465.1599483342233"" stroke=""none"" stroke-width=""3"" fill = ""none"" />
    
    </svg>
    </div>
        ","","","","","","","","","","","","","","","","","","","","","","","","","","","","",""
"html-keyboard-response","85","254906","0.0-85.0","","79","arrowdown","
    <div style="" display: block;  position: relative;"">
    <svg width=1440 height=900>
    
    <circle cx=657 cy=450 r=10.611963833956315 stroke=""black"" stroke-width=""1"" fill=""black"" />
    <circle cx=838.78 cy=450 r=15.159948334223309 stroke=""black"" stroke-width=""1.5"" fill=""none"" />
    <circle cx=990.2401033315534 cy=450 r=15.159948334223309 stroke=""black"" stroke-width=""1.5"" fill=""none"" />
    <circle cx=838.78 cy=601.4601033315535 r=15.159948334223309 stroke=""black"" stroke-width=""1.5"" fill=""none"" />
    <circle cx=687.3198966684465 cy=450 r=15.159948334223309 stroke=""black"" stroke-width=""1.5"" fill=""none"" />
    <circle cx=838.78 cy=298.5398966684466 r=15.159948334223309 stroke=""black"" stroke-width=""1.5"" fill=""none"" />
    <polygon points = ""838.78,450 843.0444176666754,434.8400516657767 834.5155823333246,434.8400516657767"" stroke=""white"" stroke-width=""3"" fill = ""white"" />
    
    </svg>
    </div>
        ","","","","","","","","","","","","stimulus","","","","","","","","","","","","","","","","",""
"html-keyboard-response","86","256809","0.0-86.0","","1901.2999999523163","arrowup","
    <div style="" display: block;  position: relative;"">
    
    <svg width=1440 height=900>
    <circle cx=657 cy=450 r=10.611963833956315 stroke=""black"" stroke-width=""1"" fill=""black"" />
    <circle cx=990.2401033315534 cy=450 r=15.159948334223309 stroke=""none"" stroke-width=""1.5"" fill=""none"" />
    <circle cx=838.78 cy=601.4601033315535 r=15.159948334223309 stroke=""none"" stroke-width=""1.5"" fill=""none"" />
    <circle cx=687.3198966684465 cy=450 r=15.159948334223309 stroke=""none"" stroke-width=""1.5"" fill=""none"" />
    <circle cx=838.78 cy=298.5398966684466 r=15.159948334223309 stroke=""none"" stroke-width=""1.5"" fill=""none"" />
    <polygon points = ""838.78,450 843.0444176666754,434.8400516657767 834.5155823333246,434.8400516657767"" stroke=""none"" stroke-width=""3"" fill = ""none"" />
    
    </svg>
    </div>
        ","","","","","","","","","","","","get_response","true","UHB3ugGTmB1Cnwlb","","","false","true","false","181.78","6","416.88200000000006","151.4601033315534","4.99","1","0","","",""
"html-keyboard-response","87","257313","0.0-87.0","","null","null","
    <div style="" display: block;  position: relative;"">
    
    <svg width=1440 height=900>
    <circle cx=657 cy=450 r=10.611963833956315 stroke=""black"" stroke-width=""1"" fill=""black"" />
    <circle cx=990.2401033315534 cy=450 r=15.159948334223309 stroke=""none"" stroke-width=""1.5"" fill=""none"" />
    <circle cx=838.78 cy=601.4601033315535 r=15.159948334223309 stroke=""none"" stroke-width=""1.5"" fill=""none"" />
    <circle cx=687.3198966684465 cy=450 r=15.159948334223309 stroke=""none"" stroke-width=""1.5"" fill=""none"" />
    <circle cx=838.78 cy=298.5398966684466 r=15.159948334223309 stroke=""none"" stroke-width=""1.5"" fill=""none"" />
    <polygon points = ""838.78,450 843.0444176666754,434.8400516657767 834.5155823333246,434.8400516657767"" stroke=""none"" stroke-width=""3"" fill = ""none"" />
    
    </svg>
    </div>
        ","","","","","","","","","","","","","","","","","","","","","","","","","","","","",""
"html-keyboard-response","88","257468","0.0-88.0","","null","null","
    <div style="" display: block;  position: relative;"">
    <svg width=1440 height=900>
    
    <circle cx=657 cy=450 r=10.611963833956315 stroke=""black"" stroke-width=""1"" fill=""black"" />
    <circle cx=475.22 cy=450 r=15.159948334223309 stroke=""black"" stroke-width=""1.5"" fill=""none"" />
    <circle cx=626.6801033315535 cy=450 r=15.159948334223309 stroke=""black"" stroke-width=""1.5"" fill=""none"" />
    <circle cx=475.22 cy=601.4601033315535 r=15.159948334223309 stroke=""black"" stroke-width=""1.5"" fill=""none"" />
    <circle cx=323.75989666844663 cy=450 r=15.159948334223309 stroke=""black"" stroke-width=""1.5"" fill=""none"" />
    <circle cx=475.22 cy=298.5398966684466 r=15.159948334223309 stroke=""black"" stroke-width=""1.5"" fill=""none"" />
    <polygon points = ""475.22,450 479.48441766667537,434.8400516657767 470.9555823333247,434.8400516657767"" stroke=""white"" stroke-width=""3"" fill = ""white"" />
    
    </svg>
    </div>
        ","","","","","","","","","","","","stimulus","","","","","","","","","","","","","","","","",""
"html-keyboard-response","89","257503","0.0-89.0","","33.300000071525574","arrowdown","
    <div style="" display: block;  position: relative;"">
    
    <svg width=1440 height=900>
    <circle cx=657 cy=450 r=10.611963833956315 stroke=""black"" stroke-width=""1"" fill=""black"" />
    <circle cx=626.6801033315535 cy=450 r=15.159948334223309 stroke=""none"" stroke-width=""1.5"" fill=""none"" />
    <circle cx=475.22 cy=601.4601033315535 r=15.159948334223309 stroke=""none"" stroke-width=""1.5"" fill=""none"" />
    <circle cx=323.75989666844663 cy=450 r=15.159948334223309 stroke=""none"" stroke-width=""1.5"" fill=""none"" />
    <circle cx=475.22 cy=298.5398966684466 r=15.159948334223309 stroke=""none"" stroke-width=""1.5"" fill=""none"" />
    <polygon points = ""475.22,450 479.48441766667537,434.8400516657767 470.9555823333247,434.8400516657767"" stroke=""none"" stroke-width=""3"" fill = ""none"" />
    
    </svg>
    </div>
        ","","","","","","","","","","","","get_response","false","UHB3ugGTmB1Cnwlb","","","true","true","false","181.78","6","416.88200000000006","151.4601033315534","4.99","1","0","","",""
"html-keyboard-response","90","258004","0.0-90.0","","null","null","
    <div style="" display: block;  position: relative;"">
    
    <svg width=1440 height=900>
    <circle cx=657 cy=450 r=10.611963833956315 stroke=""black"" stroke-width=""1"" fill=""black"" />
    <circle cx=626.6801033315535 cy=450 r=15.159948334223309 stroke=""none"" stroke-width=""1.5"" fill=""none"" />
    <circle cx=475.22 cy=601.4601033315535 r=15.159948334223309 stroke=""none"" stroke-width=""1.5"" fill=""none"" />
    <circle cx=323.75989666844663 cy=450 r=15.159948334223309 stroke=""none"" stroke-width=""1.5"" fill=""none"" />
    <circle cx=475.22 cy=298.5398966684466 r=15.159948334223309 stroke=""none"" stroke-width=""1.5"" fill=""none"" />
    <polygon points = ""475.22,450 479.48441766667537,434.8400516657767 470.9555823333247,434.8400516657767"" stroke=""none"" stroke-width=""3"" fill = ""none"" />
    
    </svg>
    </div>
        ","","","","","","","","","","","","","","","","","","","","","","","","","","","","",""
"html-keyboard-response","91","258161","0.0-91.0","","null","null","
    <div style="" display: block;  position: relative;"">
    <svg width=1440 height=900>
    
    <circle cx=657 cy=450 r=10.611963833956315 stroke=""black"" stroke-width=""1"" fill=""black"" />
    <circle cx=475.22 cy=450 r=15.159948334223309 stroke=""black"" stroke-width=""1.5"" fill=""none"" />
    <circle cx=626.6801033315535 cy=450 r=15.159948334223309 stroke=""black"" stroke-width=""1.5"" fill=""none"" />
    <circle cx=475.22 cy=601.4601033315535 r=15.159948334223309 stroke=""black"" stroke-width=""1.5"" fill=""none"" />
    <circle cx=323.75989666844663 cy=450 r=15.159948334223309 stroke=""black"" stroke-width=""1.5"" fill=""none"" />
    <circle cx=475.22 cy=298.5398966684466 r=15.159948334223309 stroke=""black"" stroke-width=""1.5"" fill=""none"" />
    <polygon points = ""475.22,450 479.48441766667537,465.1599483342233 470.9555823333247,465.1599483342233"" stroke=""white"" stroke-width=""3"" fill = ""white"" />
    
    </svg>
    </div>
        ","","","","","","","","","","","","stimulus","","","","","","","","","","","","","","","","",""
"html-keyboard-response","92","258556","0.0-92.0","","392.89999997615814","arrowup","
    <div style="" display: block;  position: relative;"">
    
    <svg width=1440 height=900>
    <circle cx=657 cy=450 r=10.611963833956315 stroke=""black"" stroke-width=""1"" fill=""black"" />
    <circle cx=626.6801033315535 cy=450 r=15.159948334223309 stroke=""none"" stroke-width=""1.5"" fill=""none"" />
    <circle cx=475.22 cy=601.4601033315535 r=15.159948334223309 stroke=""none"" stroke-width=""1.5"" fill=""none"" />
    <circle cx=323.75989666844663 cy=450 r=15.159948334223309 stroke=""none"" stroke-width=""1.5"" fill=""none"" />
    <circle cx=475.22 cy=298.5398966684466 r=15.159948334223309 stroke=""none"" stroke-width=""1.5"" fill=""none"" />
    <polygon points = ""475.22,450 479.48441766667537,465.1599483342233 470.9555823333247,465.1599483342233"" stroke=""none"" stroke-width=""3"" fill = ""none"" />
    
    </svg>
    </div>
        ","","","","","","","","","","","","get_response","false","UHB3ugGTmB1Cnwlb","","","true","false","false","181.78","6","416.88200000000006","151.4601033315534","4.99","1","0","","",""
"html-keyboard-response","93","259059","0.0-93.0","","null","null","
    <div style="" display: block;  position: relative;"">
    
    <svg width=1440 height=900>
    <circle cx=657 cy=450 r=10.611963833956315 stroke=""black"" stroke-width=""1"" fill=""black"" />
    <circle cx=626.6801033315535 cy=450 r=15.159948334223309 stroke=""none"" stroke-width=""1.5"" fill=""none"" />
    <circle cx=475.22 cy=601.4601033315535 r=15.159948334223309 stroke=""none"" stroke-width=""1.5"" fill=""none"" />
    <circle cx=323.75989666844663 cy=450 r=15.159948334223309 stroke=""none"" stroke-width=""1.5"" fill=""none"" />
    <circle cx=475.22 cy=298.5398966684466 r=15.159948334223309 stroke=""none"" stroke-width=""1.5"" fill=""none"" />
    <polygon points = ""475.22,450 479.48441766667537,465.1599483342233 470.9555823333247,465.1599483342233"" stroke=""none"" stroke-width=""3"" fill = ""none"" />
    
    </svg>
    </div>
        ","","","","","","","","","","","","","","","","","","","","","","","","","","","","",""
"html-keyboard-response","94","259212","0.0-94.0","","null","null","
    <div style="" display: block;  position: relative;"">
    <svg width=1440 height=900>
    
    <circle cx=657 cy=450 r=10.611963833956315 stroke=""black"" stroke-width=""1"" fill=""black"" />
    <circle cx=838.78 cy=450 r=15.159948334223309 stroke=""black"" stroke-width=""1.5"" fill=""none"" />
    <circle cx=990.2401033315534 cy=450 r=15.159948334223309 stroke=""black"" stroke-width=""1.5"" fill=""none"" />
    <circle cx=838.78 cy=601.4601033315535 r=15.159948334223309 stroke=""black"" stroke-width=""1.5"" fill=""none"" />
    <circle cx=687.3198966684465 cy=450 r=15.159948334223309 stroke=""black"" stroke-width=""1.5"" fill=""none"" />
    <circle cx=838.78 cy=298.5398966684466 r=15.159948334223309 stroke=""black"" stroke-width=""1.5"" fill=""none"" />
    <polygon points = ""838.78,450 843.0444176666754,434.8400516657767 834.5155823333246,434.8400516657767"" stroke=""white"" stroke-width=""3"" fill = ""white"" />
    
    </svg>
    </div>
        ","","","","","","","","","","","","stimulus","","","","","","","","","","","","","","","","",""
"html-keyboard-response","95","259590","0.0-95.0","","376","arrowup","
    <div style="" display: block;  position: relative;"">
    
    <svg width=1440 height=900>
    <circle cx=657 cy=450 r=10.611963833956315 stroke=""black"" stroke-width=""1"" fill=""black"" />
    <circle cx=990.2401033315534 cy=450 r=15.159948334223309 stroke=""none"" stroke-width=""1.5"" fill=""none"" />
    <circle cx=838.78 cy=601.4601033315535 r=15.159948334223309 stroke=""none"" stroke-width=""1.5"" fill=""none"" />
    <circle cx=687.3198966684465 cy=450 r=15.159948334223309 stroke=""none"" stroke-width=""1.5"" fill=""none"" />
    <circle cx=838.78 cy=298.5398966684466 r=15.159948334223309 stroke=""none"" stroke-width=""1.5"" fill=""none"" />
    <polygon points = ""838.78,450 843.0444176666754,434.8400516657767 834.5155823333246,434.8400516657767"" stroke=""none"" stroke-width=""3"" fill = ""none"" />
    
    </svg>
    </div>
        ","","","","","","","","","","","","get_response","true","UHB3ugGTmB1Cnwlb","","","false","true","false","181.78","6","416.88200000000006","151.4601033315534","4.99","1","0","","",""
"html-keyboard-response","96","260095","0.0-96.0","","null","null","
    <div style="" display: block;  position: relative;"">
    
    <svg width=1440 height=900>
    <circle cx=657 cy=450 r=10.611963833956315 stroke=""black"" stroke-width=""1"" fill=""black"" />
    <circle cx=990.2401033315534 cy=450 r=15.159948334223309 stroke=""none"" stroke-width=""1.5"" fill=""none"" />
