"trial_type","trial_index","time_elapsed","internal_node_id","success","rt","response","stimulus","start_time","start_time_unix","item_width_mm","item_height_mm","item_width_px","px2mm","view_dist_mm","item_width_deg","px2deg","win_width_deg","win_height_deg","trialType","correct","participantID","criticalSpacing","criticalSpacing_deg","isLeft","isUp","isEccen4","eccentricity","eccentricity_deg","viewingDistanceMean","critical_spacing","critical_spacing_deg","crowding_session","correctRate","viewDistance_1","viewDistance_2","viewDistance_3"
"pavlovia","0","2","0.0-0.0","","","","","","","","","","","","","","","","","","","","","","","","","","","","","","","","",""
"fullscreen","1","5927","0.0-1.0","true","","","","","","","","","","","","","","","","","","","","","","","","","","","","","","","",""
"survey-text","2","11734","0.0-2.0","","5802.0999999940395","{""Q0"":""pilotA""}","","","","","","","","","","","","","","","","","","","","","","","","","","","","","",""
"html-keyboard-response","3","14183","0.0-3.0","","2446.7999999821186","arrowdown","<h1>Welcome to the Visual Crowding Experiment!</h1>
       <p>This test will take <b>10-12</b> minutes to complete.</p>
       <p>Press any key to start the experiment!</p>","11/16/2021, 9:13:54 PM","1637126034210","","","","","","","","","","","","","","","","","","","","","","","","","","",""
"html-keyboard-response","4","15702","0.0-4.0","","1517.0999999940395","arrowdown","<div> 
<p> Before you begin this study, let&#39;s quickly test how far away you are sitting. You might know that vision tests at a doctor&#39;s practice often involve chinrests, the doctor basically asks you to sit away from a screen in a specific distance. We do this here with a <b>virtual chinrest</b>. </p>
<p> Please press the <b>down</b> arrow to continue.
</p>
</div>","","","","","","","","","","","","","","","","","","","","","","","","","","","","",""
"virtual-chinrest","5","50700","0.0-5.0","","34997.09999999404","","","","","85.6","53.98","290","3.39","552.61","8.857507319230992","32.74058824319185","58.64280707904657","32.986578981963696","","","","","","","","","","","","","","","","","",""
"html-keyboard-response","6","52871","0.0-6.0","","2167.0999999940395","arrowdown","
	<h2 class=""bolded-blue"">Now, you will take a peripheral vision test!</h2>
<p> 
	<b>
		<font size=""140%"">1. </font>
	</b>
	<em><b>Please use both eyes for the following task.</b></em> First, you will see a screen (like the one in the image below) showing a <b>black dot</b> in the middle of the screen, with a group of circles displayed on either the <span class=""bolded-blue"">left</span> or <span class=""bolded-blue"">right</span> of the black dot for 150 ms. <span class=""bolded-blue"">Please make sure to focus on the black dot all the time!</span>

	<div>
		<img src=""example.png"" alt=""example"" style=""border: 2px solid black"" width=""600""/> 
	</div>
	
	<b>
		<font size=""140%"">2. </font>
	</b>
	Your task is to identify whether the opening of the <b class=""bolded-blue"">center circle</b> is upward by pressing UP or downward by pressing DOWN on your keyboard. The opening of the circle will only be upward or downward, not towards left or right.

	<div>
		<img src=""arrow_keys+.png"" alt=""arrows"" style=""border: 2px solid black"" width=""600""/>
	</div>
	<br>

<p>Please press the <b>down</b> arrow key to start the <span class=""bolded-blue"">practice task</span> (this first practice task will not count toward your final results).</p>
</p>
","","","","","","","","","","","","","","","","","","","","","","","","","","","","",""
"html-keyboard-response","7","53376","0.0-7.0","","null","null","
    <div style="" display: block;  position: relative;"">
    
    <svg width=1920 height=1080>
    <circle cx=897 cy=540 r=11.251956262073252 stroke=""black"" stroke-width=""1"" fill=""black"" />
    <circle cx=NaN cy=540 r=16.074223231533217 stroke=""none"" stroke-width=""1.5"" fill=""none"" />
    <circle cx=704.25 cy=NaN r=16.074223231533217 stroke=""none"" stroke-width=""1.5"" fill=""none"" />
    <circle cx=NaN cy=540 r=16.074223231533217 stroke=""none"" stroke-width=""1.5"" fill=""none"" />
    <circle cx=704.25 cy=NaN r=16.074223231533217 stroke=""none"" stroke-width=""1.5"" fill=""none"" />
    <polygon points = ""704.25,540 708.7715986239141,556.0742232315332 699.7284013760859,556.0742232315332"" stroke=""none"" stroke-width=""3"" fill = ""none"" />
    
    </svg>
    </div>
        ","","","","","","","","","","","","","","","","","","","","","","","","","","","","",""
"html-keyboard-response","8","53535","0.0-8.0","","null","null","
    <div style="" display: block;  position: relative;"">
    <svg width=1920 height=1080>
    
    <circle cx=897 cy=540 r=11.251956262073252 stroke=""black"" stroke-width=""1"" fill=""black"" />
    <circle cx=704.25 cy=540 r=16.074223231533217 stroke=""black"" stroke-width=""1.5"" fill=""none"" />
    <circle cx=829.5375 cy=540 r=16.074223231533217 stroke=""black"" stroke-width=""1.5"" fill=""none"" />
    <circle cx=704.25 cy=665.2875 r=16.074223231533217 stroke=""black"" stroke-width=""1.5"" fill=""none"" />
    <circle cx=578.9625 cy=540 r=16.074223231533217 stroke=""black"" stroke-width=""1.5"" fill=""none"" />
    <circle cx=704.25 cy=414.7125 r=16.074223231533217 stroke=""black"" stroke-width=""1.5"" fill=""none"" />
    <polygon points = ""704.25,540 708.7715986239141,556.0742232315332 699.7284013760859,556.0742232315332"" stroke=""white"" stroke-width=""3"" fill = ""white"" />
    
    </svg>
    </div>
        ","","","","","","","","","","","","stimulus","","","","","","","","","","","","","","","","",""
"html-keyboard-response","9","54119","0.0-9.0","","580.2999999821186","arrowdown","
    <div style="" display: block;  position: relative;"">
    
    <svg width=1920 height=1080>
    <circle cx=897 cy=540 r=11.251956262073252 stroke=""black"" stroke-width=""1"" fill=""black"" />
    <circle cx=829.5375 cy=540 r=16.074223231533217 stroke=""none"" stroke-width=""1.5"" fill=""none"" />
    <circle cx=704.25 cy=665.2875 r=16.074223231533217 stroke=""none"" stroke-width=""1.5"" fill=""none"" />
    <circle cx=578.9625 cy=540 r=16.074223231533217 stroke=""none"" stroke-width=""1.5"" fill=""none"" />
    <circle cx=704.25 cy=414.7125 r=16.074223231533217 stroke=""none"" stroke-width=""1.5"" fill=""none"" />
    <polygon points = ""704.25,540 708.7715986239141,556.0742232315332 699.7284013760859,556.0742232315332"" stroke=""none"" stroke-width=""3"" fill = ""none"" />
    
    </svg>
    </div>
        ","","","","","","","","","","","","practice_get_response","true","VmiyXDDM7SJW0dzN","125.28750000000001","3.89","true","false","false","192.75","6","545.032","","","","","","",""
"html-keyboard-response","10","54624","0.0-10.0","","null","null","
    <div style="" display: block;  position: relative;"">
    
    <svg width=1920 height=1080>
    <circle cx=897 cy=540 r=11.251956262073252 stroke=""black"" stroke-width=""1"" fill=""black"" />
    <circle cx=829.5375 cy=540 r=16.074223231533217 stroke=""none"" stroke-width=""1.5"" fill=""none"" />
    <circle cx=704.25 cy=665.2875 r=16.074223231533217 stroke=""none"" stroke-width=""1.5"" fill=""none"" />
    <circle cx=578.9625 cy=540 r=16.074223231533217 stroke=""none"" stroke-width=""1.5"" fill=""none"" />
    <circle cx=704.25 cy=414.7125 r=16.074223231533217 stroke=""none"" stroke-width=""1.5"" fill=""none"" />
    <polygon points = ""704.25,540 708.7715986239141,556.0742232315332 699.7284013760859,556.0742232315332"" stroke=""none"" stroke-width=""3"" fill = ""none"" />
    
    </svg>
    </div>
        ","","","","","","","","","","","","","","","","","","","","","","","","","","","","",""
"html-keyboard-response","11","54783","0.0-11.0","","null","null","
    <div style="" display: block;  position: relative;"">
    <svg width=1920 height=1080>
    
    <circle cx=897 cy=540 r=11.251956262073252 stroke=""black"" stroke-width=""1"" fill=""black"" />
    <circle cx=704.25 cy=540 r=16.074223231533217 stroke=""black"" stroke-width=""1.5"" fill=""none"" />
    <circle cx=829.5375 cy=540 r=16.074223231533217 stroke=""black"" stroke-width=""1.5"" fill=""none"" />
    <circle cx=704.25 cy=665.2875 r=16.074223231533217 stroke=""black"" stroke-width=""1.5"" fill=""none"" />
    <circle cx=578.9625 cy=540 r=16.074223231533217 stroke=""black"" stroke-width=""1.5"" fill=""none"" />
    <circle cx=704.25 cy=414.7125 r=16.074223231533217 stroke=""black"" stroke-width=""1.5"" fill=""none"" />
    <polygon points = ""704.25,540 708.7715986239141,523.9257767684668 699.7284013760859,523.9257767684668"" stroke=""white"" stroke-width=""3"" fill = ""white"" />
    
    </svg>
    </div>
        ","","","","","","","","","","","","stimulus","","","","","","","","","","","","","","","","",""
"html-keyboard-response","12","55029","0.0-12.0","","243.30000001192093","arrowdown","
    <div style="" display: block;  position: relative;"">
    
    <svg width=1920 height=1080>
    <circle cx=897 cy=540 r=11.251956262073252 stroke=""black"" stroke-width=""1"" fill=""black"" />
    <circle cx=829.5375 cy=540 r=16.074223231533217 stroke=""none"" stroke-width=""1.5"" fill=""none"" />
    <circle cx=704.25 cy=665.2875 r=16.074223231533217 stroke=""none"" stroke-width=""1.5"" fill=""none"" />
    <circle cx=578.9625 cy=540 r=16.074223231533217 stroke=""none"" stroke-width=""1.5"" fill=""none"" />
    <circle cx=704.25 cy=414.7125 r=16.074223231533217 stroke=""none"" stroke-width=""1.5"" fill=""none"" />
    <polygon points = ""704.25,540 708.7715986239141,523.9257767684668 699.7284013760859,523.9257767684668"" stroke=""none"" stroke-width=""3"" fill = ""none"" />
    
    </svg>
    </div>
        ","","","","","","","","","","","","practice_get_response","false","VmiyXDDM7SJW0dzN","125.28750000000001","3.89","true","true","false","192.75","6","545.032","","","","","","",""
"html-keyboard-response","13","55533","0.0-13.0","","null","null","
    <div style="" display: block;  position: relative;"">
    
    <svg width=1920 height=1080>
    <circle cx=897 cy=540 r=11.251956262073252 stroke=""black"" stroke-width=""1"" fill=""black"" />
    <circle cx=829.5375 cy=540 r=16.074223231533217 stroke=""none"" stroke-width=""1.5"" fill=""none"" />
    <circle cx=704.25 cy=665.2875 r=16.074223231533217 stroke=""none"" stroke-width=""1.5"" fill=""none"" />
    <circle cx=578.9625 cy=540 r=16.074223231533217 stroke=""none"" stroke-width=""1.5"" fill=""none"" />
    <circle cx=704.25 cy=414.7125 r=16.074223231533217 stroke=""none"" stroke-width=""1.5"" fill=""none"" />
    <polygon points = ""704.25,540 708.7715986239141,523.9257767684668 699.7284013760859,523.9257767684668"" stroke=""none"" stroke-width=""3"" fill = ""none"" />
    
    </svg>
    </div>
        ","","","","","","","","","","","","","","","","","","","","","","","","","","","","",""
"html-keyboard-response","14","55690","0.0-14.0","","null","null","
    <div style="" display: block;  position: relative;"">
    <svg width=1920 height=1080>
    
    <circle cx=897 cy=540 r=11.251956262073252 stroke=""black"" stroke-width=""1"" fill=""black"" />
    <circle cx=704.25 cy=540 r=16.074223231533217 stroke=""black"" stroke-width=""1.5"" fill=""none"" />
    <circle cx=864.8515535369336 cy=540 r=16.074223231533217 stroke=""black"" stroke-width=""1.5"" fill=""none"" />
    <circle cx=704.25 cy=700.6015535369336 r=16.074223231533217 stroke=""black"" stroke-width=""1.5"" fill=""none"" />
    <circle cx=543.6484464630664 cy=540 r=16.074223231533217 stroke=""black"" stroke-width=""1.5"" fill=""none"" />
    <circle cx=704.25 cy=379.3984464630664 r=16.074223231533217 stroke=""black"" stroke-width=""1.5"" fill=""none"" />
    <polygon points = ""704.25,540 708.7715986239141,556.0742232315332 699.7284013760859,556.0742232315332"" stroke=""white"" stroke-width=""3"" fill = ""white"" />
    
    </svg>
    </div>
        ","","","","","","","","","","","","stimulus","","","","","","","","","","","","","","","","",""
"html-keyboard-response","15","56301","0.0-15.0","","606.9000000059605","arrowdown","
    <div style="" display: block;  position: relative;"">
    
    <svg width=1920 height=1080>
    <circle cx=897 cy=540 r=11.251956262073252 stroke=""black"" stroke-width=""1"" fill=""black"" />
    <circle cx=864.8515535369336 cy=540 r=16.074223231533217 stroke=""none"" stroke-width=""1.5"" fill=""none"" />
    <circle cx=704.25 cy=700.6015535369336 r=16.074223231533217 stroke=""none"" stroke-width=""1.5"" fill=""none"" />
    <circle cx=543.6484464630664 cy=540 r=16.074223231533217 stroke=""none"" stroke-width=""1.5"" fill=""none"" />
    <circle cx=704.25 cy=379.3984464630664 r=16.074223231533217 stroke=""none"" stroke-width=""1.5"" fill=""none"" />
    <polygon points = ""704.25,540 708.7715986239141,556.0742232315332 699.7284013760859,556.0742232315332"" stroke=""none"" stroke-width=""3"" fill = ""none"" />
    
    </svg>
    </div>
        ","","","","","","","","","","","","practice_get_response","true","VmiyXDDM7SJW0dzN","160.60155353693358","4.99","true","false","false","192.75","6","545.032","","","","","","",""
"html-keyboard-response","16","56804","0.0-16.0","","null","null","
    <div style="" display: block;  position: relative;"">
    
    <svg width=1920 height=1080>
    <circle cx=897 cy=540 r=11.251956262073252 stroke=""black"" stroke-width=""1"" fill=""black"" />
    <circle cx=864.8515535369336 cy=540 r=16.074223231533217 stroke=""none"" stroke-width=""1.5"" fill=""none"" />
    <circle cx=704.25 cy=700.6015535369336 r=16.074223231533217 stroke=""none"" stroke-width=""1.5"" fill=""none"" />
    <circle cx=543.6484464630664 cy=540 r=16.074223231533217 stroke=""none"" stroke-width=""1.5"" fill=""none"" />
    <circle cx=704.25 cy=379.3984464630664 r=16.074223231533217 stroke=""none"" stroke-width=""1.5"" fill=""none"" />
    <polygon points = ""704.25,540 708.7715986239141,556.0742232315332 699.7284013760859,556.0742232315332"" stroke=""none"" stroke-width=""3"" fill = ""none"" />
    
    </svg>
    </div>
        ","","","","","","","","","","","","","","","","","","","","","","","","","","","","",""
"html-keyboard-response","17","56962","0.0-17.0","","null","null","
    <div style="" display: block;  position: relative;"">
    <svg width=1920 height=1080>
    
    <circle cx=897 cy=540 r=11.251956262073252 stroke=""black"" stroke-width=""1"" fill=""black"" />
    <circle cx=1089.75 cy=540 r=16.074223231533217 stroke=""black"" stroke-width=""1.5"" fill=""none"" />
    <circle cx=1250.3515535369336 cy=540 r=16.074223231533217 stroke=""black"" stroke-width=""1.5"" fill=""none"" />
    <circle cx=1089.75 cy=700.6015535369336 r=16.074223231533217 stroke=""black"" stroke-width=""1.5"" fill=""none"" />
    <circle cx=929.1484464630664 cy=540 r=16.074223231533217 stroke=""black"" stroke-width=""1.5"" fill=""none"" />
    <circle cx=1089.75 cy=379.3984464630664 r=16.074223231533217 stroke=""black"" stroke-width=""1.5"" fill=""none"" />
    <polygon points = ""1089.75,540 1094.271598623914,556.0742232315332 1085.228401376086,556.0742232315332"" stroke=""white"" stroke-width=""3"" fill = ""white"" />
    
    </svg>
    </div>
        ","","","","","","","","","","","","stimulus","","","","","","","","","","","","","","","","",""
"html-keyboard-response","18","57504","0.0-18.0","","539.1000000238419","arrowdown","
    <div style="" display: block;  position: relative;"">
    
    <svg width=1920 height=1080>
    <circle cx=897 cy=540 r=11.251956262073252 stroke=""black"" stroke-width=""1"" fill=""black"" />
    <circle cx=1250.3515535369336 cy=540 r=16.074223231533217 stroke=""none"" stroke-width=""1.5"" fill=""none"" />
    <circle cx=1089.75 cy=700.6015535369336 r=16.074223231533217 stroke=""none"" stroke-width=""1.5"" fill=""none"" />
    <circle cx=929.1484464630664 cy=540 r=16.074223231533217 stroke=""none"" stroke-width=""1.5"" fill=""none"" />
    <circle cx=1089.75 cy=379.3984464630664 r=16.074223231533217 stroke=""none"" stroke-width=""1.5"" fill=""none"" />
    <polygon points = ""1089.75,540 1094.271598623914,556.0742232315332 1085.228401376086,556.0742232315332"" stroke=""none"" stroke-width=""3"" fill = ""none"" />
    
    </svg>
    </div>
        ","","","","","","","","","","","","practice_get_response","true","VmiyXDDM7SJW0dzN","160.60155353693358","4.99","false","false","false","192.75","6","545.032","","","","","","",""
"html-keyboard-response","19","58007","0.0-19.0","","null","null","
    <div style="" display: block;  position: relative;"">
    
    <svg width=1920 height=1080>
    <circle cx=897 cy=540 r=11.251956262073252 stroke=""black"" stroke-width=""1"" fill=""black"" />
    <circle cx=1250.3515535369336 cy=540 r=16.074223231533217 stroke=""none"" stroke-width=""1.5"" fill=""none"" />
    <circle cx=1089.75 cy=700.6015535369336 r=16.074223231533217 stroke=""none"" stroke-width=""1.5"" fill=""none"" />
    <circle cx=929.1484464630664 cy=540 r=16.074223231533217 stroke=""none"" stroke-width=""1.5"" fill=""none"" />
    <circle cx=1089.75 cy=379.3984464630664 r=16.074223231533217 stroke=""none"" stroke-width=""1.5"" fill=""none"" />
    <polygon points = ""1089.75,540 1094.271598623914,556.0742232315332 1085.228401376086,556.0742232315332"" stroke=""none"" stroke-width=""3"" fill = ""none"" />
    
    </svg>
    </div>
        ","","","","","","","","","","","","","","","","","","","","","","","","","","","","",""
"html-keyboard-response","20","58164","0.0-20.0","","null","null","
    <div style="" display: block;  position: relative;"">
    <svg width=1920 height=1080>
    
    <circle cx=897 cy=540 r=11.251956262073252 stroke=""black"" stroke-width=""1"" fill=""black"" />
    <circle cx=704.25 cy=540 r=16.074223231533217 stroke=""black"" stroke-width=""1.5"" fill=""none"" />
    <circle cx=864.8515535369336 cy=540 r=16.074223231533217 stroke=""black"" stroke-width=""1.5"" fill=""none"" />
    <circle cx=704.25 cy=700.6015535369336 r=16.074223231533217 stroke=""black"" stroke-width=""1.5"" fill=""none"" />
    <circle cx=543.6484464630664 cy=540 r=16.074223231533217 stroke=""black"" stroke-width=""1.5"" fill=""none"" />
    <circle cx=704.25 cy=379.3984464630664 r=16.074223231533217 stroke=""black"" stroke-width=""1.5"" fill=""none"" />
    <polygon points = ""704.25,540 708.7715986239141,523.9257767684668 699.7284013760859,523.9257767684668"" stroke=""white"" stroke-width=""3"" fill = ""white"" />
    
    </svg>
    </div>
        ","","","","","","","","","","","","stimulus","","","","","","","","","","","","","","","","",""
"html-keyboard-response","21","58574","0.0-21.0","","406.39999997615814","arrowup","
    <div style="" display: block;  position: relative;"">
    
    <svg width=1920 height=1080>
    <circle cx=897 cy=540 r=11.251956262073252 stroke=""black"" stroke-width=""1"" fill=""black"" />
    <circle cx=864.8515535369336 cy=540 r=16.074223231533217 stroke=""none"" stroke-width=""1.5"" fill=""none"" />
    <circle cx=704.25 cy=700.6015535369336 r=16.074223231533217 stroke=""none"" stroke-width=""1.5"" fill=""none"" />
    <circle cx=543.6484464630664 cy=540 r=16.074223231533217 stroke=""none"" stroke-width=""1.5"" fill=""none"" />
    <circle cx=704.25 cy=379.3984464630664 r=16.074223231533217 stroke=""none"" stroke-width=""1.5"" fill=""none"" />
    <polygon points = ""704.25,540 708.7715986239141,523.9257767684668 699.7284013760859,523.9257767684668"" stroke=""none"" stroke-width=""3"" fill = ""none"" />
    
    </svg>
    </div>
        ","","","","","","","","","","","","practice_get_response","true","VmiyXDDM7SJW0dzN","160.60155353693358","4.99","true","true","false","192.75","6","545.032","","","","","","",""
"html-keyboard-response","22","59385","0.0-22.0","","809.1000000238419","arrowdown","<div> 
<h2 class=""bolded-blue"">Well done!</h2>
<p> Now that you have the hang of it, we&#39;ll start the study. This session has 25 trials and takes about 2 minute to complete. </p> 
<p>If you are ready for the real deal, please press the <b>down</b> arrow to continue.
</p>
</div>","","","","","","","","","","","","","","","","","","","","","","","","","","","","",""
"html-keyboard-response","23","60160","0.0-23.0","","772.5999999940395","arrowdown","<div id=""continue""> 
<p>Again, please keep the <b>full screen</b> mode for the best experience.</p>
<p>Please do not move around and keep your eye on the black dot. Click <b>up</b> or <b>down</b> key on your keyboard to indicate the opening of the center circle. Make your best guess!</p>
<p>Please press the <b>down</b> arrow key to start the session 1. </p>
</div>","","","","","","","","","","","","","","","","","","","","","","","","","","","","",""
"html-keyboard-response","24","60665","0.0-24.0","","null","null","
    <div style="" display: block;  position: relative;"">
    
    <svg width=1920 height=1080>
    <circle cx=897 cy=540 r=11.251956262073252 stroke=""black"" stroke-width=""1"" fill=""black"" />
    <circle cx=864.8515535369336 cy=540 r=16.074223231533217 stroke=""none"" stroke-width=""1.5"" fill=""none"" />
    <circle cx=704.25 cy=700.6015535369336 r=16.074223231533217 stroke=""none"" stroke-width=""1.5"" fill=""none"" />
    <circle cx=543.6484464630664 cy=540 r=16.074223231533217 stroke=""none"" stroke-width=""1.5"" fill=""none"" />
    <circle cx=704.25 cy=379.3984464630664 r=16.074223231533217 stroke=""none"" stroke-width=""1.5"" fill=""none"" />
    <polygon points = ""704.25,540 708.7715986239141,556.0742232315332 699.7284013760859,556.0742232315332"" stroke=""none"" stroke-width=""3"" fill = ""none"" />
    
    </svg>
    </div>
        ","","","","","","","","","","","","","","","","","","","","","","","","","","","","",""
"html-keyboard-response","25","60823","0.0-25.0","","null","null","
    <div style="" display: block;  position: relative;"">
    <svg width=1920 height=1080>
    
    <circle cx=897 cy=540 r=11.251956262073252 stroke=""black"" stroke-width=""1"" fill=""black"" />
    <circle cx=704.25 cy=540 r=16.074223231533217 stroke=""black"" stroke-width=""1.5"" fill=""none"" />
    <circle cx=829.5375 cy=540 r=16.074223231533217 stroke=""black"" stroke-width=""1.5"" fill=""none"" />
    <circle cx=704.25 cy=665.2875 r=16.074223231533217 stroke=""black"" stroke-width=""1.5"" fill=""none"" />
    <circle cx=578.9625 cy=540 r=16.074223231533217 stroke=""black"" stroke-width=""1.5"" fill=""none"" />
    <circle cx=704.25 cy=414.7125 r=16.074223231533217 stroke=""black"" stroke-width=""1.5"" fill=""none"" />
    <polygon points = ""704.25,540 708.7715986239141,523.9257767684668 699.7284013760859,523.9257767684668"" stroke=""white"" stroke-width=""3"" fill = ""white"" />
    
    </svg>
    </div>
        ","","","","","","","","","","","","stimulus","","","","","","","","","","","","","","","","",""
"html-keyboard-response","26","61213","0.0-26.0","","386.59999999403954","arrowup","
    <div style="" display: block;  position: relative;"">
    
    <svg width=1920 height=1080>
    <circle cx=897 cy=540 r=11.251956262073252 stroke=""black"" stroke-width=""1"" fill=""black"" />
    <circle cx=829.5375 cy=540 r=16.074223231533217 stroke=""none"" stroke-width=""1.5"" fill=""none"" />
    <circle cx=704.25 cy=665.2875 r=16.074223231533217 stroke=""none"" stroke-width=""1.5"" fill=""none"" />
    <circle cx=578.9625 cy=540 r=16.074223231533217 stroke=""none"" stroke-width=""1.5"" fill=""none"" />
    <circle cx=704.25 cy=414.7125 r=16.074223231533217 stroke=""none"" stroke-width=""1.5"" fill=""none"" />
    <polygon points = ""704.25,540 708.7715986239141,523.9257767684668 699.7284013760859,523.9257767684668"" stroke=""none"" stroke-width=""3"" fill = ""none"" />
    
    </svg>
    </div>
        ","","","","","","","","","","","","get_response","true","VmiyXDDM7SJW0dzN","","","true","true","false","192.75","6","545.032","125.28750000000001","3.89","1","0","","",""
"html-keyboard-response","27","61716","0.0-27.0","","null","null","
    <div style="" display: block;  position: relative;"">
    
    <svg width=1920 height=1080>
    <circle cx=897 cy=540 r=11.251956262073252 stroke=""black"" stroke-width=""1"" fill=""black"" />
    <circle cx=829.5375 cy=540 r=16.074223231533217 stroke=""none"" stroke-width=""1.5"" fill=""none"" />
    <circle cx=704.25 cy=665.2875 r=16.074223231533217 stroke=""none"" stroke-width=""1.5"" fill=""none"" />
    <circle cx=578.9625 cy=540 r=16.074223231533217 stroke=""none"" stroke-width=""1.5"" fill=""none"" />
    <circle cx=704.25 cy=414.7125 r=16.074223231533217 stroke=""none"" stroke-width=""1.5"" fill=""none"" />
    <polygon points = ""704.25,540 708.7715986239141,523.9257767684668 699.7284013760859,523.9257767684668"" stroke=""none"" stroke-width=""3"" fill = ""none"" />
    
    </svg>
    </div>
        ","","","","","","","","","","","","","","","","","","","","","","","","","","","","",""
"html-keyboard-response","28","61874","0.0-28.0","","null","null","
    <div style="" display: block;  position: relative;"">
    <svg width=1920 height=1080>
    
    <circle cx=897 cy=540 r=11.251956262073252 stroke=""black"" stroke-width=""1"" fill=""black"" />
    <circle cx=1089.75 cy=540 r=16.074223231533217 stroke=""black"" stroke-width=""1.5"" fill=""none"" />
    <circle cx=1215.0375 cy=540 r=16.074223231533217 stroke=""black"" stroke-width=""1.5"" fill=""none"" />
    <circle cx=1089.75 cy=665.2875 r=16.074223231533217 stroke=""black"" stroke-width=""1.5"" fill=""none"" />
    <circle cx=964.4625 cy=540 r=16.074223231533217 stroke=""black"" stroke-width=""1.5"" fill=""none"" />
    <circle cx=1089.75 cy=414.7125 r=16.074223231533217 stroke=""black"" stroke-width=""1.5"" fill=""none"" />
    <polygon points = ""1089.75,540 1094.271598623914,523.9257767684668 1085.228401376086,523.9257767684668"" stroke=""white"" stroke-width=""3"" fill = ""white"" />
    
    </svg>
    </div>
        ","","","","","","","","","","","","stimulus","","","","","","","","","","","","","","","","",""
"html-keyboard-response","29","62545","0.0-29.0","","668.7000000178814","arrowup","
    <div style="" display: block;  position: relative;"">
    
    <svg width=1920 height=1080>
    <circle cx=897 cy=540 r=11.251956262073252 stroke=""black"" stroke-width=""1"" fill=""black"" />
    <circle cx=1215.0375 cy=540 r=16.074223231533217 stroke=""none"" stroke-width=""1.5"" fill=""none"" />
    <circle cx=1089.75 cy=665.2875 r=16.074223231533217 stroke=""none"" stroke-width=""1.5"" fill=""none"" />
    <circle cx=964.4625 cy=540 r=16.074223231533217 stroke=""none"" stroke-width=""1.5"" fill=""none"" />
    <circle cx=1089.75 cy=414.7125 r=16.074223231533217 stroke=""none"" stroke-width=""1.5"" fill=""none"" />
    <polygon points = ""1089.75,540 1094.271598623914,523.9257767684668 1085.228401376086,523.9257767684668"" stroke=""none"" stroke-width=""3"" fill = ""none"" />
    
    </svg>
    </div>
        ","","","","","","","","","","","","get_response","true","VmiyXDDM7SJW0dzN","","","false","true","false","192.75","6","545.032","125.28750000000001","3.89","1","0","","",""
"html-keyboard-response","30","63049","0.0-30.0","","null","null","
    <div style="" display: block;  position: relative;"">
    
    <svg width=1920 height=1080>
    <circle cx=897 cy=540 r=11.251956262073252 stroke=""black"" stroke-width=""1"" fill=""black"" />
    <circle cx=1215.0375 cy=540 r=16.074223231533217 stroke=""none"" stroke-width=""1.5"" fill=""none"" />
    <circle cx=1089.75 cy=665.2875 r=16.074223231533217 stroke=""none"" stroke-width=""1.5"" fill=""none"" />
    <circle cx=964.4625 cy=540 r=16.074223231533217 stroke=""none"" stroke-width=""1.5"" fill=""none"" />
    <circle cx=1089.75 cy=414.7125 r=16.074223231533217 stroke=""none"" stroke-width=""1.5"" fill=""none"" />
    <polygon points = ""1089.75,540 1094.271598623914,523.9257767684668 1085.228401376086,523.9257767684668"" stroke=""none"" stroke-width=""3"" fill = ""none"" />
    
    </svg>
    </div>
        ","","","","","","","","","","","","","","","","","","","","","","","","","","","","",""
"html-keyboard-response","31","63207","0.0-31.0","","null","null","
    <div style="" display: block;  position: relative;"">
    <svg width=1920 height=1080>
    
    <circle cx=897 cy=540 r=11.251956262073252 stroke=""black"" stroke-width=""1"" fill=""black"" />
    <circle cx=1089.75 cy=540 r=16.074223231533217 stroke=""black"" stroke-width=""1.5"" fill=""none"" />
    <circle cx=1215.0375 cy=540 r=16.074223231533217 stroke=""black"" stroke-width=""1.5"" fill=""none"" />
    <circle cx=1089.75 cy=665.2875 r=16.074223231533217 stroke=""black"" stroke-width=""1.5"" fill=""none"" />
    <circle cx=964.4625 cy=540 r=16.074223231533217 stroke=""black"" stroke-width=""1.5"" fill=""none"" />
    <circle cx=1089.75 cy=414.7125 r=16.074223231533217 stroke=""black"" stroke-width=""1.5"" fill=""none"" />
    <polygon points = ""1089.75,540 1094.271598623914,556.0742232315332 1085.228401376086,556.0742232315332"" stroke=""white"" stroke-width=""3"" fill = ""white"" />
    
    </svg>
    </div>
        ","","","","","","","","","","","","stimulus","","","","","","","","","","","","","","","","",""
"html-keyboard-response","32","63738","0.0-32.0","","527.4000000059605","arrowdown","
    <div style="" display: block;  position: relative;"">
    
    <svg width=1920 height=1080>
    <circle cx=897 cy=540 r=11.251956262073252 stroke=""black"" stroke-width=""1"" fill=""black"" />
    <circle cx=1215.0375 cy=540 r=16.074223231533217 stroke=""none"" stroke-width=""1.5"" fill=""none"" />
    <circle cx=1089.75 cy=665.2875 r=16.074223231533217 stroke=""none"" stroke-width=""1.5"" fill=""none"" />
    <circle cx=964.4625 cy=540 r=16.074223231533217 stroke=""none"" stroke-width=""1.5"" fill=""none"" />
    <circle cx=1089.75 cy=414.7125 r=16.074223231533217 stroke=""none"" stroke-width=""1.5"" fill=""none"" />
    <polygon points = ""1089.75,540 1094.271598623914,556.0742232315332 1085.228401376086,556.0742232315332"" stroke=""none"" stroke-width=""3"" fill = ""none"" />
    
    </svg>
    </div>
        ","","","","","","","","","","","","get_response","true","VmiyXDDM7SJW0dzN","","","false","false","false","192.75","6","545.032","125.28750000000001","3.89","1","0","","",""
"html-keyboard-response","33","64242","0.0-33.0","","null","null","
    <div style="" display: block;  position: relative;"">
    
    <svg width=1920 height=1080>
    <circle cx=897 cy=540 r=11.251956262073252 stroke=""black"" stroke-width=""1"" fill=""black"" />
    <circle cx=1215.0375 cy=540 r=16.074223231533217 stroke=""none"" stroke-width=""1.5"" fill=""none"" />
    <circle cx=1089.75 cy=665.2875 r=16.074223231533217 stroke=""none"" stroke-width=""1.5"" fill=""none"" />
    <circle cx=964.4625 cy=540 r=16.074223231533217 stroke=""none"" stroke-width=""1.5"" fill=""none"" />
    <circle cx=1089.75 cy=414.7125 r=16.074223231533217 stroke=""none"" stroke-width=""1.5"" fill=""none"" />
    <polygon points = ""1089.75,540 1094.271598623914,556.0742232315332 1085.228401376086,556.0742232315332"" stroke=""none"" stroke-width=""3"" fill = ""none"" />
    
    </svg>
    </div>
        ","","","","","","","","","","","","","","","","","","","","","","","","","","","","",""
"html-keyboard-response","34","64399","0.0-34.0","","null","null","
    <div style="" display: block;  position: relative;"">
    <svg width=1920 height=1080>
    
    <circle cx=897 cy=540 r=11.251956262073252 stroke=""black"" stroke-width=""1"" fill=""black"" />
    <circle cx=1089.75 cy=540 r=16.074223231533217 stroke=""black"" stroke-width=""1.5"" fill=""none"" />
    <circle cx=1203.6477272727273 cy=540 r=16.074223231533217 stroke=""black"" stroke-width=""1.5"" fill=""none"" />
    <circle cx=1089.75 cy=653.8977272727273 r=16.074223231533217 stroke=""black"" stroke-width=""1.5"" fill=""none"" />
    <circle cx=975.8522727272727 cy=540 r=16.074223231533217 stroke=""black"" stroke-width=""1.5"" fill=""none"" />
    <circle cx=1089.75 cy=426.10227272727275 r=16.074223231533217 stroke=""black"" stroke-width=""1.5"" fill=""none"" />
    <polygon points = ""1089.75,540 1094.271598623914,556.0742232315332 1085.228401376086,556.0742232315332"" stroke=""white"" stroke-width=""3"" fill = ""white"" />
    
    </svg>
    </div>
        ","","","","","","","","","","","","stimulus","","","","","","","","","","","","","","","","",""
"html-keyboard-response","35","64837","0.0-35.0","","435.40000000596046","arrowdown","
    <div style="" display: block;  position: relative;"">
    
    <svg width=1920 height=1080>
    <circle cx=897 cy=540 r=11.251956262073252 stroke=""black"" stroke-width=""1"" fill=""black"" />
    <circle cx=1203.6477272727273 cy=540 r=16.074223231533217 stroke=""none"" stroke-width=""1.5"" fill=""none"" />
    <circle cx=1089.75 cy=653.8977272727273 r=16.074223231533217 stroke=""none"" stroke-width=""1.5"" fill=""none"" />
    <circle cx=975.8522727272727 cy=540 r=16.074223231533217 stroke=""none"" stroke-width=""1.5"" fill=""none"" />
    <circle cx=1089.75 cy=426.10227272727275 r=16.074223231533217 stroke=""none"" stroke-width=""1.5"" fill=""none"" />
    <polygon points = ""1089.75,540 1094.271598623914,556.0742232315332 1085.228401376086,556.0742232315332"" stroke=""none"" stroke-width=""3"" fill = ""none"" />
    
    </svg>
    </div>
        ","","","","","","","","","","","","get_response","true","VmiyXDDM7SJW0dzN","","","false","false","false","192.75","6","545.032","113.89772727272727","3.54","1","0","","",""
"html-keyboard-response","36","65340","0.0-36.0","","null","null","
    <div style="" display: block;  position: relative;"">
    
    <svg width=1920 height=1080>
    <circle cx=897 cy=540 r=11.251956262073252 stroke=""black"" stroke-width=""1"" fill=""black"" />
    <circle cx=1203.6477272727273 cy=540 r=16.074223231533217 stroke=""none"" stroke-width=""1.5"" fill=""none"" />
    <circle cx=1089.75 cy=653.8977272727273 r=16.074223231533217 stroke=""none"" stroke-width=""1.5"" fill=""none"" />
    <circle cx=975.8522727272727 cy=540 r=16.074223231533217 stroke=""none"" stroke-width=""1.5"" fill=""none"" />
    <circle cx=1089.75 cy=426.10227272727275 r=16.074223231533217 stroke=""none"" stroke-width=""1.5"" fill=""none"" />
    <polygon points = ""1089.75,540 1094.271598623914,556.0742232315332 1085.228401376086,556.0742232315332"" stroke=""none"" stroke-width=""3"" fill = ""none"" />
    
    </svg>
    </div>
        ","","","","","","","","","","","","","","","","","","","","","","","","","","","","",""
"html-keyboard-response","37","65497","0.0-37.0","","null","null","
    <div style="" display: block;  position: relative;"">
    <svg width=1920 height=1080>
    
    <circle cx=897 cy=540 r=11.251956262073252 stroke=""black"" stroke-width=""1"" fill=""black"" />
    <circle cx=1089.75 cy=540 r=16.074223231533217 stroke=""black"" stroke-width=""1.5"" fill=""none"" />
    <circle cx=1193.293388429752 cy=540 r=16.074223231533217 stroke=""black"" stroke-width=""1.5"" fill=""none"" />
    <circle cx=1089.75 cy=643.5433884297521 r=16.074223231533217 stroke=""black"" stroke-width=""1.5"" fill=""none"" />
    <circle cx=986.2066115702479 cy=540 r=16.074223231533217 stroke=""black"" stroke-width=""1.5"" fill=""none"" />
    <circle cx=1089.75 cy=436.45661157024796 r=16.074223231533217 stroke=""black"" stroke-width=""1.5"" fill=""none"" />
    <polygon points = ""1089.75,540 1094.271598623914,556.0742232315332 1085.228401376086,556.0742232315332"" stroke=""white"" stroke-width=""3"" fill = ""white"" />
    
    </svg>
    </div>
        ","","","","","","","","","","","","stimulus","","","","","","","","","","","","","","","","",""
"html-keyboard-response","38","66043","0.0-38.0","","543.5999999940395","arrowdown","
    <div style="" display: block;  position: relative;"">
    
    <svg width=1920 height=1080>
    <circle cx=897 cy=540 r=11.251956262073252 stroke=""black"" stroke-width=""1"" fill=""black"" />
    <circle cx=1193.293388429752 cy=540 r=16.074223231533217 stroke=""none"" stroke-width=""1.5"" fill=""none"" />
    <circle cx=1089.75 cy=643.5433884297521 r=16.074223231533217 stroke=""none"" stroke-width=""1.5"" fill=""none"" />
    <circle cx=986.2066115702479 cy=540 r=16.074223231533217 stroke=""none"" stroke-width=""1.5"" fill=""none"" />
    <circle cx=1089.75 cy=436.45661157024796 r=16.074223231533217 stroke=""none"" stroke-width=""1.5"" fill=""none"" />
    <polygon points = ""1089.75,540 1094.271598623914,556.0742232315332 1085.228401376086,556.0742232315332"" stroke=""none"" stroke-width=""3"" fill = ""none"" />
    
    </svg>
    </div>
        ","","","","","","","","","","","","get_response","true","VmiyXDDM7SJW0dzN","","","false","false","false","192.75","6","545.032","103.54338842975206","3.21","1","0","","",""
"html-keyboard-response","39","66548","0.0-39.0","","null","null","
    <div style="" display: block;  position: relative;"">
    
    <svg width=1920 height=1080>
    <circle cx=897 cy=540 r=11.251956262073252 stroke=""black"" stroke-width=""1"" fill=""black"" />
    <circle cx=1193.293388429752 cy=540 r=16.074223231533217 stroke=""none"" stroke-width=""1.5"" fill=""none"" />
    <circle cx=1089.75 cy=643.5433884297521 r=16.074223231533217 stroke=""none"" stroke-width=""1.5"" fill=""none"" />
    <circle cx=986.2066115702479 cy=540 r=16.074223231533217 stroke=""none"" stroke-width=""1.5"" fill=""none"" />
    <circle cx=1089.75 cy=436.45661157024796 r=16.074223231533217 stroke=""none"" stroke-width=""1.5"" fill=""none"" />
    <polygon points = ""1089.75,540 1094.271598623914,556.0742232315332 1085.228401376086,556.0742232315332"" stroke=""none"" stroke-width=""3"" fill = ""none"" />
    
    </svg>
    </div>
        ","","","","","","","","","","","","","","","","","","","","","","","","","","","","",""
"html-keyboard-response","40","66706","0.0-40.0","","null","null","
    <div style="" display: block;  position: relative;"">
    <svg width=1920 height=1080>
    
    <circle cx=897 cy=540 r=11.251956262073252 stroke=""black"" stroke-width=""1"" fill=""black"" />
    <circle cx=704.25 cy=540 r=16.074223231533217 stroke=""black"" stroke-width=""1.5"" fill=""none"" />
    <circle cx=798.3803531179564 cy=540 r=16.074223231533217 stroke=""black"" stroke-width=""1.5"" fill=""none"" />
    <circle cx=704.25 cy=634.1303531179564 r=16.074223231533217 stroke=""black"" stroke-width=""1.5"" fill=""none"" />
    <circle cx=610.1196468820436 cy=540 r=16.074223231533217 stroke=""black"" stroke-width=""1.5"" fill=""none"" />
    <circle cx=704.25 cy=445.8696468820436 r=16.074223231533217 stroke=""black"" stroke-width=""1.5"" fill=""none"" />
    <polygon points = ""704.25,540 708.7715986239141,556.0742232315332 699.7284013760859,556.0742232315332"" stroke=""white"" stroke-width=""3"" fill = ""white"" />
    
    </svg>
    </div>
        ","","","","","","","","","","","","stimulus","","","","","","","","","","","","","","","","",""
"html-keyboard-response","41","67103","0.0-41.0","","392.89999997615814","arrowup","
    <div style="" display: block;  position: relative;"">
    
    <svg width=1920 height=1080>
    <circle cx=897 cy=540 r=11.251956262073252 stroke=""black"" stroke-width=""1"" fill=""black"" />
    <circle cx=798.3803531179564 cy=540 r=16.074223231533217 stroke=""none"" stroke-width=""1.5"" fill=""none"" />
    <circle cx=704.25 cy=634.1303531179564 r=16.074223231533217 stroke=""none"" stroke-width=""1.5"" fill=""none"" />
    <circle cx=610.1196468820436 cy=540 r=16.074223231533217 stroke=""none"" stroke-width=""1.5"" fill=""none"" />
    <circle cx=704.25 cy=445.8696468820436 r=16.074223231533217 stroke=""none"" stroke-width=""1.5"" fill=""none"" />
    <polygon points = ""704.25,540 708.7715986239141,556.0742232315332 699.7284013760859,556.0742232315332"" stroke=""none"" stroke-width=""3"" fill = ""none"" />
    
    </svg>
    </div>
        ","","","","","","","","","","","","get_response","false","VmiyXDDM7SJW0dzN","","","true","false","false","192.75","6","545.032","94.1303531179564","2.92","1","0","","",""
"html-keyboard-response","42","67606","0.0-42.0","","null","null","
    <div style="" display: block;  position: relative;"">
    
    <svg width=1920 height=1080>
    <circle cx=897 cy=540 r=11.251956262073252 stroke=""black"" stroke-width=""1"" fill=""black"" />
    <circle cx=798.3803531179564 cy=540 r=16.074223231533217 stroke=""none"" stroke-width=""1.5"" fill=""none"" />
    <circle cx=704.25 cy=634.1303531179564 r=16.074223231533217 stroke=""none"" stroke-width=""1.5"" fill=""none"" />
    <circle cx=610.1196468820436 cy=540 r=16.074223231533217 stroke=""none"" stroke-width=""1.5"" fill=""none"" />
    <circle cx=704.25 cy=445.8696468820436 r=16.074223231533217 stroke=""none"" stroke-width=""1.5"" fill=""none"" />
    <polygon points = ""704.25,540 708.7715986239141,556.0742232315332 699.7284013760859,556.0742232315332"" stroke=""none"" stroke-width=""3"" fill = ""none"" />
    
    </svg>
    </div>
        ","","","","","","","","","","","","","","","","","","","","","","","","","","","","",""
"html-keyboard-response","43","67763","0.0-43.0","","null","null","
    <div style="" display: block;  position: relative;"">
    <svg width=1920 height=1080>
    
    <circle cx=897 cy=540 r=11.251956262073252 stroke=""black"" stroke-width=""1"" fill=""black"" />
    <circle cx=1089.75 cy=540 r=16.074223231533217 stroke=""black"" stroke-width=""1.5"" fill=""none"" />
    <circle cx=1212.1194590533432 cy=540 r=16.074223231533217 stroke=""black"" stroke-width=""1.5"" fill=""none"" />
    <circle cx=1089.75 cy=662.3694590533433 r=16.074223231533217 stroke=""black"" stroke-width=""1.5"" fill=""none"" />
    <circle cx=967.3805409466567 cy=540 r=16.074223231533217 stroke=""black"" stroke-width=""1.5"" fill=""none"" />
    <circle cx=1089.75 cy=417.63054094665665 r=16.074223231533217 stroke=""black"" stroke-width=""1.5"" fill=""none"" />
    <polygon points = ""1089.75,540 1094.271598623914,556.0742232315332 1085.228401376086,556.0742232315332"" stroke=""white"" stroke-width=""3"" fill = ""white"" />
    
    </svg>
    </div>
        ","","","","","","","","","","","","stimulus","","","","","","","","","","","","","","","","",""
"html-keyboard-response","44","68283","0.0-44.0","","516.3000000119209","arrowdown","
    <div style="" display: block;  position: relative;"">
    
    <svg width=1920 height=1080>
    <circle cx=897 cy=540 r=11.251956262073252 stroke=""black"" stroke-width=""1"" fill=""black"" />
    <circle cx=1212.1194590533432 cy=540 r=16.074223231533217 stroke=""none"" stroke-width=""1.5"" fill=""none"" />
    <circle cx=1089.75 cy=662.3694590533433 r=16.074223231533217 stroke=""none"" stroke-width=""1.5"" fill=""none"" />
    <circle cx=967.3805409466567 cy=540 r=16.074223231533217 stroke=""none"" stroke-width=""1.5"" fill=""none"" />
    <circle cx=1089.75 cy=417.63054094665665 r=16.074223231533217 stroke=""none"" stroke-width=""1.5"" fill=""none"" />
    <polygon points = ""1089.75,540 1094.271598623914,556.0742232315332 1085.228401376086,556.0742232315332"" stroke=""none"" stroke-width=""3"" fill = ""none"" />
    
    </svg>
    </div>
        ","","","","","","","","","","","","get_response","true","VmiyXDDM7SJW0dzN","","","false","false","false","192.75","6","545.032","122.36945905334333","3.8","1","0","","",""
"html-keyboard-response","45","68787","0.0-45.0","","null","null","
    <div style="" display: block;  position: relative;"">
    
    <svg width=1920 height=1080>
    <circle cx=897 cy=540 r=11.251956262073252 stroke=""black"" stroke-width=""1"" fill=""black"" />
    <circle cx=1212.1194590533432 cy=540 r=16.074223231533217 stroke=""none"" stroke-width=""1.5"" fill=""none"" />
    <circle cx=1089.75 cy=662.3694590533433 r=16.074223231533217 stroke=""none"" stroke-width=""1.5"" fill=""none"" />
    <circle cx=967.3805409466567 cy=540 r=16.074223231533217 stroke=""none"" stroke-width=""1.5"" fill=""none"" />
    <circle cx=1089.75 cy=417.63054094665665 r=16.074223231533217 stroke=""none"" stroke-width=""1.5"" fill=""none"" />
    <polygon points = ""1089.75,540 1094.271598623914,556.0742232315332 1085.228401376086,556.0742232315332"" stroke=""none"" stroke-width=""3"" fill = ""none"" />
    
    </svg>
    </div>
        ","","","","","","","","","","","","","","","","","","","","","","","","","","","","",""
"html-keyboard-response","46","68942","0.0-46.0","","null","null","
    <div style="" display: block;  position: relative;"">
    <svg width=1920 height=1080>
    
    <circle cx=897 cy=540 r=11.251956262073252 stroke=""black"" stroke-width=""1"" fill=""black"" />
    <circle cx=1089.75 cy=540 r=16.074223231533217 stroke=""black"" stroke-width=""1.5"" fill=""none"" />
    <circle cx=1212.1194590533432 cy=540 r=16.074223231533217 stroke=""black"" stroke-width=""1.5"" fill=""none"" />
    <circle cx=1089.75 cy=662.3694590533433 r=16.074223231533217 stroke=""black"" stroke-width=""1.5"" fill=""none"" />
    <circle cx=967.3805409466567 cy=540 r=16.074223231533217 stroke=""black"" stroke-width=""1.5"" fill=""none"" />
    <circle cx=1089.75 cy=417.63054094665665 r=16.074223231533217 stroke=""black"" stroke-width=""1.5"" fill=""none"" />
    <polygon points = ""1089.75,540 1094.271598623914,523.9257767684668 1085.228401376086,523.9257767684668"" stroke=""white"" stroke-width=""3"" fill = ""white"" />
    
    </svg>
    </div>
        ","","","","","","","","","","","","stimulus","","","","","","","","","","","","","","","","",""
"html-keyboard-response","47","69350","0.0-47.0","","404.7999999821186","arrowup","
    <div style="" display: block;  position: relative;"">
    
    <svg width=1920 height=1080>
    <circle cx=897 cy=540 r=11.251956262073252 stroke=""black"" stroke-width=""1"" fill=""black"" />
    <circle cx=1212.1194590533432 cy=540 r=16.074223231533217 stroke=""none"" stroke-width=""1.5"" fill=""none"" />
    <circle cx=1089.75 cy=662.3694590533433 r=16.074223231533217 stroke=""none"" stroke-width=""1.5"" fill=""none"" />
    <circle cx=967.3805409466567 cy=540 r=16.074223231533217 stroke=""none"" stroke-width=""1.5"" fill=""none"" />
    <circle cx=1089.75 cy=417.63054094665665 r=16.074223231533217 stroke=""none"" stroke-width=""1.5"" fill=""none"" />
    <polygon points = ""1089.75,540 1094.271598623914,523.9257767684668 1085.228401376086,523.9257767684668"" stroke=""none"" stroke-width=""3"" fill = ""none"" />
    
    </svg>
    </div>
        ","","","","","","","","","","","","get_response","true","VmiyXDDM7SJW0dzN","","","false","true","false","192.75","6","545.032","122.36945905334333","3.8","1","0","","",""
"html-keyboard-response","48","69854","0.0-48.0","","null","null","
    <div style="" display: block;  position: relative;"">
    
    <svg width=1920 height=1080>
    <circle cx=897 cy=540 r=11.251956262073252 stroke=""black"" stroke-width=""1"" fill=""black"" />
    <circle cx=1212.1194590533432 cy=540 r=16.074223231533217 stroke=""none"" stroke-width=""1.5"" fill=""none"" />
    <circle cx=1089.75 cy=662.3694590533433 r=16.074223231533217 stroke=""none"" stroke-width=""1.5"" fill=""none"" />
    <circle cx=967.3805409466567 cy=540 r=16.074223231533217 stroke=""none"" stroke-width=""1.5"" fill=""none"" />
    <circle cx=1089.75 cy=417.63054094665665 r=16.074223231533217 stroke=""none"" stroke-width=""1.5"" fill=""none"" />
    <polygon points = ""1089.75,540 1094.271598623914,523.9257767684668 1085.228401376086,523.9257767684668"" stroke=""none"" stroke-width=""3"" fill = ""none"" />
    
    </svg>
    </div>
        ","","","","","","","","","","","","","","","","","","","","","","","","","","","","",""
"html-keyboard-response","49","70012","0.0-49.0","","null","null","
    <div style="" display: block;  position: relative;"">
    <svg width=1920 height=1080>
    
    <circle cx=897 cy=540 r=11.251956262073252 stroke=""black"" stroke-width=""1"" fill=""black"" />
    <circle cx=704.25 cy=540 r=16.074223231533217 stroke=""black"" stroke-width=""1.5"" fill=""none"" />
    <circle cx=826.6194590533433 cy=540 r=16.074223231533217 stroke=""black"" stroke-width=""1.5"" fill=""none"" />
    <circle cx=704.25 cy=662.3694590533433 r=16.074223231533217 stroke=""black"" stroke-width=""1.5"" fill=""none"" />
    <circle cx=581.8805409466567 cy=540 r=16.074223231533217 stroke=""black"" stroke-width=""1.5"" fill=""none"" />
    <circle cx=704.25 cy=417.63054094665665 r=16.074223231533217 stroke=""black"" stroke-width=""1.5"" fill=""none"" />
    <polygon points = ""704.25,540 708.7715986239141,523.9257767684668 699.7284013760859,523.9257767684668"" stroke=""white"" stroke-width=""3"" fill = ""white"" />
    
    </svg>
    </div>
        ","","","","","","","","","","","","stimulus","","","","","","","","","","","","","","","","",""
"html-keyboard-response","50","70501","0.0-50.0","","485.69999998807907","arrowup","
    <div style="" display: block;  position: relative;"">
    
    <svg width=1920 height=1080>
    <circle cx=897 cy=540 r=11.251956262073252 stroke=""black"" stroke-width=""1"" fill=""black"" />
    <circle cx=826.6194590533433 cy=540 r=16.074223231533217 stroke=""none"" stroke-width=""1.5"" fill=""none"" />
    <circle cx=704.25 cy=662.3694590533433 r=16.074223231533217 stroke=""none"" stroke-width=""1.5"" fill=""none"" />
    <circle cx=581.8805409466567 cy=540 r=16.074223231533217 stroke=""none"" stroke-width=""1.5"" fill=""none"" />
    <circle cx=704.25 cy=417.63054094665665 r=16.074223231533217 stroke=""none"" stroke-width=""1.5"" fill=""none"" />
    <polygon points = ""704.25,540 708.7715986239141,523.9257767684668 699.7284013760859,523.9257767684668"" stroke=""none"" stroke-width=""3"" fill = ""none"" />
    
    </svg>
    </div>
        ","","","","","","","","","","","","get_response","true","VmiyXDDM7SJW0dzN","","","true","true","false","192.75","6","545.032","122.36945905334333","3.8","1","0","","",""
"html-keyboard-response","51","71004","0.0-51.0","","null","null","
    <div style="" display: block;  position: relative;"">
    
    <svg width=1920 height=1080>
    <circle cx=897 cy=540 r=11.251956262073252 stroke=""black"" stroke-width=""1"" fill=""black"" />
    <circle cx=826.6194590533433 cy=540 r=16.074223231533217 stroke=""none"" stroke-width=""1.5"" fill=""none"" />
    <circle cx=704.25 cy=662.3694590533433 r=16.074223231533217 stroke=""none"" stroke-width=""1.5"" fill=""none"" />
    <circle cx=581.8805409466567 cy=540 r=16.074223231533217 stroke=""none"" stroke-width=""1.5"" fill=""none"" />
    <circle cx=704.25 cy=417.63054094665665 r=16.074223231533217 stroke=""none"" stroke-width=""1.5"" fill=""none"" />
    <polygon points = ""704.25,540 708.7715986239141,523.9257767684668 699.7284013760859,523.9257767684668"" stroke=""none"" stroke-width=""3"" fill = ""none"" />
    
    </svg>
    </div>
        ","","","","","","","","","","","","","","","","","","","","","","","","","","","","",""
"html-keyboard-response","52","71161","0.0-52.0","","null","null","
    <div style="" display: block;  position: relative;"">
    <svg width=1920 height=1080>
    
    <circle cx=897 cy=540 r=11.251956262073252 stroke=""black"" stroke-width=""1"" fill=""black"" />
    <circle cx=704.25 cy=540 r=16.074223231533217 stroke=""black"" stroke-width=""1.5"" fill=""none"" />
    <circle cx=815.4949627757667 cy=540 r=16.074223231533217 stroke=""black"" stroke-width=""1.5"" fill=""none"" />
    <circle cx=704.25 cy=651.2449627757667 r=16.074223231533217 stroke=""black"" stroke-width=""1.5"" fill=""none"" />
    <circle cx=593.0050372242333 cy=540 r=16.074223231533217 stroke=""black"" stroke-width=""1.5"" fill=""none"" />
    <circle cx=704.25 cy=428.7550372242333 r=16.074223231533217 stroke=""black"" stroke-width=""1.5"" fill=""none"" />
    <polygon points = ""704.25,540 708.7715986239141,523.9257767684668 699.7284013760859,523.9257767684668"" stroke=""white"" stroke-width=""3"" fill = ""white"" />
    
    </svg>
    </div>
        ","","","","","","","","","","","","stimulus","","","","","","","","","","","","","","","","",""
"html-keyboard-response","53","71759","0.0-53.0","","595.3999999761581","arrowup","
    <div style="" display: block;  position: relative;"">
    
    <svg width=1920 height=1080>
    <circle cx=897 cy=540 r=11.251956262073252 stroke=""black"" stroke-width=""1"" fill=""black"" />
    <circle cx=815.4949627757667 cy=540 r=16.074223231533217 stroke=""none"" stroke-width=""1.5"" fill=""none"" />
    <circle cx=704.25 cy=651.2449627757667 r=16.074223231533217 stroke=""none"" stroke-width=""1.5"" fill=""none"" />
    <circle cx=593.0050372242333 cy=540 r=16.074223231533217 stroke=""none"" stroke-width=""1.5"" fill=""none"" />
    <circle cx=704.25 cy=428.7550372242333 r=16.074223231533217 stroke=""none"" stroke-width=""1.5"" fill=""none"" />
    <polygon points = ""704.25,540 708.7715986239141,523.9257767684668 699.7284013760859,523.9257767684668"" stroke=""none"" stroke-width=""3"" fill = ""none"" />
    
    </svg>
    </div>
        ","","","","","","","","","","","","get_response","true","VmiyXDDM7SJW0dzN","","","true","true","false","192.75","6","545.032","111.24496277576665","3.45","1","0","","",""
"html-keyboard-response","54","72263","0.0-54.0","","null","null","
    <div style="" display: block;  position: relative;"">
    
    <svg width=1920 height=1080>
    <circle cx=897 cy=540 r=11.251956262073252 stroke=""black"" stroke-width=""1"" fill=""black"" />
    <circle cx=815.4949627757667 cy=540 r=16.074223231533217 stroke=""none"" stroke-width=""1.5"" fill=""none"" />
    <circle cx=704.25 cy=651.2449627757667 r=16.074223231533217 stroke=""none"" stroke-width=""1.5"" fill=""none"" />
    <circle cx=593.0050372242333 cy=540 r=16.074223231533217 stroke=""none"" stroke-width=""1.5"" fill=""none"" />
    <circle cx=704.25 cy=428.7550372242333 r=16.074223231533217 stroke=""none"" stroke-width=""1.5"" fill=""none"" />
    <polygon points = ""704.25,540 708.7715986239141,523.9257767684668 699.7284013760859,523.9257767684668"" stroke=""none"" stroke-width=""3"" fill = ""none"" />
    
    </svg>
    </div>
        ","","","","","","","","","","","","","","","","","","","","","","","","","","","","",""
"html-keyboard-response","55","72419","0.0-55.0","","null","null","
    <div style="" display: block;  position: relative;"">
    <svg width=1920 height=1080>
    
    <circle cx=897 cy=540 r=11.251956262073252 stroke=""black"" stroke-width=""1"" fill=""black"" />
    <circle cx=1089.75 cy=540 r=16.074223231533217 stroke=""black"" stroke-width=""1.5"" fill=""none"" />
    <circle cx=1190.8817843416061 cy=540 r=16.074223231533217 stroke=""black"" stroke-width=""1.5"" fill=""none"" />
    <circle cx=1089.75 cy=641.131784341606 r=16.074223231533217 stroke=""black"" stroke-width=""1.5"" fill=""none"" />
    <circle cx=988.618215658394 cy=540 r=16.074223231533217 stroke=""black"" stroke-width=""1.5"" fill=""none"" />
    <circle cx=1089.75 cy=438.868215658394 r=16.074223231533217 stroke=""black"" stroke-width=""1.5"" fill=""none"" />
    <polygon points = ""1089.75,540 1094.271598623914,523.9257767684668 1085.228401376086,523.9257767684668"" stroke=""white"" stroke-width=""3"" fill = ""white"" />
    
    </svg>
    </div>
        ","","","","","","","","","","","","stimulus","","","","","","","","","","","","","","","","",""
"html-keyboard-response","56","72848","0.0-56.0","","426.30000001192093","arrowup","
    <div style="" display: block;  position: relative;"">
    
    <svg width=1920 height=1080>
    <circle cx=897 cy=540 r=11.251956262073252 stroke=""black"" stroke-width=""1"" fill=""black"" />
    <circle cx=1190.8817843416061 cy=540 r=16.074223231533217 stroke=""none"" stroke-width=""1.5"" fill=""none"" />
    <circle cx=1089.75 cy=641.131784341606 r=16.074223231533217 stroke=""none"" stroke-width=""1.5"" fill=""none"" />
    <circle cx=988.618215658394 cy=540 r=16.074223231533217 stroke=""none"" stroke-width=""1.5"" fill=""none"" />
    <circle cx=1089.75 cy=438.868215658394 r=16.074223231533217 stroke=""none"" stroke-width=""1.5"" fill=""none"" />
    <polygon points = ""1089.75,540 1094.271598623914,523.9257767684668 1085.228401376086,523.9257767684668"" stroke=""none"" stroke-width=""3"" fill = ""none"" />
    
    </svg>
    </div>
        ","","","","","","","","","","","","get_response","true","VmiyXDDM7SJW0dzN","","","false","true","false","192.75","6","545.032","101.13178434160604","3.14","1","0","","",""
"html-keyboard-response","57","73352","0.0-57.0","","null","null","
    <div style="" display: block;  position: relative;"">
    
    <svg width=1920 height=1080>
    <circle cx=897 cy=540 r=11.251956262073252 stroke=""black"" stroke-width=""1"" fill=""black"" />
    <circle cx=1190.8817843416061 cy=540 r=16.074223231533217 stroke=""none"" stroke-width=""1.5"" fill=""none"" />
    <circle cx=1089.75 cy=641.131784341606 r=16.074223231533217 stroke=""none"" stroke-width=""1.5"" fill=""none"" />
    <circle cx=988.618215658394 cy=540 r=16.074223231533217 stroke=""none"" stroke-width=""1.5"" fill=""none"" />
    <circle cx=1089.75 cy=438.868215658394 r=16.074223231533217 stroke=""none"" stroke-width=""1.5"" fill=""none"" />
    <polygon points = ""1089.75,540 1094.271598623914,523.9257767684668 1085.228401376086,523.9257767684668"" stroke=""none"" stroke-width=""3"" fill = ""none"" />
    
    </svg>
    </div>
        ","","","","","","","","","","","","","","","","","","","","","","","","","","","","",""
"html-keyboard-response","58","73506","0.0-58.0","","null","null","
    <div style="" display: block;  position: relative;"">
    <svg width=1920 height=1080>
    
    <circle cx=897 cy=540 r=11.251956262073252 stroke=""black"" stroke-width=""1"" fill=""black"" />
    <circle cx=1089.75 cy=540 r=16.074223231533217 stroke=""black"" stroke-width=""1.5"" fill=""none"" />
    <circle cx=1181.6879857650963 cy=540 r=16.074223231533217 stroke=""black"" stroke-width=""1.5"" fill=""none"" />
    <circle cx=1089.75 cy=631.9379857650964 r=16.074223231533217 stroke=""black"" stroke-width=""1.5"" fill=""none"" />
    <circle cx=997.8120142349036 cy=540 r=16.074223231533217 stroke=""black"" stroke-width=""1.5"" fill=""none"" />
    <circle cx=1089.75 cy=448.0620142349036 r=16.074223231533217 stroke=""black"" stroke-width=""1.5"" fill=""none"" />
    <polygon points = ""1089.75,540 1094.271598623914,556.0742232315332 1085.228401376086,556.0742232315332"" stroke=""white"" stroke-width=""3"" fill = ""white"" />
    
    </svg>
    </div>
        ","","","","","","","","","","","","stimulus","","","","","","","","","","","","","","","","",""
"html-keyboard-response","59","73963","0.0-59.0","","454.5","arrowdown","
    <div style="" display: block;  position: relative;"">
    
    <svg width=1920 height=1080>
    <circle cx=897 cy=540 r=11.251956262073252 stroke=""black"" stroke-width=""1"" fill=""black"" />
    <circle cx=1181.6879857650963 cy=540 r=16.074223231533217 stroke=""none"" stroke-width=""1.5"" fill=""none"" />
    <circle cx=1089.75 cy=631.9379857650964 r=16.074223231533217 stroke=""none"" stroke-width=""1.5"" fill=""none"" />
    <circle cx=997.8120142349036 cy=540 r=16.074223231533217 stroke=""none"" stroke-width=""1.5"" fill=""none"" />
    <circle cx=1089.75 cy=448.0620142349036 r=16.074223231533217 stroke=""none"" stroke-width=""1.5"" fill=""none"" />
    <polygon points = ""1089.75,540 1094.271598623914,556.0742232315332 1085.228401376086,556.0742232315332"" stroke=""none"" stroke-width=""3"" fill = ""none"" />
    
    </svg>
    </div>
        ","","","","","","","","","","","","get_response","true","VmiyXDDM7SJW0dzN","","","false","false","false","192.75","6","545.032","91.93798576509639","2.85","1","0","","",""
"html-keyboard-response","60","74466","0.0-60.0","","null","null","
    <div style="" display: block;  position: relative;"">
    
    <svg width=1920 height=1080>
    <circle cx=897 cy=540 r=11.251956262073252 stroke=""black"" stroke-width=""1"" fill=""black"" />
    <circle cx=1181.6879857650963 cy=540 r=16.074223231533217 stroke=""none"" stroke-width=""1.5"" fill=""none"" />
    <circle cx=1089.75 cy=631.9379857650964 r=16.074223231533217 stroke=""none"" stroke-width=""1.5"" fill=""none"" />
    <circle cx=997.8120142349036 cy=540 r=16.074223231533217 stroke=""none"" stroke-width=""1.5"" fill=""none"" />
    <circle cx=1089.75 cy=448.0620142349036 r=16.074223231533217 stroke=""none"" stroke-width=""1.5"" fill=""none"" />
    <polygon points = ""1089.75,540 1094.271598623914,556.0742232315332 1085.228401376086,556.0742232315332"" stroke=""none"" stroke-width=""3"" fill = ""none"" />
    
    </svg>
    </div>
        ","","","","","","","","","","","","","","","","","","","","","","","","","","","","",""
"html-keyboard-response","61","74621","0.0-61.0","","null","null","
    <div style="" display: block;  position: relative;"">
    <svg width=1920 height=1080>
    
    <circle cx=897 cy=540 r=11.251956262073252 stroke=""black"" stroke-width=""1"" fill=""black"" />
    <circle cx=704.25 cy=540 r=16.074223231533217 stroke=""black"" stroke-width=""1.5"" fill=""none"" />
    <circle cx=787.8299870591785 cy=540 r=16.074223231533217 stroke=""black"" stroke-width=""1.5"" fill=""none"" />
    <circle cx=704.25 cy=623.5799870591785 r=16.074223231533217 stroke=""black"" stroke-width=""1.5"" fill=""none"" />
    <circle cx=620.6700129408215 cy=540 r=16.074223231533217 stroke=""black"" stroke-width=""1.5"" fill=""none"" />
    <circle cx=704.25 cy=456.4200129408215 r=16.074223231533217 stroke=""black"" stroke-width=""1.5"" fill=""none"" />
    <polygon points = ""704.25,540 708.7715986239141,523.9257767684668 699.7284013760859,523.9257767684668"" stroke=""white"" stroke-width=""3"" fill = ""white"" />
    
    </svg>
    </div>
        ","","","","","","","","","","","","stimulus","","","","","","","","","","","","","","","","",""
"html-keyboard-response","62","75087","0.0-62.0","","464.19999998807907","arrowup","
    <div style="" display: block;  position: relative;"">
    
    <svg width=1920 height=1080>
    <circle cx=897 cy=540 r=11.251956262073252 stroke=""black"" stroke-width=""1"" fill=""black"" />
    <circle cx=787.8299870591785 cy=540 r=16.074223231533217 stroke=""none"" stroke-width=""1.5"" fill=""none"" />
    <circle cx=704.25 cy=623.5799870591785 r=16.074223231533217 stroke=""none"" stroke-width=""1.5"" fill=""none"" />
    <circle cx=620.6700129408215 cy=540 r=16.074223231533217 stroke=""none"" stroke-width=""1.5"" fill=""none"" />
    <circle cx=704.25 cy=456.4200129408215 r=16.074223231533217 stroke=""none"" stroke-width=""1.5"" fill=""none"" />
    <polygon points = ""704.25,540 708.7715986239141,523.9257767684668 699.7284013760859,523.9257767684668"" stroke=""none"" stroke-width=""3"" fill = ""none"" />
    
    </svg>
    </div>
        ","","","","","","","","","","","","get_response","true","VmiyXDDM7SJW0dzN","","","true","true","false","192.75","6","545.032","83.57998705917852","2.59","1","0","","",""
"html-keyboard-response","63","75592","0.0-63.0","","null","null","
    <div style="" display: block;  position: relative;"">
    
    <svg width=1920 height=1080>
    <circle cx=897 cy=540 r=11.251956262073252 stroke=""black"" stroke-width=""1"" fill=""black"" />
    <circle cx=787.8299870591785 cy=540 r=16.074223231533217 stroke=""none"" stroke-width=""1.5"" fill=""none"" />
    <circle cx=704.25 cy=623.5799870591785 r=16.074223231533217 stroke=""none"" stroke-width=""1.5"" fill=""none"" />
    <circle cx=620.6700129408215 cy=540 r=16.074223231533217 stroke=""none"" stroke-width=""1.5"" fill=""none"" />
    <circle cx=704.25 cy=456.4200129408215 r=16.074223231533217 stroke=""none"" stroke-width=""1.5"" fill=""none"" />
    <polygon points = ""704.25,540 708.7715986239141,523.9257767684668 699.7284013760859,523.9257767684668"" stroke=""none"" stroke-width=""3"" fill = ""none"" />
    
    </svg>
    </div>
        ","","","","","","","","","","","","","","","","","","","","","","","","","","","","",""
"html-keyboard-response","64","75746","0.0-64.0","","null","null","
    <div style="" display: block;  position: relative;"">
    <svg width=1920 height=1080>
    
    <circle cx=897 cy=540 r=11.251956262073252 stroke=""black"" stroke-width=""1"" fill=""black"" />
    <circle cx=704.25 cy=540 r=16.074223231533217 stroke=""black"" stroke-width=""1.5"" fill=""none"" />
    <circle cx=780.231806417435 cy=540 r=16.074223231533217 stroke=""black"" stroke-width=""1.5"" fill=""none"" />
    <circle cx=704.25 cy=615.981806417435 r=16.074223231533217 stroke=""black"" stroke-width=""1.5"" fill=""none"" />
    <circle cx=628.268193582565 cy=540 r=16.074223231533217 stroke=""black"" stroke-width=""1.5"" fill=""none"" />
    <circle cx=704.25 cy=464.018193582565 r=16.074223231533217 stroke=""black"" stroke-width=""1.5"" fill=""none"" />
    <polygon points = ""704.25,540 708.7715986239141,556.0742232315332 699.7284013760859,556.0742232315332"" stroke=""white"" stroke-width=""3"" fill = ""white"" />
    
    </svg>
    </div>
        ","","","","","","","","","","","","stimulus","","","","","","","","","","","","","","","","",""
"html-keyboard-response","65","76303","0.0-65.0","","554.8000000119209","arrowup","
    <div style="" display: block;  position: relative;"">
    
    <svg width=1920 height=1080>
    <circle cx=897 cy=540 r=11.251956262073252 stroke=""black"" stroke-width=""1"" fill=""black"" />
    <circle cx=780.231806417435 cy=540 r=16.074223231533217 stroke=""none"" stroke-width=""1.5"" fill=""none"" />
    <circle cx=704.25 cy=615.981806417435 r=16.074223231533217 stroke=""none"" stroke-width=""1.5"" fill=""none"" />
    <circle cx=628.268193582565 cy=540 r=16.074223231533217 stroke=""none"" stroke-width=""1.5"" fill=""none"" />
    <circle cx=704.25 cy=464.018193582565 r=16.074223231533217 stroke=""none"" stroke-width=""1.5"" fill=""none"" />
    <polygon points = ""704.25,540 708.7715986239141,556.0742232315332 699.7284013760859,556.0742232315332"" stroke=""none"" stroke-width=""3"" fill = ""none"" />
    
    </svg>
    </div>
        ","","","","","","","","","","","","get_response","false","VmiyXDDM7SJW0dzN","","","true","false","false","192.75","6","545.032","75.98180641743501","2.36","1","0","","",""
"html-keyboard-response","66","76808","0.0-66.0","","null","null","
    <div style="" display: block;  position: relative;"">
    
    <svg width=1920 height=1080>
    <circle cx=897 cy=540 r=11.251956262073252 stroke=""black"" stroke-width=""1"" fill=""black"" />
    <circle cx=780.231806417435 cy=540 r=16.074223231533217 stroke=""none"" stroke-width=""1.5"" fill=""none"" />
    <circle cx=704.25 cy=615.981806417435 r=16.074223231533217 stroke=""none"" stroke-width=""1.5"" fill=""none"" />
    <circle cx=628.268193582565 cy=540 r=16.074223231533217 stroke=""none"" stroke-width=""1.5"" fill=""none"" />
    <circle cx=704.25 cy=464.018193582565 r=16.074223231533217 stroke=""none"" stroke-width=""1.5"" fill=""none"" />
    <polygon points = ""704.25,540 708.7715986239141,556.0742232315332 699.7284013760859,556.0742232315332"" stroke=""none"" stroke-width=""3"" fill = ""none"" />
    
    </svg>
    </div>
        ","","","","","","","","","","","","","","","","","","","","","","","","","","","","",""
"html-keyboard-response","67","76960","0.0-67.0","","null","null","
    <div style="" display: block;  position: relative;"">
    <svg width=1920 height=1080>
    
    <circle cx=897 cy=540 r=11.251956262073252 stroke=""black"" stroke-width=""1"" fill=""black"" />
    <circle cx=1089.75 cy=540 r=16.074223231533217 stroke=""black"" stroke-width=""1.5"" fill=""none"" />
    <circle cx=1188.5263483426654 cy=540 r=16.074223231533217 stroke=""black"" stroke-width=""1.5"" fill=""none"" />
    <circle cx=1089.75 cy=638.7763483426655 r=16.074223231533217 stroke=""black"" stroke-width=""1.5"" fill=""none"" />
    <circle cx=990.9736516573345 cy=540 r=16.074223231533217 stroke=""black"" stroke-width=""1.5"" fill=""none"" />
    <circle cx=1089.75 cy=441.22365165733447 r=16.074223231533217 stroke=""black"" stroke-width=""1.5"" fill=""none"" />
    <polygon points = ""1089.75,540 1094.271598623914,523.9257767684668 1085.228401376086,523.9257767684668"" stroke=""white"" stroke-width=""3"" fill = ""white"" />
    
    </svg>
    </div>
        ","","","","","","","","","","","","stimulus","","","","","","","","","","","","","","","","",""
"html-keyboard-response","68","77406","0.0-68.0","","443.40000000596046","arrowup","
    <div style="" display: block;  position: relative;"">
    
    <svg width=1920 height=1080>
    <circle cx=897 cy=540 r=11.251956262073252 stroke=""black"" stroke-width=""1"" fill=""black"" />
    <circle cx=1188.5263483426654 cy=540 r=16.074223231533217 stroke=""none"" stroke-width=""1.5"" fill=""none"" />
    <circle cx=1089.75 cy=638.7763483426655 r=16.074223231533217 stroke=""none"" stroke-width=""1.5"" fill=""none"" />
    <circle cx=990.9736516573345 cy=540 r=16.074223231533217 stroke=""none"" stroke-width=""1.5"" fill=""none"" />
    <circle cx=1089.75 cy=441.22365165733447 r=16.074223231533217 stroke=""none"" stroke-width=""1.5"" fill=""none"" />
    <polygon points = ""1089.75,540 1094.271598623914,523.9257767684668 1085.228401376086,523.9257767684668"" stroke=""none"" stroke-width=""3"" fill = ""none"" />
    
    </svg>
    </div>
        ","","","","","","","","","","","","get_response","true","VmiyXDDM7SJW0dzN","","","false","true","false","192.75","6","545.032","98.77634834266551","3.07","1","0","","",""
"html-keyboard-response","69","77909","0.0-69.0","","null","null","
    <div style="" display: block;  position: relative;"">
    
    <svg width=1920 height=1080>
    <circle cx=897 cy=540 r=11.251956262073252 stroke=""black"" stroke-width=""1"" fill=""black"" />
    <circle cx=1188.5263483426654 cy=540 r=16.074223231533217 stroke=""none"" stroke-width=""1.5"" fill=""none"" />
    <circle cx=1089.75 cy=638.7763483426655 r=16.074223231533217 stroke=""none"" stroke-width=""1.5"" fill=""none"" />
    <circle cx=990.9736516573345 cy=540 r=16.074223231533217 stroke=""none"" stroke-width=""1.5"" fill=""none"" />
    <circle cx=1089.75 cy=441.22365165733447 r=16.074223231533217 stroke=""none"" stroke-width=""1.5"" fill=""none"" />
    <polygon points = ""1089.75,540 1094.271598623914,523.9257767684668 1085.228401376086,523.9257767684668"" stroke=""none"" stroke-width=""3"" fill = ""none"" />
    
    </svg>
    </div>
        ","","","","","","","","","","","","","","","","","","","","","","","","","","","","",""
"html-keyboard-response","70","78066","0.0-70.0","","null","null","
    <div style="" display: block;  position: relative;"">
    <svg width=1920 height=1080>
    
    <circle cx=897 cy=540 r=11.251956262073252 stroke=""black"" stroke-width=""1"" fill=""black"" />
    <circle cx=704.25 cy=540 r=16.074223231533217 stroke=""black"" stroke-width=""1.5"" fill=""none"" />
    <circle cx=803.0263483426655 cy=540 r=16.074223231533217 stroke=""black"" stroke-width=""1.5"" fill=""none"" />
    <circle cx=704.25 cy=638.7763483426655 r=16.074223231533217 stroke=""black"" stroke-width=""1.5"" fill=""none"" />
    <circle cx=605.4736516573345 cy=540 r=16.074223231533217 stroke=""black"" stroke-width=""1.5"" fill=""none"" />
    <circle cx=704.25 cy=441.22365165733447 r=16.074223231533217 stroke=""black"" stroke-width=""1.5"" fill=""none"" />
    <polygon points = ""704.25,540 708.7715986239141,556.0742232315332 699.7284013760859,556.0742232315332"" stroke=""white"" stroke-width=""3"" fill = ""white"" />
    
    </svg>
    </div>
        ","","","","","","","","","","","","stimulus","","","","","","","","","","","","","","","","",""
"html-keyboard-response","71","78529","0.0-71.0","","461","arrowdown","
    <div style="" display: block;  position: relative;"">
    
    <svg width=1920 height=1080>
    <circle cx=897 cy=540 r=11.251956262073252 stroke=""black"" stroke-width=""1"" fill=""black"" />
    <circle cx=803.0263483426655 cy=540 r=16.074223231533217 stroke=""none"" stroke-width=""1.5"" fill=""none"" />
    <circle cx=704.25 cy=638.7763483426655 r=16.074223231533217 stroke=""none"" stroke-width=""1.5"" fill=""none"" />
    <circle cx=605.4736516573345 cy=540 r=16.074223231533217 stroke=""none"" stroke-width=""1.5"" fill=""none"" />
    <circle cx=704.25 cy=441.22365165733447 r=16.074223231533217 stroke=""none"" stroke-width=""1.5"" fill=""none"" />
    <polygon points = ""704.25,540 708.7715986239141,556.0742232315332 699.7284013760859,556.0742232315332"" stroke=""none"" stroke-width=""3"" fill = ""none"" />
    
    </svg>
    </div>
        ","","","","","","","","","","","","get_response","true","VmiyXDDM7SJW0dzN","","","true","false","false","192.75","6","545.032","98.77634834266551","3.07","1","0","","",""
"html-keyboard-response","72","79031","0.0-72.0","","null","null","
    <div style="" display: block;  position: relative;"">
    
    <svg width=1920 height=1080>
    <circle cx=897 cy=540 r=11.251956262073252 stroke=""black"" stroke-width=""1"" fill=""black"" />
    <circle cx=803.0263483426655 cy=540 r=16.074223231533217 stroke=""none"" stroke-width=""1.5"" fill=""none"" />
    <circle cx=704.25 cy=638.7763483426655 r=16.074223231533217 stroke=""none"" stroke-width=""1.5"" fill=""none"" />
    <circle cx=605.4736516573345 cy=540 r=16.074223231533217 stroke=""none"" stroke-width=""1.5"" fill=""none"" />
    <circle cx=704.25 cy=441.22365165733447 r=16.074223231533217 stroke=""none"" stroke-width=""1.5"" fill=""none"" />
    <polygon points = ""704.25,540 708.7715986239141,556.0742232315332 699.7284013760859,556.0742232315332"" stroke=""none"" stroke-width=""3"" fill = ""none"" />
    
    </svg>
    </div>
        ","","","","","","","","","","","","","","","","","","","","","","","","","","","","",""
"html-keyboard-response","73","79187","0.0-73.0","","null","null","
    <div style="" display: block;  position: relative;"">
    <svg width=1920 height=1080>
    
    <circle cx=897 cy=540 r=11.251956262073252 stroke=""black"" stroke-width=""1"" fill=""black"" />
    <circle cx=1089.75 cy=540 r=16.074223231533217 stroke=""black"" stroke-width=""1.5"" fill=""none"" />
    <circle cx=1188.5263483426654 cy=540 r=16.074223231533217 stroke=""black"" stroke-width=""1.5"" fill=""none"" />
    <circle cx=1089.75 cy=638.7763483426655 r=16.074223231533217 stroke=""black"" stroke-width=""1.5"" fill=""none"" />
    <circle cx=990.9736516573345 cy=540 r=16.074223231533217 stroke=""black"" stroke-width=""1.5"" fill=""none"" />
    <circle cx=1089.75 cy=441.22365165733447 r=16.074223231533217 stroke=""black"" stroke-width=""1.5"" fill=""none"" />
    <polygon points = ""1089.75,540 1094.271598623914,556.0742232315332 1085.228401376086,556.0742232315332"" stroke=""white"" stroke-width=""3"" fill = ""white"" />
    
    </svg>
    </div>
        ","","","","","","","","","","","","stimulus","","","","","","","","","","","","","","","","",""
"html-keyboard-response","74","79655","0.0-74.0","","465.5","arrowdown","
    <div style="" display: block;  position: relative;"">
    
    <svg width=1920 height=1080>
    <circle cx=897 cy=540 r=11.251956262073252 stroke=""black"" stroke-width=""1"" fill=""black"" />
    <circle cx=1188.5263483426654 cy=540 r=16.074223231533217 stroke=""none"" stroke-width=""1.5"" fill=""none"" />
    <circle cx=1089.75 cy=638.7763483426655 r=16.074223231533217 stroke=""none"" stroke-width=""1.5"" fill=""none"" />
    <circle cx=990.9736516573345 cy=540 r=16.074223231533217 stroke=""none"" stroke-width=""1.5"" fill=""none"" />
    <circle cx=1089.75 cy=441.22365165733447 r=16.074223231533217 stroke=""none"" stroke-width=""1.5"" fill=""none"" />
    <polygon points = ""1089.75,540 1094.271598623914,556.0742232315332 1085.228401376086,556.0742232315332"" stroke=""none"" stroke-width=""3"" fill = ""none"" />
    
    </svg>
    </div>
        ","","","","","","","","","","","","get_response","true","VmiyXDDM7SJW0dzN","","","false","false","false","192.75","6","545.032","98.77634834266551","3.07","1","0","","",""
"html-keyboard-response","75","80157","0.0-75.0","","null","null","
    <div style="" display: block;  position: relative;"">
    
    <svg width=1920 height=1080>
    <circle cx=897 cy=540 r=11.251956262073252 stroke=""black"" stroke-width=""1"" fill=""black"" />
    <circle cx=1188.5263483426654 cy=540 r=16.074223231533217 stroke=""none"" stroke-width=""1.5"" fill=""none"" />
    <circle cx=1089.75 cy=638.7763483426655 r=16.074223231533217 stroke=""none"" stroke-width=""1.5"" fill=""none"" />
    <circle cx=990.9736516573345 cy=540 r=16.074223231533217 stroke=""none"" stroke-width=""1.5"" fill=""none"" />
    <circle cx=1089.75 cy=441.22365165733447 r=16.074223231533217 stroke=""none"" stroke-width=""1.5"" fill=""none"" />
    <polygon points = ""1089.75,540 1094.271598623914,556.0742232315332 1085.228401376086,556.0742232315332"" stroke=""none"" stroke-width=""3"" fill = ""none"" />
    
    </svg>
    </div>
        ","","","","","","","","","","","","","","","","","","","","","","","","","","","","",""
"html-keyboard-response","76","80311","0.0-76.0","","null","null","
    <div style="" display: block;  position: relative;"">
    <svg width=1920 height=1080>
    
    <circle cx=897 cy=540 r=11.251956262073252 stroke=""black"" stroke-width=""1"" fill=""black"" />
    <circle cx=704.25 cy=540 r=16.074223231533217 stroke=""black"" stroke-width=""1.5"" fill=""none"" />
    <circle cx=794.0466803115141 cy=540 r=16.074223231533217 stroke=""black"" stroke-width=""1.5"" fill=""none"" />
    <circle cx=704.25 cy=629.7966803115141 r=16.074223231533217 stroke=""black"" stroke-width=""1.5"" fill=""none"" />
    <circle cx=614.4533196884859 cy=540 r=16.074223231533217 stroke=""black"" stroke-width=""1.5"" fill=""none"" />
    <circle cx=704.25 cy=450.2033196884859 r=16.074223231533217 stroke=""black"" stroke-width=""1.5"" fill=""none"" />
    <polygon points = ""704.25,540 708.7715986239141,523.9257767684668 699.7284013760859,523.9257767684668"" stroke=""white"" stroke-width=""3"" fill = ""white"" />
    
    </svg>
    </div>
        ","","","","","","","","","","","","stimulus","","","","","","","","","","","","","","","","",""
"html-keyboard-response","77","80764","0.0-77.0","","453","arrowup","
    <div style="" display: block;  position: relative;"">
    
    <svg width=1920 height=1080>
    <circle cx=897 cy=540 r=11.251956262073252 stroke=""black"" stroke-width=""1"" fill=""black"" />
    <circle cx=794.0466803115141 cy=540 r=16.074223231533217 stroke=""none"" stroke-width=""1.5"" fill=""none"" />
    <circle cx=704.25 cy=629.7966803115141 r=16.074223231533217 stroke=""none"" stroke-width=""1.5"" fill=""none"" />
    <circle cx=614.4533196884859 cy=540 r=16.074223231533217 stroke=""none"" stroke-width=""1.5"" fill=""none"" />
    <circle cx=704.25 cy=450.2033196884859 r=16.074223231533217 stroke=""none"" stroke-width=""1.5"" fill=""none"" />
    <polygon points = ""704.25,540 708.7715986239141,523.9257767684668 699.7284013760859,523.9257767684668"" stroke=""none"" stroke-width=""3"" fill = ""none"" />
    
    </svg>
    </div>
        ","","","","","","","","","","","","get_response","true","VmiyXDDM7SJW0dzN","","","true","true","false","192.75","6","545.032","89.7966803115141","2.79","1","0","","",""
"html-keyboard-response","78","81269","0.0-78.0","","null","null","
    <div style="" display: block;  position: relative;"">
    
    <svg width=1920 height=1080>
    <circle cx=897 cy=540 r=11.251956262073252 stroke=""black"" stroke-width=""1"" fill=""black"" />
    <circle cx=794.0466803115141 cy=540 r=16.074223231533217 stroke=""none"" stroke-width=""1.5"" fill=""none"" />
    <circle cx=704.25 cy=629.7966803115141 r=16.074223231533217 stroke=""none"" stroke-width=""1.5"" fill=""none"" />
    <circle cx=614.4533196884859 cy=540 r=16.074223231533217 stroke=""none"" stroke-width=""1.5"" fill=""none"" />
    <circle cx=704.25 cy=450.2033196884859 r=16.074223231533217 stroke=""none"" stroke-width=""1.5"" fill=""none"" />
    <polygon points = ""704.25,540 708.7715986239141,523.9257767684668 699.7284013760859,523.9257767684668"" stroke=""none"" stroke-width=""3"" fill = ""none"" />
    
    </svg>
    </div>
        ","","","","","","","","","","","","","","","","","","","","","","","","","","","","",""
"html-keyboard-response","79","81424","0.0-79.0","","null","null","
    <div style="" display: block;  position: relative;"">
    <svg width=1920 height=1080>
    
    <circle cx=897 cy=540 r=11.251956262073252 stroke=""black"" stroke-width=""1"" fill=""black"" />
    <circle cx=704.25 cy=540 r=16.074223231533217 stroke=""black"" stroke-width=""1.5"" fill=""none"" />
    <circle cx=785.8833457377401 cy=540 r=16.074223231533217 stroke=""black"" stroke-width=""1.5"" fill=""none"" />
    <circle cx=704.25 cy=621.6333457377401 r=16.074223231533217 stroke=""black"" stroke-width=""1.5"" fill=""none"" />
    <circle cx=622.6166542622599 cy=540 r=16.074223231533217 stroke=""black"" stroke-width=""1.5"" fill=""none"" />
    <circle cx=704.25 cy=458.3666542622599 r=16.074223231533217 stroke=""black"" stroke-width=""1.5"" fill=""none"" />
    <polygon points = ""704.25,540 708.7715986239141,556.0742232315332 699.7284013760859,556.0742232315332"" stroke=""white"" stroke-width=""3"" fill = ""white"" />
    
    </svg>
    </div>
        ","","","","","","","","","","","","stimulus","","","","","","","","","","","","","","","","",""
"html-keyboard-response","80","82276","0.0-80.0","","851.0999999940395","arrowup","
    <div style="" display: block;  position: relative;"">
    
    <svg width=1920 height=1080>
    <circle cx=897 cy=540 r=11.251956262073252 stroke=""black"" stroke-width=""1"" fill=""black"" />
    <circle cx=785.8833457377401 cy=540 r=16.074223231533217 stroke=""none"" stroke-width=""1.5"" fill=""none"" />
    <circle cx=704.25 cy=621.6333457377401 r=16.074223231533217 stroke=""none"" stroke-width=""1.5"" fill=""none"" />
    <circle cx=622.6166542622599 cy=540 r=16.074223231533217 stroke=""none"" stroke-width=""1.5"" fill=""none"" />
    <circle cx=704.25 cy=458.3666542622599 r=16.074223231533217 stroke=""none"" stroke-width=""1.5"" fill=""none"" />
    <polygon points = ""704.25,540 708.7715986239141,556.0742232315332 699.7284013760859,556.0742232315332"" stroke=""none"" stroke-width=""3"" fill = ""none"" />
    
    </svg>
    </div>
        ","","","","","","","","","","","","get_response","false","VmiyXDDM7SJW0dzN","","","true","false","false","192.75","6","545.032","81.63334573774009","2.53","1","0","","",""
"html-keyboard-response","81","82780","0.0-81.0","","null","null","
    <div style="" display: block;  position: relative;"">
    
    <svg width=1920 height=1080>
    <circle cx=897 cy=540 r=11.251956262073252 stroke=""black"" stroke-width=""1"" fill=""black"" />
    <circle cx=785.8833457377401 cy=540 r=16.074223231533217 stroke=""none"" stroke-width=""1.5"" fill=""none"" />
    <circle cx=704.25 cy=621.6333457377401 r=16.074223231533217 stroke=""none"" stroke-width=""1.5"" fill=""none"" />
    <circle cx=622.6166542622599 cy=540 r=16.074223231533217 stroke=""none"" stroke-width=""1.5"" fill=""none"" />
    <circle cx=704.25 cy=458.3666542622599 r=16.074223231533217 stroke=""none"" stroke-width=""1.5"" fill=""none"" />
    <polygon points = ""704.25,540 708.7715986239141,556.0742232315332 699.7284013760859,556.0742232315332"" stroke=""none"" stroke-width=""3"" fill = ""none"" />
    
    </svg>
    </div>
        ","","","","","","","","","","","","","","","","","","","","","","","","","","","","",""
"html-keyboard-response","82","82935","0.0-82.0","","null","null","
    <div style="" display: block;  position: relative;"">
    <svg width=1920 height=1080>
    
    <circle cx=897 cy=540 r=11.251956262073252 stroke=""black"" stroke-width=""1"" fill=""black"" />
    <circle cx=1089.75 cy=540 r=16.074223231533217 stroke=""black"" stroke-width=""1.5"" fill=""none"" />
    <circle cx=1195.8733494590622 cy=540 r=16.074223231533217 stroke=""black"" stroke-width=""1.5"" fill=""none"" />
    <circle cx=1089.75 cy=646.1233494590621 r=16.074223231533217 stroke=""black"" stroke-width=""1.5"" fill=""none"" />
    <circle cx=983.6266505409379 cy=540 r=16.074223231533217 stroke=""black"" stroke-width=""1.5"" fill=""none"" />
    <circle cx=1089.75 cy=433.8766505409379 r=16.074223231533217 stroke=""black"" stroke-width=""1.5"" fill=""none"" />
    <polygon points = ""1089.75,540 1094.271598623914,556.0742232315332 1085.228401376086,556.0742232315332"" stroke=""white"" stroke-width=""3"" fill = ""white"" />
    
    </svg>
    </div>
        ","","","","","","","","","","","","stimulus","","","","","","","","","","","","","","","","",""
"html-keyboard-response","83","83289","0.0-83.0","","351.2000000178814","arrowdown","
    <div style="" display: block;  position: relative;"">
    
    <svg width=1920 height=1080>
    <circle cx=897 cy=540 r=11.251956262073252 stroke=""black"" stroke-width=""1"" fill=""black"" />
    <circle cx=1195.8733494590622 cy=540 r=16.074223231533217 stroke=""none"" stroke-width=""1.5"" fill=""none"" />
    <circle cx=1089.75 cy=646.1233494590621 r=16.074223231533217 stroke=""none"" stroke-width=""1.5"" fill=""none"" />
    <circle cx=983.6266505409379 cy=540 r=16.074223231533217 stroke=""none"" stroke-width=""1.5"" fill=""none"" />
    <circle cx=1089.75 cy=433.8766505409379 r=16.074223231533217 stroke=""none"" stroke-width=""1.5"" fill=""none"" />
    <polygon points = ""1089.75,540 1094.271598623914,556.0742232315332 1085.228401376086,556.0742232315332"" stroke=""none"" stroke-width=""3"" fill = ""none"" />
    
    </svg>
    </div>
        ","","","","","","","","","","","","get_response","true","VmiyXDDM7SJW0dzN","","","false","false","false","192.75","6","545.032","106.12334945906211","3.29","1","0","","",""
"html-keyboard-response","84","83792","0.0-84.0","","null","null","
    <div style="" display: block;  position: relative;"">
    
    <svg width=1920 height=1080>
    <circle cx=897 cy=540 r=11.251956262073252 stroke=""black"" stroke-width=""1"" fill=""black"" />
    <circle cx=1195.8733494590622 cy=540 r=16.074223231533217 stroke=""none"" stroke-width=""1.5"" fill=""none"" />
    <circle cx=1089.75 cy=646.1233494590621 r=16.074223231533217 stroke=""none"" stroke-width=""1.5"" fill=""none"" />
    <circle cx=983.6266505409379 cy=540 r=16.074223231533217 stroke=""none"" stroke-width=""1.5"" fill=""none"" />
    <circle cx=1089.75 cy=433.8766505409379 r=16.074223231533217 stroke=""none"" stroke-width=""1.5"" fill=""none"" />
    <polygon points = ""1089.75,540 1094.271598623914,556.0742232315332 1085.228401376086,556.0742232315332"" stroke=""none"" stroke-width=""3"" fill = ""none"" />
    
    </svg>
    </div>
        ","","","","","","","","","","","","","","","","","","","","","","","","","","","","",""
"html-keyboard-response","85","83948","0.0-85.0","","null","null","
    <div style="" display: block;  position: relative;"">
    <svg width=1920 height=1080>
    
    <circle cx=897 cy=540 r=11.251956262073252 stroke=""black"" stroke-width=""1"" fill=""black"" />
    <circle cx=1089.75 cy=540 r=16.074223231533217 stroke=""black"" stroke-width=""1.5"" fill=""none"" />
    <circle cx=1195.8733494590622 cy=540 r=16.074223231533217 stroke=""black"" stroke-width=""1.5"" fill=""none"" />
    <circle cx=1089.75 cy=646.1233494590621 r=16.074223231533217 stroke=""black"" stroke-width=""1.5"" fill=""none"" />
    <circle cx=983.6266505409379 cy=540 r=16.074223231533217 stroke=""black"" stroke-width=""1.5"" fill=""none"" />
    <circle cx=1089.75 cy=433.8766505409379 r=16.074223231533217 stroke=""black"" stroke-width=""1.5"" fill=""none"" />
    <polygon points = ""1089.75,540 1094.271598623914,523.9257767684668 1085.228401376086,523.9257767684668"" stroke=""white"" stroke-width=""3"" fill = ""white"" />
    
    </svg>
    </div>
        ","","","","","","","","","","","","stimulus","","","","","","","","","","","","","","","","",""
"html-keyboard-response","86","84337","0.0-86.0","","386.30000001192093","arrowup","
    <div style="" display: block;  position: relative;"">
    
    <svg width=1920 height=1080>
    <circle cx=897 cy=540 r=11.251956262073252 stroke=""black"" stroke-width=""1"" fill=""black"" />
    <circle cx=1195.8733494590622 cy=540 r=16.074223231533217 stroke=""none"" stroke-width=""1.5"" fill=""none"" />
    <circle cx=1089.75 cy=646.1233494590621 r=16.074223231533217 stroke=""none"" stroke-width=""1.5"" fill=""none"" />
    <circle cx=983.6266505409379 cy=540 r=16.074223231533217 stroke=""none"" stroke-width=""1.5"" fill=""none"" />
    <circle cx=1089.75 cy=433.8766505409379 r=16.074223231533217 stroke=""none"" stroke-width=""1.5"" fill=""none"" />
    <polygon points = ""1089.75,540 1094.271598623914,523.9257767684668 1085.228401376086,523.9257767684668"" stroke=""none"" stroke-width=""3"" fill = ""none"" />
    
    </svg>
    </div>
        ","","","","","","","","","","","","get_response","true","VmiyXDDM7SJW0dzN","","","false","true","false","192.75","6","545.032","106.12334945906211","3.29","1","0","","",""
"html-keyboard-response","87","84839","0.0-87.0","","null","null","
    <div style="" display: block;  position: relative;"">
    
    <svg width=1920 height=1080>
    <circle cx=897 cy=540 r=11.251956262073252 stroke=""black"" stroke-width=""1"" fill=""black"" />
    <circle cx=1195.8733494590622 cy=540 r=16.074223231533217 stroke=""none"" stroke-width=""1.5"" fill=""none"" />
    <circle cx=1089.75 cy=646.1233494590621 r=16.074223231533217 stroke=""none"" stroke-width=""1.5"" fill=""none"" />
    <circle cx=983.6266505409379 cy=540 r=16.074223231533217 stroke=""none"" stroke-width=""1.5"" fill=""none"" />
    <circle cx=1089.75 cy=433.8766505409379 r=16.074223231533217 stroke=""none"" stroke-width=""1.5"" fill=""none"" />
    <polygon points = ""1089.75,540 1094.271598623914,523.9257767684668 1085.228401376086,523.9257767684668"" stroke=""none"" stroke-width=""3"" fill = ""none"" />
    
    </svg>
    </div>
        ","","","","","","","","","","","","","","","","","","","","","","","","","","","","",""
"html-keyboard-response","88","84993","0.0-88.0","","null","null","
    <div style="" display: block;  position: relative;"">
    <svg width=1920 height=1080>
    
    <circle cx=897 cy=540 r=11.251956262073252 stroke=""black"" stroke-width=""1"" fill=""black"" />
    <circle cx=704.25 cy=540 r=16.074223231533217 stroke=""black"" stroke-width=""1.5"" fill=""none"" />
    <circle cx=810.3733494590621 cy=540 r=16.074223231533217 stroke=""black"" stroke-width=""1.5"" fill=""none"" />
    <circle cx=704.25 cy=646.1233494590621 r=16.074223231533217 stroke=""black"" stroke-width=""1.5"" fill=""none"" />
    <circle cx=598.1266505409379 cy=540 r=16.074223231533217 stroke=""black"" stroke-width=""1.5"" fill=""none"" />
    <circle cx=704.25 cy=433.8766505409379 r=16.074223231533217 stroke=""black"" stroke-width=""1.5"" fill=""none"" />
    <polygon points = ""704.25,540 708.7715986239141,556.0742232315332 699.7284013760859,556.0742232315332"" stroke=""white"" stroke-width=""3"" fill = ""white"" />
    
    </svg>
    </div>
        ","","","","","","","","","","","","stimulus","","","","","","","","","","","","","","","","",""
"html-keyboard-response","89","85413","0.0-89.0","","419","arrowdown","
    <div style="" display: block;  position: relative;"">
    
    <svg width=1920 height=1080>
    <circle cx=897 cy=540 r=11.251956262073252 stroke=""black"" stroke-width=""1"" fill=""black"" />
    <circle cx=810.3733494590621 cy=540 r=16.074223231533217 stroke=""none"" stroke-width=""1.5"" fill=""none"" />
    <circle cx=704.25 cy=646.1233494590621 r=16.074223231533217 stroke=""none"" stroke-width=""1.5"" fill=""none"" />
    <circle cx=598.1266505409379 cy=540 r=16.074223231533217 stroke=""none"" stroke-width=""1.5"" fill=""none"" />
    <circle cx=704.25 cy=433.8766505409379 r=16.074223231533217 stroke=""none"" stroke-width=""1.5"" fill=""none"" />
    <polygon points = ""704.25,540 708.7715986239141,556.0742232315332 699.7284013760859,556.0742232315332"" stroke=""none"" stroke-width=""3"" fill = ""none"" />
    
    </svg>
    </div>
        ","","","","","","","","","","","","get_response","true","VmiyXDDM7SJW0dzN","","","true","false","false","192.75","6","545.032","106.12334945906211","3.29","1","0","","",""
"html-keyboard-response","90","85917","0.0-90.0","","null","null","
    <div style="" display: block;  position: relative;"">
    
    <svg width=1920 height=1080>
    <circle cx=897 cy=540 r=11.251956262073252 stroke=""black"" stroke-width=""1"" fill=""black"" />
    <circle cx=810.3733494590621 cy=540 r=16.074223231533217 stroke=""none"" stroke-width=""1.5"" fill=""none"" />
    <circle cx=704.25 cy=646.1233494590621 r=16.074223231533217 stroke=""none"" stroke-width=""1.5"" fill=""none"" />
    <circle cx=598.1266505409379 cy=540 r=16.074223231533217 stroke=""none"" stroke-width=""1.5"" fill=""none"" />
    <circle cx=704.25 cy=433.8766505409379 r=16.074223231533217 stroke=""none"" stroke-width=""1.5"" fill=""none"" />
    <polygon points = ""704.25,540 708.7715986239141,556.0742232315332 699.7284013760859,556.0742232315332"" stroke=""none"" stroke-width=""3"" fill = ""none"" />
    
    </svg>
    </div>
        ","","","","","","","","","","","","","","","","","","","","","","","","","","","","",""
"html-keyboard-response","91","86071","0.0-91.0","","null","null","
    <div style="" display: block;  position: relative;"">
    <svg width=1920 height=1080>
    
    <circle cx=897 cy=540 r=11.251956262073252 stroke=""black"" stroke-width=""1"" fill=""black"" />
    <circle cx=1089.75 cy=540 r=16.074223231533217 stroke=""black"" stroke-width=""1.5"" fill=""none"" />
    <circle cx=1186.225772235511 cy=540 r=16.074223231533217 stroke=""black"" stroke-width=""1.5"" fill=""none"" />
    <circle cx=1089.75 cy=636.475772235511 r=16.074223231533217 stroke=""black"" stroke-width=""1.5"" fill=""none"" />
    <circle cx=993.274227764489 cy=540 r=16.074223231533217 stroke=""black"" stroke-width=""1.5"" fill=""none"" />
    <circle cx=1089.75 cy=443.524227764489 r=16.074223231533217 stroke=""black"" stroke-width=""1.5"" fill=""none"" />
    <polygon points = ""1089.75,540 1094.271598623914,556.0742232315332 1085.228401376086,556.0742232315332"" stroke=""white"" stroke-width=""3"" fill = ""white"" />
    
    </svg>
    </div>
        ","","","","","","","","","","","","stimulus","","","","","","","","","","","","","","","","",""
"html-keyboard-response","92","86641","0.0-92.0","","568.4000000059605","arrowdown","
    <div style="" display: block;  position: relative;"">
    
    <svg width=1920 height=1080>
    <circle cx=897 cy=540 r=11.251956262073252 stroke=""black"" stroke-width=""1"" fill=""black"" />
    <circle cx=1186.225772235511 cy=540 r=16.074223231533217 stroke=""none"" stroke-width=""1.5"" fill=""none"" />
    <circle cx=1089.75 cy=636.475772235511 r=16.074223231533217 stroke=""none"" stroke-width=""1.5"" fill=""none"" />
    <circle cx=993.274227764489 cy=540 r=16.074223231533217 stroke=""none"" stroke-width=""1.5"" fill=""none"" />
    <circle cx=1089.75 cy=443.524227764489 r=16.074223231533217 stroke=""none"" stroke-width=""1.5"" fill=""none"" />
    <polygon points = ""1089.75,540 1094.271598623914,556.0742232315332 1085.228401376086,556.0742232315332"" stroke=""none"" stroke-width=""3"" fill = ""none"" />
    
    </svg>
    </div>
        ","","","","","","","","","","","","get_response","true","VmiyXDDM7SJW0dzN","","","false","false","false","192.75","6","545.032","96.475772235511","2.99","1","0","","",""
"html-keyboard-response","93","87143","0.0-93.0","","null","null","
    <div style="" display: block;  position: relative;"">
    
    <svg width=1920 height=1080>
    <circle cx=897 cy=540 r=11.251956262073252 stroke=""black"" stroke-width=""1"" fill=""black"" />
    <circle cx=1186.225772235511 cy=540 r=16.074223231533217 stroke=""none"" stroke-width=""1.5"" fill=""none"" />
    <circle cx=1089.75 cy=636.475772235511 r=16.074223231533217 stroke=""none"" stroke-width=""1.5"" fill=""none"" />
    <circle cx=993.274227764489 cy=540 r=16.074223231533217 stroke=""none"" stroke-width=""1.5"" fill=""none"" />
    <circle cx=1089.75 cy=443.524227764489 r=16.074223231533217 stroke=""none"" stroke-width=""1.5"" fill=""none"" />
    <polygon points = ""1089.75,540 1094.271598623914,556.0742232315332 1085.228401376086,556.0742232315332"" stroke=""none"" stroke-width=""3"" fill = ""none"" />
    
    </svg>
    </div>
        ","","","","","","","","","","","","","","","","","","","","","","","","","","","","",""
"html-keyboard-response","94","87301","0.0-94.0","","null","null","
    <div style="" display: block;  position: relative;"">
    <svg width=1920 height=1080>
    
    <circle cx=897 cy=540 r=11.251956262073252 stroke=""black"" stroke-width=""1"" fill=""black"" />
    <circle cx=1089.75 cy=540 r=16.074223231533217 stroke=""black"" stroke-width=""1.5"" fill=""none"" />
    <circle cx=1177.4552474868283 cy=540 r=16.074223231533217 stroke=""black"" stroke-width=""1.5"" fill=""none"" />
    <circle cx=1089.75 cy=627.7052474868282 r=16.074223231533217 stroke=""black"" stroke-width=""1.5"" fill=""none"" />
    <circle cx=1002.0447525131718 cy=540 r=16.074223231533217 stroke=""black"" stroke-width=""1.5"" fill=""none"" />
    <circle cx=1089.75 cy=452.29475251317183 r=16.074223231533217 stroke=""black"" stroke-width=""1.5"" fill=""none"" />
    <polygon points = ""1089.75,540 1094.271598623914,523.9257767684668 1085.228401376086,523.9257767684668"" stroke=""white"" stroke-width=""3"" fill = ""white"" />
    
    </svg>
    </div>
        ","","","","","","","","","","","","stimulus","","","","","","","","","","","","","","","","",""
"html-keyboard-response","95","87755","0.0-95.0","","452.90000000596046","arrowup","
    <div style="" display: block;  position: relative;"">
    
    <svg width=1920 height=1080>
    <circle cx=897 cy=540 r=11.251956262073252 stroke=""black"" stroke-width=""1"" fill=""black"" />
    <circle cx=1177.4552474868283 cy=540 r=16.074223231533217 stroke=""none"" stroke-width=""1.5"" fill=""none"" />
    <circle cx=1089.75 cy=627.7052474868282 r=16.074223231533217 stroke=""none"" stroke-width=""1.5"" fill=""none"" />
    <circle cx=1002.0447525131718 cy=540 r=16.074223231533217 stroke=""none"" stroke-width=""1.5"" fill=""none"" />
    <circle cx=1089.75 cy=452.29475251317183 r=16.074223231533217 stroke=""none"" stroke-width=""1.5"" fill=""none"" />
    <polygon points = ""1089.75,540 1094.271598623914,523.9257767684668 1085.228401376086,523.9257767684668"" stroke=""none"" stroke-width=""3"" fill = ""none"" />
    
    </svg>
    </div>
        ","","","","","","","","","","","","get_response","true","VmiyXDDM7SJW0dzN","","","false","true","false","192.75","6","545.032","87.70524748682817","2.72","1","0","","",""
"html-keyboard-response","96","88258","0.0-96.0","","null","null","
    <div style="" display: block;  position: relative;"">
    
    <svg width=1920 height=1080>
    <circle cx=897 cy=540 r=11.251956262073252 stroke=""black"" stroke-width=""1"" fill=""black"" />
    <circle cx=1177.4552474868283 cy=540 r=16.074223231533217 stroke=""none"" stroke-width=""1.5"" fill=""none"" />
    <circle cx=1089.75 cy=627.7052474868282 r=16.074223231533217 stroke=""none"" stroke-width=""1.5"" fill=""none"" />
    <circle cx=1002.0447525131718 cy=540 r=16.074223231533217 stroke=""none"" stroke-width=""1.5"" fill=""none"" />
    <circle cx=1089.75 cy=452.29475251317183 r=16.074223231533217 stroke=""none"" stroke-width=""1.5"" fill=""none"" />
    <polygon points = ""1089.75,540 1094.271598623914,523.9257767684668 1085.228401376086,523.9257767684668"" stroke=""none"" stroke-width=""3"" fill = ""none"" />
