"trial_type","trial_index","time_elapsed","internal_node_id","rt","response","success","stimulus","start_time","start_time_unix","item_width_mm","item_height_mm","item_width_px","px2mm","view_dist_mm","item_width_deg","px2deg","win_width_deg","win_height_deg","trialType","correct","participantID","criticalSpacing","criticalSpacing_deg","isLeft","isUp","isEccen4","eccentricity","eccentricity_deg","viewingDistanceMean","critical_spacing","critical_spacing_deg","crowding_session","correctRate","viewDistance_1","viewDistance_2","viewDistance_3"
"pavlovia","0","2","0.0-0.0","","","","","","","","","","","","","","","","","","","","","","","","","","","","","","","","",""
"survey-text","1","9438","0.0-1.0","9415.700000017881","{""Q0"":""""}","","","","","","","","","","","","","","","","","","","","","","","","","","","","","","",""
"fullscreen","2","11899","0.0-2.0","","","true","","","","","","","","","","","","","","","","","","","","","","","","","","","","","",""
"html-keyboard-response","3","13853","0.0-3.0","1952.5999999940395","enter","","<h1>Consent Form</h1>
       <p>By answering the following questions, you are participating in a study being performed by cognitive scientists in the Stanford Department of Psychology. If you have questions about this research, please contact us at stanfordpsych251@gmail.com. You must be at least 18 years old to participate. Your participation in this research is voluntary. You may decline to answer any or all of the following questions. You may decline further participation by closing the window, at any time, without adverse consequences. Your anonymity is assured; the researchers who have requested your participation will not receive any personal information about you.</p>
       <p>Press <b>any key</b> to start the experiment!</p>","","","","","","","","","","","","","","","","","","","","","","","","","","","","",""
"html-keyboard-response","4","15764","0.0-4.0","1911","enter","","<h1>Welcome to the Visual Crowding Experiment!</h1>
       <p>This test will take <b>10-12</b> minutes to complete.</p>
       <p>Press any key to start the experiment!</p>","11/24/2021, 8:29:54 AM","1637735394535","","","","","","","","","","","","","","","","","","","","","","","","","","",""
"html-keyboard-response","5","24621","0.0-5.0","8855.59999999404","arrowdown","","<div> 
<p> Before you begin this study, let&#39;s quickly test how far away you are sitting. You might know that vision tests at a doctor&#39;s practice often involve chinrests, the doctor basically asks you to sit away from a screen in a specific distance. We do this here with a <b>virtual chinrest</b>. </p>
<p> Please press the <b>down</b> arrow to continue.
</p>
</div>","","","","","","","","","","","","","","","","","","","","","","","","","","","","",""
"virtual-chinrest","6","140271","0.0-6.0","115649.10000002384","","","","","","85.6","53.98","382","4.46","382.72","12.761875949688523","29.93290339962311","85.52461369424769","48.10759520301433","","","","","","","","","","","","","","","","","",""
"html-keyboard-response","7","145284","0.0-7.0","5011.300000011921","arrowdown","","
	<h2 class=""bolded-blue"">Now, you will take a peripheral vision test!</h2>
<p> 
	<b>
		<font size=""140%"">1. </font>
	</b>
	<em><b>Please use both eyes for the following task.</b></em> First, you will see a screen (like the one in the image below) showing a <b>black dot</b> in the middle of the screen, with a group of circles displayed on either the <span class=""bolded-blue"">left</span> or <span class=""bolded-blue"">right</span> of the black dot for 150 ms. <span class=""bolded-blue"">Please make sure to focus on the black dot all the time!</span>

	<div>
		<img src=""example.png"" alt=""example"" style=""border: 2px solid black"" width=""600""/> 
	</div>
	
	<b>
		<font size=""140%"">2. </font>
	</b>
	Your task is to identify whether the opening of the <b class=""bolded-blue"">center circle</b> is upward by pressing UP or downward by pressing DOWN on your keyboard. The opening of the circle will only be upward or downward, not towards left or right.

	<div>
		<img src=""arrow_keys+.png"" alt=""arrows"" style=""border: 2px solid black"" width=""600""/>
	</div>
	<br>

<p>Please press the <b>down</b> arrow key to start the <span class=""bolded-blue"">practice task</span> (this first practice task will not count toward your final results).</p>
</p>
","","","","","","","","","","","","","","","","","","","","","","","","","","","","",""
"html-keyboard-response","8","145786","0.0-8.0","null","null","","
    <div style="" display: block;  position: relative;"">
    
    <svg width=2560 height=1440>
    <circle cx=1217 cy=720 r=10.308143104398608 stroke=""black"" stroke-width=""1"" fill=""black"" />
    <circle cx=NaN cy=720 r=14.725918720569442 stroke=""none"" stroke-width=""1.5"" fill=""none"" />
    <circle cx=1099.04 cy=NaN r=14.725918720569442 stroke=""none"" stroke-width=""1.5"" fill=""none"" />
    <circle cx=NaN cy=720 r=14.725918720569442 stroke=""none"" stroke-width=""1.5"" fill=""none"" />
    <circle cx=1099.04 cy=NaN r=14.725918720569442 stroke=""none"" stroke-width=""1.5"" fill=""none"" />
    <polygon points = ""1099.04,720 1103.1823273065027,734.7259187205694 1094.8976726934973,734.7259187205694"" stroke=""none"" stroke-width=""3"" fill = ""none"" />
    
    </svg>
    </div>
        ","","","","","","","","","","","","","","","","","","","","","","","","","","","","",""
"html-keyboard-response","9","145938","0.0-9.0","null","null","","
    <div style="" display: block;  position: relative;"">
    <svg width=2560 height=1440>
    
    <circle cx=1217 cy=720 r=10.308143104398608 stroke=""black"" stroke-width=""1"" fill=""black"" />
    <circle cx=1099.04 cy=720 r=14.725918720569442 stroke=""black"" stroke-width=""1.5"" fill=""none"" />
    <circle cx=1175.714 cy=720 r=14.725918720569442 stroke=""black"" stroke-width=""1.5"" fill=""none"" />
    <circle cx=1099.04 cy=796.674 r=14.725918720569442 stroke=""black"" stroke-width=""1.5"" fill=""none"" />
    <circle cx=1022.366 cy=720 r=14.725918720569442 stroke=""black"" stroke-width=""1.5"" fill=""none"" />
    <circle cx=1099.04 cy=643.326 r=14.725918720569442 stroke=""black"" stroke-width=""1.5"" fill=""none"" />
    <polygon points = ""1099.04,720 1103.1823273065027,705.2740812794306 1094.8976726934973,705.2740812794306"" stroke=""white"" stroke-width=""3"" fill = ""white"" />
    
    </svg>
    </div>
        ","","","","","","","","","","","","stimulus","","","","","","","","","","","","","","","","",""
"html-keyboard-response","10","147564","0.0-10.0","1624.7000000178814","arrowdown","","
    <div style="" display: block;  position: relative;"">
    
    <svg width=2560 height=1440>
    <circle cx=1217 cy=720 r=10.308143104398608 stroke=""black"" stroke-width=""1"" fill=""black"" />
    <circle cx=1175.714 cy=720 r=14.725918720569442 stroke=""none"" stroke-width=""1.5"" fill=""none"" />
    <circle cx=1099.04 cy=796.674 r=14.725918720569442 stroke=""none"" stroke-width=""1.5"" fill=""none"" />
    <circle cx=1022.366 cy=720 r=14.725918720569442 stroke=""none"" stroke-width=""1.5"" fill=""none"" />
    <circle cx=1099.04 cy=643.326 r=14.725918720569442 stroke=""none"" stroke-width=""1.5"" fill=""none"" />
    <polygon points = ""1099.04,720 1103.1823273065027,705.2740812794306 1094.8976726934973,705.2740812794306"" stroke=""none"" stroke-width=""3"" fill = ""none"" />
    
    </svg>
    </div>
        ","","","","","","","","","","","","practice_get_response","false","mAEaXGQIFClNRuQ4","76.67399999999999","2.6","true","true","true","117.96","4","379.524","","","","","","",""
"html-keyboard-response","11","148066","0.0-11.0","null","null","","
    <div style="" display: block;  position: relative;"">
    
    <svg width=2560 height=1440>
    <circle cx=1217 cy=720 r=10.308143104398608 stroke=""black"" stroke-width=""1"" fill=""black"" />
    <circle cx=1175.714 cy=720 r=14.725918720569442 stroke=""none"" stroke-width=""1.5"" fill=""none"" />
    <circle cx=1099.04 cy=796.674 r=14.725918720569442 stroke=""none"" stroke-width=""1.5"" fill=""none"" />
    <circle cx=1022.366 cy=720 r=14.725918720569442 stroke=""none"" stroke-width=""1.5"" fill=""none"" />
    <circle cx=1099.04 cy=643.326 r=14.725918720569442 stroke=""none"" stroke-width=""1.5"" fill=""none"" />
    <polygon points = ""1099.04,720 1103.1823273065027,705.2740812794306 1094.8976726934973,705.2740812794306"" stroke=""none"" stroke-width=""3"" fill = ""none"" />
    
    </svg>
    </div>
        ","","","","","","","","","","","","","","","","","","","","","","","","","","","","",""
"html-keyboard-response","12","148218","0.0-12.0","null","null","","
    <div style="" display: block;  position: relative;"">
    <svg width=2560 height=1440>
    
    <circle cx=1217 cy=720 r=10.308143104398608 stroke=""black"" stroke-width=""1"" fill=""black"" />
    <circle cx=1334.96 cy=720 r=14.725918720569442 stroke=""black"" stroke-width=""1.5"" fill=""none"" />
    <circle cx=1423.4681625588612 cy=720 r=14.725918720569442 stroke=""black"" stroke-width=""1.5"" fill=""none"" />
    <circle cx=1334.96 cy=808.5081625588612 r=14.725918720569442 stroke=""black"" stroke-width=""1.5"" fill=""none"" />
    <circle cx=1246.4518374411389 cy=720 r=14.725918720569442 stroke=""black"" stroke-width=""1.5"" fill=""none"" />
    <circle cx=1334.96 cy=631.4918374411388 r=14.725918720569442 stroke=""black"" stroke-width=""1.5"" fill=""none"" />
    <polygon points = ""1334.96,720 1339.1023273065027,705.2740812794306 1330.8176726934973,705.2740812794306"" stroke=""white"" stroke-width=""3"" fill = ""white"" />
    
    </svg>
    </div>
        ","","","","","","","","","","","","stimulus","","","","","","","","","","","","","","","","",""
"html-keyboard-response","13","148380","0.0-13.0","160.90000000596046","arrowup","","
    <div style="" display: block;  position: relative;"">
    
    <svg width=2560 height=1440>
    <circle cx=1217 cy=720 r=10.308143104398608 stroke=""black"" stroke-width=""1"" fill=""black"" />
    <circle cx=1423.4681625588612 cy=720 r=14.725918720569442 stroke=""none"" stroke-width=""1.5"" fill=""none"" />
    <circle cx=1334.96 cy=808.5081625588612 r=14.725918720569442 stroke=""none"" stroke-width=""1.5"" fill=""none"" />
    <circle cx=1246.4518374411389 cy=720 r=14.725918720569442 stroke=""none"" stroke-width=""1.5"" fill=""none"" />
    <circle cx=1334.96 cy=631.4918374411388 r=14.725918720569442 stroke=""none"" stroke-width=""1.5"" fill=""none"" />
    <polygon points = ""1334.96,720 1339.1023273065027,705.2740812794306 1330.8176726934973,705.2740812794306"" stroke=""none"" stroke-width=""3"" fill = ""none"" />
    
    </svg>
    </div>
        ","","","","","","","","","","","","practice_get_response","true","mAEaXGQIFClNRuQ4","88.5081625588611","3","false","true","true","117.96","4","379.524","","","","","","",""
"html-keyboard-response","14","148732","0.0-14.0","351.30000001192093","arrowright","","
    <div style="" display: block;  position: relative;"">
    
    <svg width=2560 height=1440>
    <circle cx=1217 cy=720 r=10.308143104398608 stroke=""black"" stroke-width=""1"" fill=""black"" />
    <circle cx=1423.4681625588612 cy=720 r=14.725918720569442 stroke=""none"" stroke-width=""1.5"" fill=""none"" />
    <circle cx=1334.96 cy=808.5081625588612 r=14.725918720569442 stroke=""none"" stroke-width=""1.5"" fill=""none"" />
    <circle cx=1246.4518374411389 cy=720 r=14.725918720569442 stroke=""none"" stroke-width=""1.5"" fill=""none"" />
    <circle cx=1334.96 cy=631.4918374411388 r=14.725918720569442 stroke=""none"" stroke-width=""1.5"" fill=""none"" />
    <polygon points = ""1334.96,720 1339.1023273065027,705.2740812794306 1330.8176726934973,705.2740812794306"" stroke=""none"" stroke-width=""3"" fill = ""none"" />
    
    </svg>
    </div>
        ","","","","","","","","","","","","","","","","","","","","","","","","","","","","",""
"html-keyboard-response","15","148895","0.0-15.0","null","null","","
    <div style="" display: block;  position: relative;"">
    <svg width=2560 height=1440>
    
    <circle cx=1217 cy=720 r=10.308143104398608 stroke=""black"" stroke-width=""1"" fill=""black"" />
    <circle cx=1334.96 cy=720 r=14.725918720569442 stroke=""black"" stroke-width=""1.5"" fill=""none"" />
    <circle cx=1423.4681625588612 cy=720 r=14.725918720569442 stroke=""black"" stroke-width=""1.5"" fill=""none"" />
    <circle cx=1334.96 cy=808.5081625588612 r=14.725918720569442 stroke=""black"" stroke-width=""1.5"" fill=""none"" />
    <circle cx=1246.4518374411389 cy=720 r=14.725918720569442 stroke=""black"" stroke-width=""1.5"" fill=""none"" />
    <circle cx=1334.96 cy=631.4918374411388 r=14.725918720569442 stroke=""black"" stroke-width=""1.5"" fill=""none"" />
    <polygon points = ""1334.96,720 1339.1023273065027,734.7259187205694 1330.8176726934973,734.7259187205694"" stroke=""white"" stroke-width=""3"" fill = ""white"" />
    
    </svg>
    </div>
        ","","","","","","","","","","","","stimulus","","","","","","","","","","","","","","","","",""
"html-keyboard-response","16","155548","0.0-16.0","6652.299999982119","arrowdown","","
    <div style="" display: block;  position: relative;"">
    
    <svg width=2560 height=1440>
    <circle cx=1217 cy=720 r=10.308143104398608 stroke=""black"" stroke-width=""1"" fill=""black"" />
    <circle cx=1423.4681625588612 cy=720 r=14.725918720569442 stroke=""none"" stroke-width=""1.5"" fill=""none"" />
    <circle cx=1334.96 cy=808.5081625588612 r=14.725918720569442 stroke=""none"" stroke-width=""1.5"" fill=""none"" />
    <circle cx=1246.4518374411389 cy=720 r=14.725918720569442 stroke=""none"" stroke-width=""1.5"" fill=""none"" />
    <circle cx=1334.96 cy=631.4918374411388 r=14.725918720569442 stroke=""none"" stroke-width=""1.5"" fill=""none"" />
    <polygon points = ""1334.96,720 1339.1023273065027,734.7259187205694 1330.8176726934973,734.7259187205694"" stroke=""none"" stroke-width=""3"" fill = ""none"" />
    
    </svg>
    </div>
        ","","","","","","","","","","","","practice_get_response","true","mAEaXGQIFClNRuQ4","88.5081625588611","3","false","false","true","117.96","4","379.524","","","","","","",""
"html-keyboard-response","17","156050","0.0-17.0","null","null","","
    <div style="" display: block;  position: relative;"">
    
    <svg width=2560 height=1440>
    <circle cx=1217 cy=720 r=10.308143104398608 stroke=""black"" stroke-width=""1"" fill=""black"" />
    <circle cx=1423.4681625588612 cy=720 r=14.725918720569442 stroke=""none"" stroke-width=""1.5"" fill=""none"" />
    <circle cx=1334.96 cy=808.5081625588612 r=14.725918720569442 stroke=""none"" stroke-width=""1.5"" fill=""none"" />
    <circle cx=1246.4518374411389 cy=720 r=14.725918720569442 stroke=""none"" stroke-width=""1.5"" fill=""none"" />
    <circle cx=1334.96 cy=631.4918374411388 r=14.725918720569442 stroke=""none"" stroke-width=""1.5"" fill=""none"" />
    <polygon points = ""1334.96,720 1339.1023273065027,734.7259187205694 1330.8176726934973,734.7259187205694"" stroke=""none"" stroke-width=""3"" fill = ""none"" />
    
    </svg>
    </div>
        ","","","","","","","","","","","","","","","","","","","","","","","","","","","","",""
"html-keyboard-response","18","156206","0.0-18.0","null","null","","
    <div style="" display: block;  position: relative;"">
    <svg width=2560 height=1440>
    
    <circle cx=1217 cy=720 r=10.308143104398608 stroke=""black"" stroke-width=""1"" fill=""black"" />
    <circle cx=1099.04 cy=720 r=14.725918720569442 stroke=""black"" stroke-width=""1.5"" fill=""none"" />
    <circle cx=1187.5481625588611 cy=720 r=14.725918720569442 stroke=""black"" stroke-width=""1.5"" fill=""none"" />
    <circle cx=1099.04 cy=808.5081625588612 r=14.725918720569442 stroke=""black"" stroke-width=""1.5"" fill=""none"" />
    <circle cx=1010.5318374411388 cy=720 r=14.725918720569442 stroke=""black"" stroke-width=""1.5"" fill=""none"" />
    <circle cx=1099.04 cy=631.4918374411388 r=14.725918720569442 stroke=""black"" stroke-width=""1.5"" fill=""none"" />
    <polygon points = ""1099.04,720 1103.1823273065027,705.2740812794306 1094.8976726934973,705.2740812794306"" stroke=""white"" stroke-width=""3"" fill = ""white"" />
    
    </svg>
    </div>
        ","","","","","","","","","","","","stimulus","","","","","","","","","","","","","","","","",""
"html-keyboard-response","19","157988","0.0-19.0","1780.699999988079","arrowup","","
    <div style="" display: block;  position: relative;"">
    
    <svg width=2560 height=1440>
    <circle cx=1217 cy=720 r=10.308143104398608 stroke=""black"" stroke-width=""1"" fill=""black"" />
    <circle cx=1187.5481625588611 cy=720 r=14.725918720569442 stroke=""none"" stroke-width=""1.5"" fill=""none"" />
    <circle cx=1099.04 cy=808.5081625588612 r=14.725918720569442 stroke=""none"" stroke-width=""1.5"" fill=""none"" />
    <circle cx=1010.5318374411388 cy=720 r=14.725918720569442 stroke=""none"" stroke-width=""1.5"" fill=""none"" />
    <circle cx=1099.04 cy=631.4918374411388 r=14.725918720569442 stroke=""none"" stroke-width=""1.5"" fill=""none"" />
    <polygon points = ""1099.04,720 1103.1823273065027,705.2740812794306 1094.8976726934973,705.2740812794306"" stroke=""none"" stroke-width=""3"" fill = ""none"" />
    
    </svg>
    </div>
        ","","","","","","","","","","","","practice_get_response","true","mAEaXGQIFClNRuQ4","88.5081625588611","3","true","true","true","117.96","4","379.524","","","","","","",""
"html-keyboard-response","20","158436","0.0-20.0","447.5","arrowdown","","
    <div style="" display: block;  position: relative;"">
    
    <svg width=2560 height=1440>
    <circle cx=1217 cy=720 r=10.308143104398608 stroke=""black"" stroke-width=""1"" fill=""black"" />
    <circle cx=1187.5481625588611 cy=720 r=14.725918720569442 stroke=""none"" stroke-width=""1.5"" fill=""none"" />
    <circle cx=1099.04 cy=808.5081625588612 r=14.725918720569442 stroke=""none"" stroke-width=""1.5"" fill=""none"" />
    <circle cx=1010.5318374411388 cy=720 r=14.725918720569442 stroke=""none"" stroke-width=""1.5"" fill=""none"" />
    <circle cx=1099.04 cy=631.4918374411388 r=14.725918720569442 stroke=""none"" stroke-width=""1.5"" fill=""none"" />
    <polygon points = ""1099.04,720 1103.1823273065027,705.2740812794306 1094.8976726934973,705.2740812794306"" stroke=""none"" stroke-width=""3"" fill = ""none"" />
    
    </svg>
    </div>
        ","","","","","","","","","","","","","","","","","","","","","","","","","","","","",""
"html-keyboard-response","21","158588","0.0-21.0","null","null","","
    <div style="" display: block;  position: relative;"">
    <svg width=2560 height=1440>
    
    <circle cx=1217 cy=720 r=10.308143104398608 stroke=""black"" stroke-width=""1"" fill=""black"" />
    <circle cx=1099.04 cy=720 r=14.725918720569442 stroke=""black"" stroke-width=""1.5"" fill=""none"" />
    <circle cx=1179.501965962601 cy=720 r=14.725918720569442 stroke=""black"" stroke-width=""1.5"" fill=""none"" />
    <circle cx=1099.04 cy=800.461965962601 r=14.725918720569442 stroke=""black"" stroke-width=""1.5"" fill=""none"" />
    <circle cx=1018.578034037399 cy=720 r=14.725918720569442 stroke=""black"" stroke-width=""1.5"" fill=""none"" />
    <circle cx=1099.04 cy=639.538034037399 r=14.725918720569442 stroke=""black"" stroke-width=""1.5"" fill=""none"" />
    <polygon points = ""1099.04,720 1103.1823273065027,705.2740812794306 1094.8976726934973,705.2740812794306"" stroke=""white"" stroke-width=""3"" fill = ""white"" />
    
    </svg>
    </div>
        ","","","","","","","","","","","","stimulus","","","","","","","","","","","","","","","","",""
"html-keyboard-response","22","160844","0.0-22.0","2255.300000011921","arrowdown","","
    <div style="" display: block;  position: relative;"">
    
    <svg width=2560 height=1440>
    <circle cx=1217 cy=720 r=10.308143104398608 stroke=""black"" stroke-width=""1"" fill=""black"" />
    <circle cx=1179.501965962601 cy=720 r=14.725918720569442 stroke=""none"" stroke-width=""1.5"" fill=""none"" />
    <circle cx=1099.04 cy=800.461965962601 r=14.725918720569442 stroke=""none"" stroke-width=""1.5"" fill=""none"" />
    <circle cx=1018.578034037399 cy=720 r=14.725918720569442 stroke=""none"" stroke-width=""1.5"" fill=""none"" />
    <circle cx=1099.04 cy=639.538034037399 r=14.725918720569442 stroke=""none"" stroke-width=""1.5"" fill=""none"" />
    <polygon points = ""1099.04,720 1103.1823273065027,705.2740812794306 1094.8976726934973,705.2740812794306"" stroke=""none"" stroke-width=""3"" fill = ""none"" />
    
    </svg>
    </div>
        ","","","","","","","","","","","","practice_get_response","false","mAEaXGQIFClNRuQ4","80.461965962601","2.73","true","true","true","117.96","4","379.524","","","","","","",""
"html-keyboard-response","23","166284","0.0-23.0","5439.199999988079","arrowdown","","<div> 
<h2 class=""bolded-blue"">Well done!</h2>
<p> Now that you have the hang of it, we&#39;ll start the study. This session has 25 trials and takes about 2 minute to complete. </p> 
<p>If you are ready for the real deal, please press the <b>down</b> arrow to continue.
</p>
</div>","","","","","","","","","","","","","","","","","","","","","","","","","","","","",""
"html-keyboard-response","24","183124","0.0-24.0","16839.40000000596","arrowdown","","<div id=""continue""> 
<p>Again, please keep the <b>full screen</b> mode for the best experience.</p>
<p>Please do not move around and keep your eye on the black dot. Click <b>up</b> or <b>down</b> key on your keyboard to indicate the opening of the center circle. Make your best guess!</p>
<p>Please press the <b>down</b> arrow key to start the session 1. </p>
</div>","","","","","","","","","","","","","","","","","","","","","","","","","","","","",""
"html-keyboard-response","25","183625","0.0-25.0","null","null","","
    <div style="" display: block;  position: relative;"">
    
    <svg width=2560 height=1440>
    <circle cx=1217 cy=720 r=10.308143104398608 stroke=""black"" stroke-width=""1"" fill=""black"" />
    <circle cx=1179.501965962601 cy=720 r=14.725918720569442 stroke=""none"" stroke-width=""1.5"" fill=""none"" />
    <circle cx=1099.04 cy=800.461965962601 r=14.725918720569442 stroke=""none"" stroke-width=""1.5"" fill=""none"" />
    <circle cx=1018.578034037399 cy=720 r=14.725918720569442 stroke=""none"" stroke-width=""1.5"" fill=""none"" />
    <circle cx=1099.04 cy=639.538034037399 r=14.725918720569442 stroke=""none"" stroke-width=""1.5"" fill=""none"" />
    <polygon points = ""1099.04,720 1103.1823273065027,734.7259187205694 1094.8976726934973,734.7259187205694"" stroke=""none"" stroke-width=""3"" fill = ""none"" />
    
    </svg>
    </div>
        ","","","","","","","","","","","","","","","","","","","","","","","","","","","","",""
"html-keyboard-response","26","183776","0.0-26.0","null","null","","
    <div style="" display: block;  position: relative;"">
    <svg width=2560 height=1440>
    
    <circle cx=1217 cy=720 r=10.308143104398608 stroke=""black"" stroke-width=""1"" fill=""black"" />
    <circle cx=1334.96 cy=720 r=14.725918720569442 stroke=""black"" stroke-width=""1.5"" fill=""none"" />
    <circle cx=1411.634 cy=720 r=14.725918720569442 stroke=""black"" stroke-width=""1.5"" fill=""none"" />
    <circle cx=1334.96 cy=796.674 r=14.725918720569442 stroke=""black"" stroke-width=""1.5"" fill=""none"" />
    <circle cx=1258.286 cy=720 r=14.725918720569442 stroke=""black"" stroke-width=""1.5"" fill=""none"" />
    <circle cx=1334.96 cy=643.326 r=14.725918720569442 stroke=""black"" stroke-width=""1.5"" fill=""none"" />
    <polygon points = ""1334.96,720 1339.1023273065027,705.2740812794306 1330.8176726934973,705.2740812794306"" stroke=""white"" stroke-width=""3"" fill = ""white"" />
    
    </svg>
    </div>
        ","","","","","","","","","","","","stimulus","","","","","","","","","","","","","","","","",""
"html-keyboard-response","27","184164","0.0-27.0","387","arrowup","","
    <div style="" display: block;  position: relative;"">
    
    <svg width=2560 height=1440>
    <circle cx=1217 cy=720 r=10.308143104398608 stroke=""black"" stroke-width=""1"" fill=""black"" />
    <circle cx=1411.634 cy=720 r=14.725918720569442 stroke=""none"" stroke-width=""1.5"" fill=""none"" />
    <circle cx=1334.96 cy=796.674 r=14.725918720569442 stroke=""none"" stroke-width=""1.5"" fill=""none"" />
    <circle cx=1258.286 cy=720 r=14.725918720569442 stroke=""none"" stroke-width=""1.5"" fill=""none"" />
    <circle cx=1334.96 cy=643.326 r=14.725918720569442 stroke=""none"" stroke-width=""1.5"" fill=""none"" />
    <polygon points = ""1334.96,720 1339.1023273065027,705.2740812794306 1330.8176726934973,705.2740812794306"" stroke=""none"" stroke-width=""3"" fill = ""none"" />
    
    </svg>
    </div>
        ","","","","","","","","","","","","get_response","true","mAEaXGQIFClNRuQ4","","","false","true","true","117.96","4","379.524","76.67399999999999","2.6","1","0","","",""
"html-keyboard-response","28","184665","0.0-28.0","null","null","","
    <div style="" display: block;  position: relative;"">
    
    <svg width=2560 height=1440>
    <circle cx=1217 cy=720 r=10.308143104398608 stroke=""black"" stroke-width=""1"" fill=""black"" />
    <circle cx=1411.634 cy=720 r=14.725918720569442 stroke=""none"" stroke-width=""1.5"" fill=""none"" />
    <circle cx=1334.96 cy=796.674 r=14.725918720569442 stroke=""none"" stroke-width=""1.5"" fill=""none"" />
    <circle cx=1258.286 cy=720 r=14.725918720569442 stroke=""none"" stroke-width=""1.5"" fill=""none"" />
    <circle cx=1334.96 cy=643.326 r=14.725918720569442 stroke=""none"" stroke-width=""1.5"" fill=""none"" />
    <polygon points = ""1334.96,720 1339.1023273065027,705.2740812794306 1330.8176726934973,705.2740812794306"" stroke=""none"" stroke-width=""3"" fill = ""none"" />
    
    </svg>
    </div>
        ","","","","","","","","","","","","","","","","","","","","","","","","","","","","",""
"html-keyboard-response","29","184818","0.0-29.0","null","null","","
    <div style="" display: block;  position: relative;"">
    <svg width=2560 height=1440>
    
    <circle cx=1217 cy=720 r=10.308143104398608 stroke=""black"" stroke-width=""1"" fill=""black"" />
    <circle cx=1099.04 cy=720 r=14.725918720569442 stroke=""black"" stroke-width=""1.5"" fill=""none"" />
    <circle cx=1175.714 cy=720 r=14.725918720569442 stroke=""black"" stroke-width=""1.5"" fill=""none"" />
    <circle cx=1099.04 cy=796.674 r=14.725918720569442 stroke=""black"" stroke-width=""1.5"" fill=""none"" />
    <circle cx=1022.366 cy=720 r=14.725918720569442 stroke=""black"" stroke-width=""1.5"" fill=""none"" />
    <circle cx=1099.04 cy=643.326 r=14.725918720569442 stroke=""black"" stroke-width=""1.5"" fill=""none"" />
    <polygon points = ""1099.04,720 1103.1823273065027,705.2740812794306 1094.8976726934973,705.2740812794306"" stroke=""white"" stroke-width=""3"" fill = ""white"" />
    
    </svg>
    </div>
        ","","","","","","","","","","","","stimulus","","","","","","","","","","","","","","","","",""
"html-keyboard-response","30","187468","0.0-30.0","2648.899999976158","arrowdown","","
    <div style="" display: block;  position: relative;"">
    
    <svg width=2560 height=1440>
    <circle cx=1217 cy=720 r=10.308143104398608 stroke=""black"" stroke-width=""1"" fill=""black"" />
    <circle cx=1175.714 cy=720 r=14.725918720569442 stroke=""none"" stroke-width=""1.5"" fill=""none"" />
    <circle cx=1099.04 cy=796.674 r=14.725918720569442 stroke=""none"" stroke-width=""1.5"" fill=""none"" />
    <circle cx=1022.366 cy=720 r=14.725918720569442 stroke=""none"" stroke-width=""1.5"" fill=""none"" />
    <circle cx=1099.04 cy=643.326 r=14.725918720569442 stroke=""none"" stroke-width=""1.5"" fill=""none"" />
    <polygon points = ""1099.04,720 1103.1823273065027,705.2740812794306 1094.8976726934973,705.2740812794306"" stroke=""none"" stroke-width=""3"" fill = ""none"" />
    
    </svg>
    </div>
        ","","","","","","","","","","","","get_response","false","mAEaXGQIFClNRuQ4","","","true","true","true","117.96","4","379.524","76.67399999999999","2.6","1","0","","",""
"html-keyboard-response","31","187900","0.0-31.0","431","arrowup","","
    <div style="" display: block;  position: relative;"">
    
    <svg width=2560 height=1440>
    <circle cx=1217 cy=720 r=10.308143104398608 stroke=""black"" stroke-width=""1"" fill=""black"" />
    <circle cx=1175.714 cy=720 r=14.725918720569442 stroke=""none"" stroke-width=""1.5"" fill=""none"" />
    <circle cx=1099.04 cy=796.674 r=14.725918720569442 stroke=""none"" stroke-width=""1.5"" fill=""none"" />
    <circle cx=1022.366 cy=720 r=14.725918720569442 stroke=""none"" stroke-width=""1.5"" fill=""none"" />
    <circle cx=1099.04 cy=643.326 r=14.725918720569442 stroke=""none"" stroke-width=""1.5"" fill=""none"" />
    <polygon points = ""1099.04,720 1103.1823273065027,705.2740812794306 1094.8976726934973,705.2740812794306"" stroke=""none"" stroke-width=""3"" fill = ""none"" />
    
    </svg>
    </div>
        ","","","","","","","","","","","","","","","","","","","","","","","","","","","","",""
"html-keyboard-response","32","188051","0.0-32.0","null","null","","
    <div style="" display: block;  position: relative;"">
    <svg width=2560 height=1440>
    
    <circle cx=1217 cy=720 r=10.308143104398608 stroke=""black"" stroke-width=""1"" fill=""black"" />
    <circle cx=1334.96 cy=720 r=14.725918720569442 stroke=""black"" stroke-width=""1.5"" fill=""none"" />
    <circle cx=1423.4681625588612 cy=720 r=14.725918720569442 stroke=""black"" stroke-width=""1.5"" fill=""none"" />
    <circle cx=1334.96 cy=808.5081625588612 r=14.725918720569442 stroke=""black"" stroke-width=""1.5"" fill=""none"" />
    <circle cx=1246.4518374411389 cy=720 r=14.725918720569442 stroke=""black"" stroke-width=""1.5"" fill=""none"" />
    <circle cx=1334.96 cy=631.4918374411388 r=14.725918720569442 stroke=""black"" stroke-width=""1.5"" fill=""none"" />
    <polygon points = ""1334.96,720 1339.1023273065027,705.2740812794306 1330.8176726934973,705.2740812794306"" stroke=""white"" stroke-width=""3"" fill = ""white"" />
    
    </svg>
    </div>
        ","","","","","","","","","","","","stimulus","","","","","","","","","","","","","","","","",""
"html-keyboard-response","33","188404","0.0-33.0","351.80000001192093","arrowup","","
    <div style="" display: block;  position: relative;"">
    
    <svg width=2560 height=1440>
    <circle cx=1217 cy=720 r=10.308143104398608 stroke=""black"" stroke-width=""1"" fill=""black"" />
    <circle cx=1423.4681625588612 cy=720 r=14.725918720569442 stroke=""none"" stroke-width=""1.5"" fill=""none"" />
    <circle cx=1334.96 cy=808.5081625588612 r=14.725918720569442 stroke=""none"" stroke-width=""1.5"" fill=""none"" />
    <circle cx=1246.4518374411389 cy=720 r=14.725918720569442 stroke=""none"" stroke-width=""1.5"" fill=""none"" />
    <circle cx=1334.96 cy=631.4918374411388 r=14.725918720569442 stroke=""none"" stroke-width=""1.5"" fill=""none"" />
    <polygon points = ""1334.96,720 1339.1023273065027,705.2740812794306 1330.8176726934973,705.2740812794306"" stroke=""none"" stroke-width=""3"" fill = ""none"" />
    
    </svg>
    </div>
        ","","","","","","","","","","","","get_response","true","mAEaXGQIFClNRuQ4","","","false","true","true","117.96","4","379.524","88.5081625588611","3","1","0","","",""
"html-keyboard-response","34","188644","0.0-34.0","239.10000002384186","arrowright","","
    <div style="" display: block;  position: relative;"">
    
    <svg width=2560 height=1440>
    <circle cx=1217 cy=720 r=10.308143104398608 stroke=""black"" stroke-width=""1"" fill=""black"" />
    <circle cx=1423.4681625588612 cy=720 r=14.725918720569442 stroke=""none"" stroke-width=""1.5"" fill=""none"" />
    <circle cx=1334.96 cy=808.5081625588612 r=14.725918720569442 stroke=""none"" stroke-width=""1.5"" fill=""none"" />
    <circle cx=1246.4518374411389 cy=720 r=14.725918720569442 stroke=""none"" stroke-width=""1.5"" fill=""none"" />
    <circle cx=1334.96 cy=631.4918374411388 r=14.725918720569442 stroke=""none"" stroke-width=""1.5"" fill=""none"" />
    <polygon points = ""1334.96,720 1339.1023273065027,705.2740812794306 1330.8176726934973,705.2740812794306"" stroke=""none"" stroke-width=""3"" fill = ""none"" />
    
    </svg>
    </div>
        ","","","","","","","","","","","","","","","","","","","","","","","","","","","","",""
"html-keyboard-response","35","188796","0.0-35.0","null","null","","
    <div style="" display: block;  position: relative;"">
    <svg width=2560 height=1440>
    
    <circle cx=1217 cy=720 r=10.308143104398608 stroke=""black"" stroke-width=""1"" fill=""black"" />
    <circle cx=1099.04 cy=720 r=14.725918720569442 stroke=""black"" stroke-width=""1.5"" fill=""none"" />
    <circle cx=1187.5481625588611 cy=720 r=14.725918720569442 stroke=""black"" stroke-width=""1.5"" fill=""none"" />
    <circle cx=1099.04 cy=808.5081625588612 r=14.725918720569442 stroke=""black"" stroke-width=""1.5"" fill=""none"" />
    <circle cx=1010.5318374411388 cy=720 r=14.725918720569442 stroke=""black"" stroke-width=""1.5"" fill=""none"" />
    <circle cx=1099.04 cy=631.4918374411388 r=14.725918720569442 stroke=""black"" stroke-width=""1.5"" fill=""none"" />
    <polygon points = ""1099.04,720 1103.1823273065027,705.2740812794306 1094.8976726934973,705.2740812794306"" stroke=""white"" stroke-width=""3"" fill = ""white"" />
    
    </svg>
    </div>
        ","","","","","","","","","","","","stimulus","","","","","","","","","","","","","","","","",""
"html-keyboard-response","36","190140","0.0-36.0","1342.800000011921","arrowdown","","
    <div style="" display: block;  position: relative;"">
    
    <svg width=2560 height=1440>
    <circle cx=1217 cy=720 r=10.308143104398608 stroke=""black"" stroke-width=""1"" fill=""black"" />
    <circle cx=1187.5481625588611 cy=720 r=14.725918720569442 stroke=""none"" stroke-width=""1.5"" fill=""none"" />
    <circle cx=1099.04 cy=808.5081625588612 r=14.725918720569442 stroke=""none"" stroke-width=""1.5"" fill=""none"" />
    <circle cx=1010.5318374411388 cy=720 r=14.725918720569442 stroke=""none"" stroke-width=""1.5"" fill=""none"" />
    <circle cx=1099.04 cy=631.4918374411388 r=14.725918720569442 stroke=""none"" stroke-width=""1.5"" fill=""none"" />
    <polygon points = ""1099.04,720 1103.1823273065027,705.2740812794306 1094.8976726934973,705.2740812794306"" stroke=""none"" stroke-width=""3"" fill = ""none"" />
    
    </svg>
    </div>
        ","","","","","","","","","","","","get_response","false","mAEaXGQIFClNRuQ4","","","true","true","true","117.96","4","379.524","88.5081625588611","3","1","0","","",""
"html-keyboard-response","37","190612","0.0-37.0","471.7000000178814","arrowup","","
    <div style="" display: block;  position: relative;"">
    
    <svg width=2560 height=1440>
    <circle cx=1217 cy=720 r=10.308143104398608 stroke=""black"" stroke-width=""1"" fill=""black"" />
    <circle cx=1187.5481625588611 cy=720 r=14.725918720569442 stroke=""none"" stroke-width=""1.5"" fill=""none"" />
    <circle cx=1099.04 cy=808.5081625588612 r=14.725918720569442 stroke=""none"" stroke-width=""1.5"" fill=""none"" />
    <circle cx=1010.5318374411388 cy=720 r=14.725918720569442 stroke=""none"" stroke-width=""1.5"" fill=""none"" />
    <circle cx=1099.04 cy=631.4918374411388 r=14.725918720569442 stroke=""none"" stroke-width=""1.5"" fill=""none"" />
    <polygon points = ""1099.04,720 1103.1823273065027,705.2740812794306 1094.8976726934973,705.2740812794306"" stroke=""none"" stroke-width=""3"" fill = ""none"" />
    
    </svg>
    </div>
        ","","","","","","","","","","","","","","","","","","","","","","","","","","","","",""
"html-keyboard-response","38","190764","0.0-38.0","null","null","","
    <div style="" display: block;  position: relative;"">
    <svg width=2560 height=1440>
    
    <circle cx=1217 cy=720 r=10.308143104398608 stroke=""black"" stroke-width=""1"" fill=""black"" />
    <circle cx=1334.96 cy=720 r=14.725918720569442 stroke=""black"" stroke-width=""1.5"" fill=""none"" />
    <circle cx=1423.4681625588612 cy=720 r=14.725918720569442 stroke=""black"" stroke-width=""1.5"" fill=""none"" />
    <circle cx=1334.96 cy=808.5081625588612 r=14.725918720569442 stroke=""black"" stroke-width=""1.5"" fill=""none"" />
    <circle cx=1246.4518374411389 cy=720 r=14.725918720569442 stroke=""black"" stroke-width=""1.5"" fill=""none"" />
    <circle cx=1334.96 cy=631.4918374411388 r=14.725918720569442 stroke=""black"" stroke-width=""1.5"" fill=""none"" />
    <polygon points = ""1334.96,720 1339.1023273065027,734.7259187205694 1330.8176726934973,734.7259187205694"" stroke=""white"" stroke-width=""3"" fill = ""white"" />
    
    </svg>
    </div>
        ","","","","","","","","","","","","stimulus","","","","","","","","","","","","","","","","",""
"html-keyboard-response","39","194956","0.0-39.0","4191.0999999940395","arrowup","","
    <div style="" display: block;  position: relative;"">
    
    <svg width=2560 height=1440>
    <circle cx=1217 cy=720 r=10.308143104398608 stroke=""black"" stroke-width=""1"" fill=""black"" />
    <circle cx=1423.4681625588612 cy=720 r=14.725918720569442 stroke=""none"" stroke-width=""1.5"" fill=""none"" />
    <circle cx=1334.96 cy=808.5081625588612 r=14.725918720569442 stroke=""none"" stroke-width=""1.5"" fill=""none"" />
    <circle cx=1246.4518374411389 cy=720 r=14.725918720569442 stroke=""none"" stroke-width=""1.5"" fill=""none"" />
    <circle cx=1334.96 cy=631.4918374411388 r=14.725918720569442 stroke=""none"" stroke-width=""1.5"" fill=""none"" />
    <polygon points = ""1334.96,720 1339.1023273065027,734.7259187205694 1330.8176726934973,734.7259187205694"" stroke=""none"" stroke-width=""3"" fill = ""none"" />
    
    </svg>
    </div>
        ","","","","","","","","","","","","get_response","false","mAEaXGQIFClNRuQ4","","","false","false","true","117.96","4","379.524","88.5081625588611","3","1","0","","",""
"html-keyboard-response","40","195469","0.0-40.0","null","null","","
    <div style="" display: block;  position: relative;"">
    
    <svg width=2560 height=1440>
    <circle cx=1217 cy=720 r=10.308143104398608 stroke=""black"" stroke-width=""1"" fill=""black"" />
    <circle cx=1423.4681625588612 cy=720 r=14.725918720569442 stroke=""none"" stroke-width=""1.5"" fill=""none"" />
    <circle cx=1334.96 cy=808.5081625588612 r=14.725918720569442 stroke=""none"" stroke-width=""1.5"" fill=""none"" />
    <circle cx=1246.4518374411389 cy=720 r=14.725918720569442 stroke=""none"" stroke-width=""1.5"" fill=""none"" />
    <circle cx=1334.96 cy=631.4918374411388 r=14.725918720569442 stroke=""none"" stroke-width=""1.5"" fill=""none"" />
    <polygon points = ""1334.96,720 1339.1023273065027,734.7259187205694 1330.8176726934973,734.7259187205694"" stroke=""none"" stroke-width=""3"" fill = ""none"" />
    
    </svg>
    </div>
        ","","","","","","","","","","","","","","","","","","","","","","","","","","","","",""
"html-keyboard-response","41","195621","0.0-41.0","null","null","","
    <div style="" display: block;  position: relative;"">
    <svg width=2560 height=1440>
    
    <circle cx=1217 cy=720 r=10.308143104398608 stroke=""black"" stroke-width=""1"" fill=""black"" />
    <circle cx=1334.96 cy=720 r=14.725918720569442 stroke=""black"" stroke-width=""1.5"" fill=""none"" />
    <circle cx=1423.4681625588612 cy=720 r=14.725918720569442 stroke=""black"" stroke-width=""1.5"" fill=""none"" />
    <circle cx=1334.96 cy=808.5081625588612 r=14.725918720569442 stroke=""black"" stroke-width=""1.5"" fill=""none"" />
    <circle cx=1246.4518374411389 cy=720 r=14.725918720569442 stroke=""black"" stroke-width=""1.5"" fill=""none"" />
    <circle cx=1334.96 cy=631.4918374411388 r=14.725918720569442 stroke=""black"" stroke-width=""1.5"" fill=""none"" />
    <polygon points = ""1334.96,720 1339.1023273065027,705.2740812794306 1330.8176726934973,705.2740812794306"" stroke=""white"" stroke-width=""3"" fill = ""white"" />
    
    </svg>
    </div>
        ","","","","","","","","","","","","stimulus","","","","","","","","","","","","","","","","",""
"html-keyboard-response","42","196164","0.0-42.0","542.3000000119209","arrowdown","","
    <div style="" display: block;  position: relative;"">
    
    <svg width=2560 height=1440>
    <circle cx=1217 cy=720 r=10.308143104398608 stroke=""black"" stroke-width=""1"" fill=""black"" />
    <circle cx=1423.4681625588612 cy=720 r=14.725918720569442 stroke=""none"" stroke-width=""1.5"" fill=""none"" />
    <circle cx=1334.96 cy=808.5081625588612 r=14.725918720569442 stroke=""none"" stroke-width=""1.5"" fill=""none"" />
    <circle cx=1246.4518374411389 cy=720 r=14.725918720569442 stroke=""none"" stroke-width=""1.5"" fill=""none"" />
    <circle cx=1334.96 cy=631.4918374411388 r=14.725918720569442 stroke=""none"" stroke-width=""1.5"" fill=""none"" />
    <polygon points = ""1334.96,720 1339.1023273065027,705.2740812794306 1330.8176726934973,705.2740812794306"" stroke=""none"" stroke-width=""3"" fill = ""none"" />
    
    </svg>
    </div>
        ","","","","","","","","","","","","get_response","false","mAEaXGQIFClNRuQ4","","","false","true","true","117.96","4","379.524","88.5081625588611","3","1","0","","",""
"html-keyboard-response","43","196666","0.0-43.0","null","null","","
    <div style="" display: block;  position: relative;"">
    
    <svg width=2560 height=1440>
    <circle cx=1217 cy=720 r=10.308143104398608 stroke=""black"" stroke-width=""1"" fill=""black"" />
    <circle cx=1423.4681625588612 cy=720 r=14.725918720569442 stroke=""none"" stroke-width=""1.5"" fill=""none"" />
    <circle cx=1334.96 cy=808.5081625588612 r=14.725918720569442 stroke=""none"" stroke-width=""1.5"" fill=""none"" />
    <circle cx=1246.4518374411389 cy=720 r=14.725918720569442 stroke=""none"" stroke-width=""1.5"" fill=""none"" />
    <circle cx=1334.96 cy=631.4918374411388 r=14.725918720569442 stroke=""none"" stroke-width=""1.5"" fill=""none"" />
    <polygon points = ""1334.96,720 1339.1023273065027,705.2740812794306 1330.8176726934973,705.2740812794306"" stroke=""none"" stroke-width=""3"" fill = ""none"" />
    
    </svg>
    </div>
        ","","","","","","","","","","","","","","","","","","","","","","","","","","","","",""
"html-keyboard-response","44","196817","0.0-44.0","null","null","","
    <div style="" display: block;  position: relative;"">
    <svg width=2560 height=1440>
    
    <circle cx=1217 cy=720 r=10.308143104398608 stroke=""black"" stroke-width=""1"" fill=""black"" />
    <circle cx=1334.96 cy=720 r=14.725918720569442 stroke=""black"" stroke-width=""1.5"" fill=""none"" />
    <circle cx=1423.4681625588612 cy=720 r=14.725918720569442 stroke=""black"" stroke-width=""1.5"" fill=""none"" />
    <circle cx=1334.96 cy=808.5081625588612 r=14.725918720569442 stroke=""black"" stroke-width=""1.5"" fill=""none"" />
    <circle cx=1246.4518374411389 cy=720 r=14.725918720569442 stroke=""black"" stroke-width=""1.5"" fill=""none"" />
    <circle cx=1334.96 cy=631.4918374411388 r=14.725918720569442 stroke=""black"" stroke-width=""1.5"" fill=""none"" />
    <polygon points = ""1334.96,720 1339.1023273065027,734.7259187205694 1330.8176726934973,734.7259187205694"" stroke=""white"" stroke-width=""3"" fill = ""white"" />
    
    </svg>
    </div>
        ","","","","","","","","","","","","stimulus","","","","","","","","","","","","","","","","",""
"html-keyboard-response","45","197044","0.0-45.0","225.80000001192093","arrowup","","
    <div style="" display: block;  position: relative;"">
    
    <svg width=2560 height=1440>
    <circle cx=1217 cy=720 r=10.308143104398608 stroke=""black"" stroke-width=""1"" fill=""black"" />
    <circle cx=1423.4681625588612 cy=720 r=14.725918720569442 stroke=""none"" stroke-width=""1.5"" fill=""none"" />
    <circle cx=1334.96 cy=808.5081625588612 r=14.725918720569442 stroke=""none"" stroke-width=""1.5"" fill=""none"" />
    <circle cx=1246.4518374411389 cy=720 r=14.725918720569442 stroke=""none"" stroke-width=""1.5"" fill=""none"" />
    <circle cx=1334.96 cy=631.4918374411388 r=14.725918720569442 stroke=""none"" stroke-width=""1.5"" fill=""none"" />
    <polygon points = ""1334.96,720 1339.1023273065027,734.7259187205694 1330.8176726934973,734.7259187205694"" stroke=""none"" stroke-width=""3"" fill = ""none"" />
    
    </svg>
    </div>
        ","","","","","","","","","","","","get_response","false","mAEaXGQIFClNRuQ4","","","false","false","true","117.96","4","379.524","88.5081625588611","3","1","0","","",""
"html-keyboard-response","46","197547","0.0-46.0","null","null","","
    <div style="" display: block;  position: relative;"">
    
    <svg width=2560 height=1440>
    <circle cx=1217 cy=720 r=10.308143104398608 stroke=""black"" stroke-width=""1"" fill=""black"" />
    <circle cx=1423.4681625588612 cy=720 r=14.725918720569442 stroke=""none"" stroke-width=""1.5"" fill=""none"" />
    <circle cx=1334.96 cy=808.5081625588612 r=14.725918720569442 stroke=""none"" stroke-width=""1.5"" fill=""none"" />
    <circle cx=1246.4518374411389 cy=720 r=14.725918720569442 stroke=""none"" stroke-width=""1.5"" fill=""none"" />
    <circle cx=1334.96 cy=631.4918374411388 r=14.725918720569442 stroke=""none"" stroke-width=""1.5"" fill=""none"" />
    <polygon points = ""1334.96,720 1339.1023273065027,734.7259187205694 1330.8176726934973,734.7259187205694"" stroke=""none"" stroke-width=""3"" fill = ""none"" />
    
    </svg>
    </div>
        ","","","","","","","","","","","","","","","","","","","","","","","","","","","","",""
"html-keyboard-response","47","197700","0.0-47.0","null","null","","
    <div style="" display: block;  position: relative;"">
    <svg width=2560 height=1440>
    
    <circle cx=1217 cy=720 r=10.308143104398608 stroke=""black"" stroke-width=""1"" fill=""black"" />
    <circle cx=1334.96 cy=720 r=14.725918720569442 stroke=""black"" stroke-width=""1.5"" fill=""none"" />
    <circle cx=1423.4681625588612 cy=720 r=14.725918720569442 stroke=""black"" stroke-width=""1.5"" fill=""none"" />
    <circle cx=1334.96 cy=808.5081625588612 r=14.725918720569442 stroke=""black"" stroke-width=""1.5"" fill=""none"" />
    <circle cx=1246.4518374411389 cy=720 r=14.725918720569442 stroke=""black"" stroke-width=""1.5"" fill=""none"" />
    <circle cx=1334.96 cy=631.4918374411388 r=14.725918720569442 stroke=""black"" stroke-width=""1.5"" fill=""none"" />
    <polygon points = ""1334.96,720 1339.1023273065027,734.7259187205694 1330.8176726934973,734.7259187205694"" stroke=""white"" stroke-width=""3"" fill = ""white"" />
    
    </svg>
    </div>
        ","","","","","","","","","","","","stimulus","","","","","","","","","","","","","","","","",""
"html-keyboard-response","48","207716","0.0-48.0","10015.199999988079","arrowup","","
    <div style="" display: block;  position: relative;"">
    
    <svg width=2560 height=1440>
    <circle cx=1217 cy=720 r=10.308143104398608 stroke=""black"" stroke-width=""1"" fill=""black"" />
    <circle cx=1423.4681625588612 cy=720 r=14.725918720569442 stroke=""none"" stroke-width=""1.5"" fill=""none"" />
    <circle cx=1334.96 cy=808.5081625588612 r=14.725918720569442 stroke=""none"" stroke-width=""1.5"" fill=""none"" />
    <circle cx=1246.4518374411389 cy=720 r=14.725918720569442 stroke=""none"" stroke-width=""1.5"" fill=""none"" />
    <circle cx=1334.96 cy=631.4918374411388 r=14.725918720569442 stroke=""none"" stroke-width=""1.5"" fill=""none"" />
    <polygon points = ""1334.96,720 1339.1023273065027,734.7259187205694 1330.8176726934973,734.7259187205694"" stroke=""none"" stroke-width=""3"" fill = ""none"" />
    
    </svg>
    </div>
        ","","","","","","","","","","","","get_response","false","mAEaXGQIFClNRuQ4","","","false","false","true","117.96","4","379.524","88.5081625588611","3","1","0","","",""
"html-keyboard-response","49","207980","0.0-49.0","263.2999999821186","arrowdown","","
    <div style="" display: block;  position: relative;"">
    
    <svg width=2560 height=1440>
    <circle cx=1217 cy=720 r=10.308143104398608 stroke=""black"" stroke-width=""1"" fill=""black"" />
    <circle cx=1423.4681625588612 cy=720 r=14.725918720569442 stroke=""none"" stroke-width=""1.5"" fill=""none"" />
    <circle cx=1334.96 cy=808.5081625588612 r=14.725918720569442 stroke=""none"" stroke-width=""1.5"" fill=""none"" />
    <circle cx=1246.4518374411389 cy=720 r=14.725918720569442 stroke=""none"" stroke-width=""1.5"" fill=""none"" />
    <circle cx=1334.96 cy=631.4918374411388 r=14.725918720569442 stroke=""none"" stroke-width=""1.5"" fill=""none"" />
    <polygon points = ""1334.96,720 1339.1023273065027,734.7259187205694 1330.8176726934973,734.7259187205694"" stroke=""none"" stroke-width=""3"" fill = ""none"" />
    
    </svg>
    </div>
        ","","","","","","","","","","","","","","","","","","","","","","","","","","","","",""
"html-keyboard-response","50","208132","0.0-50.0","null","null","","
    <div style="" display: block;  position: relative;"">
    <svg width=2560 height=1440>
    
    <circle cx=1217 cy=720 r=10.308143104398608 stroke=""black"" stroke-width=""1"" fill=""black"" />
    <circle cx=1334.96 cy=720 r=14.725918720569442 stroke=""black"" stroke-width=""1.5"" fill=""none"" />
    <circle cx=1423.4681625588612 cy=720 r=14.725918720569442 stroke=""black"" stroke-width=""1.5"" fill=""none"" />
    <circle cx=1334.96 cy=808.5081625588612 r=14.725918720569442 stroke=""black"" stroke-width=""1.5"" fill=""none"" />
    <circle cx=1246.4518374411389 cy=720 r=14.725918720569442 stroke=""black"" stroke-width=""1.5"" fill=""none"" />
    <circle cx=1334.96 cy=631.4918374411388 r=14.725918720569442 stroke=""black"" stroke-width=""1.5"" fill=""none"" />
    <polygon points = ""1334.96,720 1339.1023273065027,705.2740812794306 1330.8176726934973,705.2740812794306"" stroke=""white"" stroke-width=""3"" fill = ""white"" />
    
    </svg>
    </div>
        ","","","","","","","","","","","","stimulus","","","","","","","","","","","","","","","","",""
"html-keyboard-response","51","216180","0.0-51.0","8047.199999988079","arrowdown","","
    <div style="" display: block;  position: relative;"">
    
    <svg width=2560 height=1440>
    <circle cx=1217 cy=720 r=10.308143104398608 stroke=""black"" stroke-width=""1"" fill=""black"" />
    <circle cx=1423.4681625588612 cy=720 r=14.725918720569442 stroke=""none"" stroke-width=""1.5"" fill=""none"" />
    <circle cx=1334.96 cy=808.5081625588612 r=14.725918720569442 stroke=""none"" stroke-width=""1.5"" fill=""none"" />
    <circle cx=1246.4518374411389 cy=720 r=14.725918720569442 stroke=""none"" stroke-width=""1.5"" fill=""none"" />
    <circle cx=1334.96 cy=631.4918374411388 r=14.725918720569442 stroke=""none"" stroke-width=""1.5"" fill=""none"" />
    <polygon points = ""1334.96,720 1339.1023273065027,705.2740812794306 1330.8176726934973,705.2740812794306"" stroke=""none"" stroke-width=""3"" fill = ""none"" />
    
    </svg>
    </div>
        ","","","","","","","","","","","","get_response","false","mAEaXGQIFClNRuQ4","","","false","true","true","117.96","4","379.524","88.5081625588611","3","1","0","","",""
"html-keyboard-response","52","216682","0.0-52.0","null","null","","
    <div style="" display: block;  position: relative;"">
    
    <svg width=2560 height=1440>
    <circle cx=1217 cy=720 r=10.308143104398608 stroke=""black"" stroke-width=""1"" fill=""black"" />
    <circle cx=1423.4681625588612 cy=720 r=14.725918720569442 stroke=""none"" stroke-width=""1.5"" fill=""none"" />
    <circle cx=1334.96 cy=808.5081625588612 r=14.725918720569442 stroke=""none"" stroke-width=""1.5"" fill=""none"" />
    <circle cx=1246.4518374411389 cy=720 r=14.725918720569442 stroke=""none"" stroke-width=""1.5"" fill=""none"" />
    <circle cx=1334.96 cy=631.4918374411388 r=14.725918720569442 stroke=""none"" stroke-width=""1.5"" fill=""none"" />
    <polygon points = ""1334.96,720 1339.1023273065027,705.2740812794306 1330.8176726934973,705.2740812794306"" stroke=""none"" stroke-width=""3"" fill = ""none"" />
    
    </svg>
    </div>
        ","","","","","","","","","","","","","","","","","","","","","","","","","","","","",""
"html-keyboard-response","53","216834","0.0-53.0","null","null","","
    <div style="" display: block;  position: relative;"">
    <svg width=2560 height=1440>
    
    <circle cx=1217 cy=720 r=10.308143104398608 stroke=""black"" stroke-width=""1"" fill=""black"" />
    <circle cx=1334.96 cy=720 r=14.725918720569442 stroke=""black"" stroke-width=""1.5"" fill=""none"" />
    <circle cx=1423.4681625588612 cy=720 r=14.725918720569442 stroke=""black"" stroke-width=""1.5"" fill=""none"" />
    <circle cx=1334.96 cy=808.5081625588612 r=14.725918720569442 stroke=""black"" stroke-width=""1.5"" fill=""none"" />
    <circle cx=1246.4518374411389 cy=720 r=14.725918720569442 stroke=""black"" stroke-width=""1.5"" fill=""none"" />
    <circle cx=1334.96 cy=631.4918374411388 r=14.725918720569442 stroke=""black"" stroke-width=""1.5"" fill=""none"" />
    <polygon points = ""1334.96,720 1339.1023273065027,705.2740812794306 1330.8176726934973,705.2740812794306"" stroke=""white"" stroke-width=""3"" fill = ""white"" />
    
    </svg>
    </div>
        ","","","","","","","","","","","","stimulus","","","","","","","","","","","","","","","","",""
"html-keyboard-response","54","217876","0.0-54.0","1041.5999999940395","arrowup","","
    <div style="" display: block;  position: relative;"">
    
    <svg width=2560 height=1440>
    <circle cx=1217 cy=720 r=10.308143104398608 stroke=""black"" stroke-width=""1"" fill=""black"" />
    <circle cx=1423.4681625588612 cy=720 r=14.725918720569442 stroke=""none"" stroke-width=""1.5"" fill=""none"" />
    <circle cx=1334.96 cy=808.5081625588612 r=14.725918720569442 stroke=""none"" stroke-width=""1.5"" fill=""none"" />
    <circle cx=1246.4518374411389 cy=720 r=14.725918720569442 stroke=""none"" stroke-width=""1.5"" fill=""none"" />
    <circle cx=1334.96 cy=631.4918374411388 r=14.725918720569442 stroke=""none"" stroke-width=""1.5"" fill=""none"" />
    <polygon points = ""1334.96,720 1339.1023273065027,705.2740812794306 1330.8176726934973,705.2740812794306"" stroke=""none"" stroke-width=""3"" fill = ""none"" />
    
    </svg>
    </div>
        ","","","","","","","","","","","","get_response","true","mAEaXGQIFClNRuQ4","","","false","true","true","117.96","4","379.524","88.5081625588611","3","1","0","","",""
"html-keyboard-response","55","218377","0.0-55.0","null","null","","
    <div style="" display: block;  position: relative;"">
    
    <svg width=2560 height=1440>
    <circle cx=1217 cy=720 r=10.308143104398608 stroke=""black"" stroke-width=""1"" fill=""black"" />
    <circle cx=1423.4681625588612 cy=720 r=14.725918720569442 stroke=""none"" stroke-width=""1.5"" fill=""none"" />
    <circle cx=1334.96 cy=808.5081625588612 r=14.725918720569442 stroke=""none"" stroke-width=""1.5"" fill=""none"" />
    <circle cx=1246.4518374411389 cy=720 r=14.725918720569442 stroke=""none"" stroke-width=""1.5"" fill=""none"" />
    <circle cx=1334.96 cy=631.4918374411388 r=14.725918720569442 stroke=""none"" stroke-width=""1.5"" fill=""none"" />
    <polygon points = ""1334.96,720 1339.1023273065027,705.2740812794306 1330.8176726934973,705.2740812794306"" stroke=""none"" stroke-width=""3"" fill = ""none"" />
    
    </svg>
    </div>
        ","","","","","","","","","","","","","","","","","","","","","","","","","","","","",""
"html-keyboard-response","56","218529","0.0-56.0","null","null","","
    <div style="" display: block;  position: relative;"">
    <svg width=2560 height=1440>
    
    <circle cx=1217 cy=720 r=10.308143104398608 stroke=""black"" stroke-width=""1"" fill=""black"" />
    <circle cx=1099.04 cy=720 r=14.725918720569442 stroke=""black"" stroke-width=""1.5"" fill=""none"" />
    <circle cx=1187.5481625588611 cy=720 r=14.725918720569442 stroke=""black"" stroke-width=""1.5"" fill=""none"" />
    <circle cx=1099.04 cy=808.5081625588612 r=14.725918720569442 stroke=""black"" stroke-width=""1.5"" fill=""none"" />
    <circle cx=1010.5318374411388 cy=720 r=14.725918720569442 stroke=""black"" stroke-width=""1.5"" fill=""none"" />
    <circle cx=1099.04 cy=631.4918374411388 r=14.725918720569442 stroke=""black"" stroke-width=""1.5"" fill=""none"" />
    <polygon points = ""1099.04,720 1103.1823273065027,734.7259187205694 1094.8976726934973,734.7259187205694"" stroke=""white"" stroke-width=""3"" fill = ""white"" />
    
    </svg>
    </div>
        ","","","","","","","","","","","","stimulus","","","","","","","","","","","","","","","","",""
"html-keyboard-response","57","218900","0.0-57.0","370.40000000596046","arrowup","","
    <div style="" display: block;  position: relative;"">
    
    <svg width=2560 height=1440>
    <circle cx=1217 cy=720 r=10.308143104398608 stroke=""black"" stroke-width=""1"" fill=""black"" />
    <circle cx=1187.5481625588611 cy=720 r=14.725918720569442 stroke=""none"" stroke-width=""1.5"" fill=""none"" />
    <circle cx=1099.04 cy=808.5081625588612 r=14.725918720569442 stroke=""none"" stroke-width=""1.5"" fill=""none"" />
    <circle cx=1010.5318374411388 cy=720 r=14.725918720569442 stroke=""none"" stroke-width=""1.5"" fill=""none"" />
    <circle cx=1099.04 cy=631.4918374411388 r=14.725918720569442 stroke=""none"" stroke-width=""1.5"" fill=""none"" />
    <polygon points = ""1099.04,720 1103.1823273065027,734.7259187205694 1094.8976726934973,734.7259187205694"" stroke=""none"" stroke-width=""3"" fill = ""none"" />
    
    </svg>
    </div>
        ","","","","","","","","","","","","get_response","false","mAEaXGQIFClNRuQ4","","","true","false","true","117.96","4","379.524","88.5081625588611","3","1","0","","",""
"html-keyboard-response","58","219236","0.0-58.0","335.69999998807907","arrowleft","","
    <div style="" display: block;  position: relative;"">
    
    <svg width=2560 height=1440>
    <circle cx=1217 cy=720 r=10.308143104398608 stroke=""black"" stroke-width=""1"" fill=""black"" />
    <circle cx=1187.5481625588611 cy=720 r=14.725918720569442 stroke=""none"" stroke-width=""1.5"" fill=""none"" />
    <circle cx=1099.04 cy=808.5081625588612 r=14.725918720569442 stroke=""none"" stroke-width=""1.5"" fill=""none"" />
    <circle cx=1010.5318374411388 cy=720 r=14.725918720569442 stroke=""none"" stroke-width=""1.5"" fill=""none"" />
    <circle cx=1099.04 cy=631.4918374411388 r=14.725918720569442 stroke=""none"" stroke-width=""1.5"" fill=""none"" />
    <polygon points = ""1099.04,720 1103.1823273065027,734.7259187205694 1094.8976726934973,734.7259187205694"" stroke=""none"" stroke-width=""3"" fill = ""none"" />
    
    </svg>
    </div>
        ","","","","","","","","","","","","","","","","","","","","","","","","","","","","",""
"html-keyboard-response","59","219387","0.0-59.0","null","null","","
    <div style="" display: block;  position: relative;"">
    <svg width=2560 height=1440>
    
    <circle cx=1217 cy=720 r=10.308143104398608 stroke=""black"" stroke-width=""1"" fill=""black"" />
    <circle cx=1334.96 cy=720 r=14.725918720569442 stroke=""black"" stroke-width=""1.5"" fill=""none"" />
    <circle cx=1423.4681625588612 cy=720 r=14.725918720569442 stroke=""black"" stroke-width=""1.5"" fill=""none"" />
    <circle cx=1334.96 cy=808.5081625588612 r=14.725918720569442 stroke=""black"" stroke-width=""1.5"" fill=""none"" />
    <circle cx=1246.4518374411389 cy=720 r=14.725918720569442 stroke=""black"" stroke-width=""1.5"" fill=""none"" />
    <circle cx=1334.96 cy=631.4918374411388 r=14.725918720569442 stroke=""black"" stroke-width=""1.5"" fill=""none"" />
    <polygon points = ""1334.96,720 1339.1023273065027,705.2740812794306 1330.8176726934973,705.2740812794306"" stroke=""white"" stroke-width=""3"" fill = ""white"" />
    
    </svg>
    </div>
        ","","","","","","","","","","","","stimulus","","","","","","","","","","","","","","","","",""
"html-keyboard-response","60","222436","0.0-60.0","3047.7999999821186","arrowdown","","
    <div style="" display: block;  position: relative;"">
    
    <svg width=2560 height=1440>
    <circle cx=1217 cy=720 r=10.308143104398608 stroke=""black"" stroke-width=""1"" fill=""black"" />
    <circle cx=1423.4681625588612 cy=720 r=14.725918720569442 stroke=""none"" stroke-width=""1.5"" fill=""none"" />
    <circle cx=1334.96 cy=808.5081625588612 r=14.725918720569442 stroke=""none"" stroke-width=""1.5"" fill=""none"" />
    <circle cx=1246.4518374411389 cy=720 r=14.725918720569442 stroke=""none"" stroke-width=""1.5"" fill=""none"" />
    <circle cx=1334.96 cy=631.4918374411388 r=14.725918720569442 stroke=""none"" stroke-width=""1.5"" fill=""none"" />
    <polygon points = ""1334.96,720 1339.1023273065027,705.2740812794306 1330.8176726934973,705.2740812794306"" stroke=""none"" stroke-width=""3"" fill = ""none"" />
    
    </svg>
    </div>
        ","","","","","","","","","","","","get_response","false","mAEaXGQIFClNRuQ4","","","false","true","true","117.96","4","379.524","88.5081625588611","3","1","0","","",""
"html-keyboard-response","61","222937","0.0-61.0","null","null","","
    <div style="" display: block;  position: relative;"">
    
    <svg width=2560 height=1440>
    <circle cx=1217 cy=720 r=10.308143104398608 stroke=""black"" stroke-width=""1"" fill=""black"" />
    <circle cx=1423.4681625588612 cy=720 r=14.725918720569442 stroke=""none"" stroke-width=""1.5"" fill=""none"" />
    <circle cx=1334.96 cy=808.5081625588612 r=14.725918720569442 stroke=""none"" stroke-width=""1.5"" fill=""none"" />
    <circle cx=1246.4518374411389 cy=720 r=14.725918720569442 stroke=""none"" stroke-width=""1.5"" fill=""none"" />
    <circle cx=1334.96 cy=631.4918374411388 r=14.725918720569442 stroke=""none"" stroke-width=""1.5"" fill=""none"" />
    <polygon points = ""1334.96,720 1339.1023273065027,705.2740812794306 1330.8176726934973,705.2740812794306"" stroke=""none"" stroke-width=""3"" fill = ""none"" />
    
    </svg>
    </div>
        ","","","","","","","","","","","","","","","","","","","","","","","","","","","","",""
"html-keyboard-response","62","223088","0.0-62.0","null","null","","
    <div style="" display: block;  position: relative;"">
    <svg width=2560 height=1440>
    
    <circle cx=1217 cy=720 r=10.308143104398608 stroke=""black"" stroke-width=""1"" fill=""black"" />
    <circle cx=1334.96 cy=720 r=14.725918720569442 stroke=""black"" stroke-width=""1.5"" fill=""none"" />
    <circle cx=1423.4681625588612 cy=720 r=14.725918720569442 stroke=""black"" stroke-width=""1.5"" fill=""none"" />
    <circle cx=1334.96 cy=808.5081625588612 r=14.725918720569442 stroke=""black"" stroke-width=""1.5"" fill=""none"" />
    <circle cx=1246.4518374411389 cy=720 r=14.725918720569442 stroke=""black"" stroke-width=""1.5"" fill=""none"" />
    <circle cx=1334.96 cy=631.4918374411388 r=14.725918720569442 stroke=""black"" stroke-width=""1.5"" fill=""none"" />
    <polygon points = ""1334.96,720 1339.1023273065027,734.7259187205694 1330.8176726934973,734.7259187205694"" stroke=""white"" stroke-width=""3"" fill = ""white"" />
    
    </svg>
    </div>
        ","","","","","","","","","","","","stimulus","","","","","","","","","","","","","","","","",""
"html-keyboard-response","63","223436","0.0-63.0","347.2000000178814","arrowup","","
    <div style="" display: block;  position: relative;"">
    
    <svg width=2560 height=1440>
    <circle cx=1217 cy=720 r=10.308143104398608 stroke=""black"" stroke-width=""1"" fill=""black"" />
    <circle cx=1423.4681625588612 cy=720 r=14.725918720569442 stroke=""none"" stroke-width=""1.5"" fill=""none"" />
    <circle cx=1334.96 cy=808.5081625588612 r=14.725918720569442 stroke=""none"" stroke-width=""1.5"" fill=""none"" />
    <circle cx=1246.4518374411389 cy=720 r=14.725918720569442 stroke=""none"" stroke-width=""1.5"" fill=""none"" />
    <circle cx=1334.96 cy=631.4918374411388 r=14.725918720569442 stroke=""none"" stroke-width=""1.5"" fill=""none"" />
    <polygon points = ""1334.96,720 1339.1023273065027,734.7259187205694 1330.8176726934973,734.7259187205694"" stroke=""none"" stroke-width=""3"" fill = ""none"" />
    
    </svg>
    </div>
        ","","","","","","","","","","","","get_response","false","mAEaXGQIFClNRuQ4","","","false","false","true","117.96","4","379.524","88.5081625588611","3","1","0","","",""
"html-keyboard-response","64","223937","0.0-64.0","null","null","","
    <div style="" display: block;  position: relative;"">
    
    <svg width=2560 height=1440>
    <circle cx=1217 cy=720 r=10.308143104398608 stroke=""black"" stroke-width=""1"" fill=""black"" />
    <circle cx=1423.4681625588612 cy=720 r=14.725918720569442 stroke=""none"" stroke-width=""1.5"" fill=""none"" />
    <circle cx=1334.96 cy=808.5081625588612 r=14.725918720569442 stroke=""none"" stroke-width=""1.5"" fill=""none"" />
    <circle cx=1246.4518374411389 cy=720 r=14.725918720569442 stroke=""none"" stroke-width=""1.5"" fill=""none"" />
    <circle cx=1334.96 cy=631.4918374411388 r=14.725918720569442 stroke=""none"" stroke-width=""1.5"" fill=""none"" />
    <polygon points = ""1334.96,720 1339.1023273065027,734.7259187205694 1330.8176726934973,734.7259187205694"" stroke=""none"" stroke-width=""3"" fill = ""none"" />
    
    </svg>
    </div>
        ","","","","","","","","","","","","","","","","","","","","","","","","","","","","",""
"html-keyboard-response","65","224089","0.0-65.0","null","null","","
    <div style="" display: block;  position: relative;"">
    <svg width=2560 height=1440>
    
    <circle cx=1217 cy=720 r=10.308143104398608 stroke=""black"" stroke-width=""1"" fill=""black"" />
    <circle cx=1334.96 cy=720 r=14.725918720569442 stroke=""black"" stroke-width=""1.5"" fill=""none"" />
    <circle cx=1423.4681625588612 cy=720 r=14.725918720569442 stroke=""black"" stroke-width=""1.5"" fill=""none"" />
    <circle cx=1334.96 cy=808.5081625588612 r=14.725918720569442 stroke=""black"" stroke-width=""1.5"" fill=""none"" />
    <circle cx=1246.4518374411389 cy=720 r=14.725918720569442 stroke=""black"" stroke-width=""1.5"" fill=""none"" />
    <circle cx=1334.96 cy=631.4918374411388 r=14.725918720569442 stroke=""black"" stroke-width=""1.5"" fill=""none"" />
    <polygon points = ""1334.96,720 1339.1023273065027,734.7259187205694 1330.8176726934973,734.7259187205694"" stroke=""white"" stroke-width=""3"" fill = ""white"" />
    
    </svg>
    </div>
        ","","","","","","","","","","","","stimulus","","","","","","","","","","","","","","","","",""
"html-keyboard-response","66","229836","0.0-66.0","5746.399999976158","arrowdown","","
    <div style="" display: block;  position: relative;"">
    
    <svg width=2560 height=1440>
    <circle cx=1217 cy=720 r=10.308143104398608 stroke=""black"" stroke-width=""1"" fill=""black"" />
    <circle cx=1423.4681625588612 cy=720 r=14.725918720569442 stroke=""none"" stroke-width=""1.5"" fill=""none"" />
    <circle cx=1334.96 cy=808.5081625588612 r=14.725918720569442 stroke=""none"" stroke-width=""1.5"" fill=""none"" />
    <circle cx=1246.4518374411389 cy=720 r=14.725918720569442 stroke=""none"" stroke-width=""1.5"" fill=""none"" />
    <circle cx=1334.96 cy=631.4918374411388 r=14.725918720569442 stroke=""none"" stroke-width=""1.5"" fill=""none"" />
    <polygon points = ""1334.96,720 1339.1023273065027,734.7259187205694 1330.8176726934973,734.7259187205694"" stroke=""none"" stroke-width=""3"" fill = ""none"" />
    
    </svg>
    </div>
        ","","","","","","","","","","","","get_response","true","mAEaXGQIFClNRuQ4","","","false","false","true","117.96","4","379.524","88.5081625588611","3","1","0","","",""
"html-keyboard-response","67","230044","0.0-67.0","206.90000000596046","arrowup","","
    <div style="" display: block;  position: relative;"">
    
    <svg width=2560 height=1440>
    <circle cx=1217 cy=720 r=10.308143104398608 stroke=""black"" stroke-width=""1"" fill=""black"" />
    <circle cx=1423.4681625588612 cy=720 r=14.725918720569442 stroke=""none"" stroke-width=""1.5"" fill=""none"" />
    <circle cx=1334.96 cy=808.5081625588612 r=14.725918720569442 stroke=""none"" stroke-width=""1.5"" fill=""none"" />
    <circle cx=1246.4518374411389 cy=720 r=14.725918720569442 stroke=""none"" stroke-width=""1.5"" fill=""none"" />
    <circle cx=1334.96 cy=631.4918374411388 r=14.725918720569442 stroke=""none"" stroke-width=""1.5"" fill=""none"" />
    <polygon points = ""1334.96,720 1339.1023273065027,734.7259187205694 1330.8176726934973,734.7259187205694"" stroke=""none"" stroke-width=""3"" fill = ""none"" />
    
    </svg>
    </div>
        ","","","","","","","","","","","","","","","","","","","","","","","","","","","","",""
"html-keyboard-response","68","230196","0.0-68.0","null","null","","
    <div style="" display: block;  position: relative;"">
    <svg width=2560 height=1440>
    
    <circle cx=1217 cy=720 r=10.308143104398608 stroke=""black"" stroke-width=""1"" fill=""black"" />
    <circle cx=1334.96 cy=720 r=14.725918720569442 stroke=""black"" stroke-width=""1.5"" fill=""none"" />
    <circle cx=1423.4681625588612 cy=720 r=14.725918720569442 stroke=""black"" stroke-width=""1.5"" fill=""none"" />
    <circle cx=1334.96 cy=808.5081625588612 r=14.725918720569442 stroke=""black"" stroke-width=""1.5"" fill=""none"" />
    <circle cx=1246.4518374411389 cy=720 r=14.725918720569442 stroke=""black"" stroke-width=""1.5"" fill=""none"" />
    <circle cx=1334.96 cy=631.4918374411388 r=14.725918720569442 stroke=""black"" stroke-width=""1.5"" fill=""none"" />
    <polygon points = ""1334.96,720 1339.1023273065027,734.7259187205694 1330.8176726934973,734.7259187205694"" stroke=""white"" stroke-width=""3"" fill = ""white"" />
    
    </svg>
    </div>
        ","","","","","","","","","","","","stimulus","","","","","","","","","","","","","","","","",""
"html-keyboard-response","69","234308","0.0-69.0","4111.600000023842","arrowup","","
    <div style="" display: block;  position: relative;"">
    
    <svg width=2560 height=1440>
    <circle cx=1217 cy=720 r=10.308143104398608 stroke=""black"" stroke-width=""1"" fill=""black"" />
    <circle cx=1423.4681625588612 cy=720 r=14.725918720569442 stroke=""none"" stroke-width=""1.5"" fill=""none"" />
    <circle cx=1334.96 cy=808.5081625588612 r=14.725918720569442 stroke=""none"" stroke-width=""1.5"" fill=""none"" />
    <circle cx=1246.4518374411389 cy=720 r=14.725918720569442 stroke=""none"" stroke-width=""1.5"" fill=""none"" />
    <circle cx=1334.96 cy=631.4918374411388 r=14.725918720569442 stroke=""none"" stroke-width=""1.5"" fill=""none"" />
    <polygon points = ""1334.96,720 1339.1023273065027,734.7259187205694 1330.8176726934973,734.7259187205694"" stroke=""none"" stroke-width=""3"" fill = ""none"" />
    
    </svg>
    </div>
        ","","","","","","","","","","","","get_response","false","mAEaXGQIFClNRuQ4","","","false","false","true","117.96","4","379.524","88.5081625588611","3","1","0","","",""
"html-keyboard-response","70","234810","0.0-70.0","null","null","","
    <div style="" display: block;  position: relative;"">
    
    <svg width=2560 height=1440>
    <circle cx=1217 cy=720 r=10.308143104398608 stroke=""black"" stroke-width=""1"" fill=""black"" />
    <circle cx=1423.4681625588612 cy=720 r=14.725918720569442 stroke=""none"" stroke-width=""1.5"" fill=""none"" />
    <circle cx=1334.96 cy=808.5081625588612 r=14.725918720569442 stroke=""none"" stroke-width=""1.5"" fill=""none"" />
    <circle cx=1246.4518374411389 cy=720 r=14.725918720569442 stroke=""none"" stroke-width=""1.5"" fill=""none"" />
    <circle cx=1334.96 cy=631.4918374411388 r=14.725918720569442 stroke=""none"" stroke-width=""1.5"" fill=""none"" />
    <polygon points = ""1334.96,720 1339.1023273065027,734.7259187205694 1330.8176726934973,734.7259187205694"" stroke=""none"" stroke-width=""3"" fill = ""none"" />
    
    </svg>
    </div>
        ","","","","","","","","","","","","","","","","","","","","","","","","","","","","",""
"html-keyboard-response","71","234892","0.0-71.0","81.59999999403954","arrowdown","","
    <div style="" display: block;  position: relative;"">
    <svg width=2560 height=1440>
    
    <circle cx=1217 cy=720 r=10.308143104398608 stroke=""black"" stroke-width=""1"" fill=""black"" />
    <circle cx=1334.96 cy=720 r=14.725918720569442 stroke=""black"" stroke-width=""1.5"" fill=""none"" />
    <circle cx=1423.4681625588612 cy=720 r=14.725918720569442 stroke=""black"" stroke-width=""1.5"" fill=""none"" />
    <circle cx=1334.96 cy=808.5081625588612 r=14.725918720569442 stroke=""black"" stroke-width=""1.5"" fill=""none"" />
    <circle cx=1246.4518374411389 cy=720 r=14.725918720569442 stroke=""black"" stroke-width=""1.5"" fill=""none"" />
    <circle cx=1334.96 cy=631.4918374411388 r=14.725918720569442 stroke=""black"" stroke-width=""1.5"" fill=""none"" />
    <polygon points = ""1334.96,720 1339.1023273065027,734.7259187205694 1330.8176726934973,734.7259187205694"" stroke=""white"" stroke-width=""3"" fill = ""white"" />
    
    </svg>
    </div>
        ","","","","","","","","","","","","stimulus","","","","","","","","","","","","","","","","",""
"html-keyboard-response","72","235965","0.0-72.0","1072.2000000178814","arrowdown","","
    <div style="" display: block;  position: relative;"">
    
    <svg width=2560 height=1440>
    <circle cx=1217 cy=720 r=10.308143104398608 stroke=""black"" stroke-width=""1"" fill=""black"" />
    <circle cx=1423.4681625588612 cy=720 r=14.725918720569442 stroke=""none"" stroke-width=""1.5"" fill=""none"" />
    <circle cx=1334.96 cy=808.5081625588612 r=14.725918720569442 stroke=""none"" stroke-width=""1.5"" fill=""none"" />
    <circle cx=1246.4518374411389 cy=720 r=14.725918720569442 stroke=""none"" stroke-width=""1.5"" fill=""none"" />
    <circle cx=1334.96 cy=631.4918374411388 r=14.725918720569442 stroke=""none"" stroke-width=""1.5"" fill=""none"" />
    <polygon points = ""1334.96,720 1339.1023273065027,734.7259187205694 1330.8176726934973,734.7259187205694"" stroke=""none"" stroke-width=""3"" fill = ""none"" />
    
    </svg>
    </div>
        ","","","","","","","","","","","","get_response","true","mAEaXGQIFClNRuQ4","","","false","false","true","117.96","4","379.524","88.5081625588611","3","1","0","","",""
"html-keyboard-response","73","236276","0.0-73.0","310.09999999403954","arrowdown","","
    <div style="" display: block;  position: relative;"">
    
    <svg width=2560 height=1440>
    <circle cx=1217 cy=720 r=10.308143104398608 stroke=""black"" stroke-width=""1"" fill=""black"" />
    <circle cx=1423.4681625588612 cy=720 r=14.725918720569442 stroke=""none"" stroke-width=""1.5"" fill=""none"" />
    <circle cx=1334.96 cy=808.5081625588612 r=14.725918720569442 stroke=""none"" stroke-width=""1.5"" fill=""none"" />
    <circle cx=1246.4518374411389 cy=720 r=14.725918720569442 stroke=""none"" stroke-width=""1.5"" fill=""none"" />
    <circle cx=1334.96 cy=631.4918374411388 r=14.725918720569442 stroke=""none"" stroke-width=""1.5"" fill=""none"" />
    <polygon points = ""1334.96,720 1339.1023273065027,734.7259187205694 1330.8176726934973,734.7259187205694"" stroke=""none"" stroke-width=""3"" fill = ""none"" />
    
    </svg>
    </div>
        ","","","","","","","","","","","","","","","","","","","","","","","","","","","","",""
"html-keyboard-response","74","236428","0.0-74.0","null","null","","
    <div style="" display: block;  position: relative;"">
    <svg width=2560 height=1440>
    
    <circle cx=1217 cy=720 r=10.308143104398608 stroke=""black"" stroke-width=""1"" fill=""black"" />
    <circle cx=1099.04 cy=720 r=14.725918720569442 stroke=""black"" stroke-width=""1.5"" fill=""none"" />
    <circle cx=1187.5481625588611 cy=720 r=14.725918720569442 stroke=""black"" stroke-width=""1.5"" fill=""none"" />
    <circle cx=1099.04 cy=808.5081625588612 r=14.725918720569442 stroke=""black"" stroke-width=""1.5"" fill=""none"" />
    <circle cx=1010.5318374411388 cy=720 r=14.725918720569442 stroke=""black"" stroke-width=""1.5"" fill=""none"" />
    <circle cx=1099.04 cy=631.4918374411388 r=14.725918720569442 stroke=""black"" stroke-width=""1.5"" fill=""none"" />
    <polygon points = ""1099.04,720 1103.1823273065027,734.7259187205694 1094.8976726934973,734.7259187205694"" stroke=""white"" stroke-width=""3"" fill = ""white"" />
    
    </svg>
    </div>
        ","","","","","","","","","","","","stimulus","","","","","","","","","","","","","","","","",""
"html-keyboard-response","75","237508","0.0-75.0","1079.0999999940395","arrowdown","","
    <div style="" display: block;  position: relative;"">
    
    <svg width=2560 height=1440>
    <circle cx=1217 cy=720 r=10.308143104398608 stroke=""black"" stroke-width=""1"" fill=""black"" />
    <circle cx=1187.5481625588611 cy=720 r=14.725918720569442 stroke=""none"" stroke-width=""1.5"" fill=""none"" />
    <circle cx=1099.04 cy=808.5081625588612 r=14.725918720569442 stroke=""none"" stroke-width=""1.5"" fill=""none"" />
    <circle cx=1010.5318374411388 cy=720 r=14.725918720569442 stroke=""none"" stroke-width=""1.5"" fill=""none"" />
    <circle cx=1099.04 cy=631.4918374411388 r=14.725918720569442 stroke=""none"" stroke-width=""1.5"" fill=""none"" />
    <polygon points = ""1099.04,720 1103.1823273065027,734.7259187205694 1094.8976726934973,734.7259187205694"" stroke=""none"" stroke-width=""3"" fill = ""none"" />
    
    </svg>
    </div>
        ","","","","","","","","","","","","get_response","true","mAEaXGQIFClNRuQ4","","","true","false","true","117.96","4","379.524","88.5081625588611","3","1","0","","",""
"html-keyboard-response","76","237860","0.0-76.0","351.39999997615814","arrowdown","","
    <div style="" display: block;  position: relative;"">
    
    <svg width=2560 height=1440>
    <circle cx=1217 cy=720 r=10.308143104398608 stroke=""black"" stroke-width=""1"" fill=""black"" />
    <circle cx=1187.5481625588611 cy=720 r=14.725918720569442 stroke=""none"" stroke-width=""1.5"" fill=""none"" />
    <circle cx=1099.04 cy=808.5081625588612 r=14.725918720569442 stroke=""none"" stroke-width=""1.5"" fill=""none"" />
    <circle cx=1010.5318374411388 cy=720 r=14.725918720569442 stroke=""none"" stroke-width=""1.5"" fill=""none"" />
    <circle cx=1099.04 cy=631.4918374411388 r=14.725918720569442 stroke=""none"" stroke-width=""1.5"" fill=""none"" />
    <polygon points = ""1099.04,720 1103.1823273065027,734.7259187205694 1094.8976726934973,734.7259187205694"" stroke=""none"" stroke-width=""3"" fill = ""none"" />
    
    </svg>
    </div>
        ","","","","","","","","","","","","","","","","","","","","","","","","","","","","",""
"html-keyboard-response","77","238012","0.0-77.0","null","null","","
    <div style="" display: block;  position: relative;"">
    <svg width=2560 height=1440>
    
    <circle cx=1217 cy=720 r=10.308143104398608 stroke=""black"" stroke-width=""1"" fill=""black"" />
    <circle cx=1334.96 cy=720 r=14.725918720569442 stroke=""black"" stroke-width=""1.5"" fill=""none"" />
    <circle cx=1423.4681625588612 cy=720 r=14.725918720569442 stroke=""black"" stroke-width=""1.5"" fill=""none"" />
    <circle cx=1334.96 cy=808.5081625588612 r=14.725918720569442 stroke=""black"" stroke-width=""1.5"" fill=""none"" />
    <circle cx=1246.4518374411389 cy=720 r=14.725918720569442 stroke=""black"" stroke-width=""1.5"" fill=""none"" />
    <circle cx=1334.96 cy=631.4918374411388 r=14.725918720569442 stroke=""black"" stroke-width=""1.5"" fill=""none"" />
    <polygon points = ""1334.96,720 1339.1023273065027,705.2740812794306 1330.8176726934973,705.2740812794306"" stroke=""white"" stroke-width=""3"" fill = ""white"" />
    
    </svg>
    </div>
        ","","","","","","","","","","","","stimulus","","","","","","","","","","","","","","","","",""
"html-keyboard-response","78","246235","0.0-78.0","8223.300000011921","arrowdown","","
    <div style="" display: block;  position: relative;"">
    
    <svg width=2560 height=1440>
    <circle cx=1217 cy=720 r=10.308143104398608 stroke=""black"" stroke-width=""1"" fill=""black"" />
    <circle cx=1423.4681625588612 cy=720 r=14.725918720569442 stroke=""none"" stroke-width=""1.5"" fill=""none"" />
    <circle cx=1334.96 cy=808.5081625588612 r=14.725918720569442 stroke=""none"" stroke-width=""1.5"" fill=""none"" />
    <circle cx=1246.4518374411389 cy=720 r=14.725918720569442 stroke=""none"" stroke-width=""1.5"" fill=""none"" />
    <circle cx=1334.96 cy=631.4918374411388 r=14.725918720569442 stroke=""none"" stroke-width=""1.5"" fill=""none"" />
    <polygon points = ""1334.96,720 1339.1023273065027,705.2740812794306 1330.8176726934973,705.2740812794306"" stroke=""none"" stroke-width=""3"" fill = ""none"" />
    
    </svg>
    </div>
        ","","","","","","","","","","","","get_response","false","mAEaXGQIFClNRuQ4","","","false","true","true","117.96","4","379.524","88.5081625588611","3","1","0","","",""
"html-keyboard-response","79","246737","0.0-79.0","null","null","","
    <div style="" display: block;  position: relative;"">
    
    <svg width=2560 height=1440>
    <circle cx=1217 cy=720 r=10.308143104398608 stroke=""black"" stroke-width=""1"" fill=""black"" />
    <circle cx=1423.4681625588612 cy=720 r=14.725918720569442 stroke=""none"" stroke-width=""1.5"" fill=""none"" />
    <circle cx=1334.96 cy=808.5081625588612 r=14.725918720569442 stroke=""none"" stroke-width=""1.5"" fill=""none"" />
    <circle cx=1246.4518374411389 cy=720 r=14.725918720569442 stroke=""none"" stroke-width=""1.5"" fill=""none"" />
    <circle cx=1334.96 cy=631.4918374411388 r=14.725918720569442 stroke=""none"" stroke-width=""1.5"" fill=""none"" />
    <polygon points = ""1334.96,720 1339.1023273065027,705.2740812794306 1330.8176726934973,705.2740812794306"" stroke=""none"" stroke-width=""3"" fill = ""none"" />
    
    </svg>
    </div>
        ","","","","","","","","","","","","","","","","","","","","","","","","","","","","",""
"html-keyboard-response","80","246889","0.0-80.0","null","null","","
    <div style="" display: block;  position: relative;"">
    <svg width=2560 height=1440>
    
    <circle cx=1217 cy=720 r=10.308143104398608 stroke=""black"" stroke-width=""1"" fill=""black"" />
    <circle cx=1334.96 cy=720 r=14.725918720569442 stroke=""black"" stroke-width=""1.5"" fill=""none"" />
    <circle cx=1423.4681625588612 cy=720 r=14.725918720569442 stroke=""black"" stroke-width=""1.5"" fill=""none"" />
    <circle cx=1334.96 cy=808.5081625588612 r=14.725918720569442 stroke=""black"" stroke-width=""1.5"" fill=""none"" />
    <circle cx=1246.4518374411389 cy=720 r=14.725918720569442 stroke=""black"" stroke-width=""1.5"" fill=""none"" />
    <circle cx=1334.96 cy=631.4918374411388 r=14.725918720569442 stroke=""black"" stroke-width=""1.5"" fill=""none"" />
    <polygon points = ""1334.96,720 1339.1023273065027,734.7259187205694 1330.8176726934973,734.7259187205694"" stroke=""white"" stroke-width=""3"" fill = ""white"" />
    
    </svg>
    </div>
        ","","","","","","","","","","","","stimulus","","","","","","","","","","","","","","","","",""
"html-keyboard-response","81","247435","0.0-81.0","545.0999999940395","arrowdown","","
    <div style="" display: block;  position: relative;"">
    
    <svg width=2560 height=1440>
    <circle cx=1217 cy=720 r=10.308143104398608 stroke=""black"" stroke-width=""1"" fill=""black"" />
    <circle cx=1423.4681625588612 cy=720 r=14.725918720569442 stroke=""none"" stroke-width=""1.5"" fill=""none"" />
    <circle cx=1334.96 cy=808.5081625588612 r=14.725918720569442 stroke=""none"" stroke-width=""1.5"" fill=""none"" />
    <circle cx=1246.4518374411389 cy=720 r=14.725918720569442 stroke=""none"" stroke-width=""1.5"" fill=""none"" />
    <circle cx=1334.96 cy=631.4918374411388 r=14.725918720569442 stroke=""none"" stroke-width=""1.5"" fill=""none"" />
    <polygon points = ""1334.96,720 1339.1023273065027,734.7259187205694 1330.8176726934973,734.7259187205694"" stroke=""none"" stroke-width=""3"" fill = ""none"" />
    
    </svg>
    </div>
        ","","","","","","","","","","","","get_response","true","mAEaXGQIFClNRuQ4","","","false","false","true","117.96","4","379.524","88.5081625588611","3","1","0","","",""
"html-keyboard-response","82","247936","0.0-82.0","null","null","","
    <div style="" display: block;  position: relative;"">
    
    <svg width=2560 height=1440>
    <circle cx=1217 cy=720 r=10.308143104398608 stroke=""black"" stroke-width=""1"" fill=""black"" />
    <circle cx=1423.4681625588612 cy=720 r=14.725918720569442 stroke=""none"" stroke-width=""1.5"" fill=""none"" />
    <circle cx=1334.96 cy=808.5081625588612 r=14.725918720569442 stroke=""none"" stroke-width=""1.5"" fill=""none"" />
    <circle cx=1246.4518374411389 cy=720 r=14.725918720569442 stroke=""none"" stroke-width=""1.5"" fill=""none"" />
    <circle cx=1334.96 cy=631.4918374411388 r=14.725918720569442 stroke=""none"" stroke-width=""1.5"" fill=""none"" />
    <polygon points = ""1334.96,720 1339.1023273065027,734.7259187205694 1330.8176726934973,734.7259187205694"" stroke=""none"" stroke-width=""3"" fill = ""none"" />
    
    </svg>
    </div>
        ","","","","","","","","","","","","","","","","","","","","","","","","","","","","",""
"html-keyboard-response","83","248087","0.0-83.0","null","null","","
    <div style="" display: block;  position: relative;"">
    <svg width=2560 height=1440>
    
    <circle cx=1217 cy=720 r=10.308143104398608 stroke=""black"" stroke-width=""1"" fill=""black"" />
    <circle cx=1334.96 cy=720 r=14.725918720569442 stroke=""black"" stroke-width=""1.5"" fill=""none"" />
    <circle cx=1423.4681625588612 cy=720 r=14.725918720569442 stroke=""black"" stroke-width=""1.5"" fill=""none"" />
    <circle cx=1334.96 cy=808.5081625588612 r=14.725918720569442 stroke=""black"" stroke-width=""1.5"" fill=""none"" />
    <circle cx=1246.4518374411389 cy=720 r=14.725918720569442 stroke=""black"" stroke-width=""1.5"" fill=""none"" />
    <circle cx=1334.96 cy=631.4918374411388 r=14.725918720569442 stroke=""black"" stroke-width=""1.5"" fill=""none"" />
    <polygon points = ""1334.96,720 1339.1023273065027,705.2740812794306 1330.8176726934973,705.2740812794306"" stroke=""white"" stroke-width=""3"" fill = ""white"" />
    
    </svg>
    </div>
        ","","","","","","","","","","","","stimulus","","","","","","","","","","","","","","","","",""
"html-keyboard-response","84","248715","0.0-84.0","627.2999999821186","arrowup","","
    <div style="" display: block;  position: relative;"">
    
    <svg width=2560 height=1440>
    <circle cx=1217 cy=720 r=10.308143104398608 stroke=""black"" stroke-width=""1"" fill=""black"" />
    <circle cx=1423.4681625588612 cy=720 r=14.725918720569442 stroke=""none"" stroke-width=""1.5"" fill=""none"" />
    <circle cx=1334.96 cy=808.5081625588612 r=14.725918720569442 stroke=""none"" stroke-width=""1.5"" fill=""none"" />
    <circle cx=1246.4518374411389 cy=720 r=14.725918720569442 stroke=""none"" stroke-width=""1.5"" fill=""none"" />
    <circle cx=1334.96 cy=631.4918374411388 r=14.725918720569442 stroke=""none"" stroke-width=""1.5"" fill=""none"" />
    <polygon points = ""1334.96,720 1339.1023273065027,705.2740812794306 1330.8176726934973,705.2740812794306"" stroke=""none"" stroke-width=""3"" fill = ""none"" />
    
    </svg>
    </div>
        ","","","","","","","","","","","","get_response","true","mAEaXGQIFClNRuQ4","","","false","true","true","117.96","4","379.524","88.5081625588611","3","1","0","","",""
"html-keyboard-response","85","249216","0.0-85.0","null","null","","
    <div style="" display: block;  position: relative;"">
    
    <svg width=2560 height=1440>
    <circle cx=1217 cy=720 r=10.308143104398608 stroke=""black"" stroke-width=""1"" fill=""black"" />
    <circle cx=1423.4681625588612 cy=720 r=14.725918720569442 stroke=""none"" stroke-width=""1.5"" fill=""none"" />
    <circle cx=1334.96 cy=808.5081625588612 r=14.725918720569442 stroke=""none"" stroke-width=""1.5"" fill=""none"" />
    <circle cx=1246.4518374411389 cy=720 r=14.725918720569442 stroke=""none"" stroke-width=""1.5"" fill=""none"" />
    <circle cx=1334.96 cy=631.4918374411388 r=14.725918720569442 stroke=""none"" stroke-width=""1.5"" fill=""none"" />
    <polygon points = ""1334.96,720 1339.1023273065027,705.2740812794306 1330.8176726934973,705.2740812794306"" stroke=""none"" stroke-width=""3"" fill = ""none"" />
    
    </svg>
    </div>
        ","","","","","","","","","","","","","","","","","","","","","","","","","","","","",""
"html-keyboard-response","86","249369","0.0-86.0","null","null","","
    <div style="" display: block;  position: relative;"">
    <svg width=2560 height=1440>
    
    <circle cx=1217 cy=720 r=10.308143104398608 stroke=""black"" stroke-width=""1"" fill=""black"" />
    <circle cx=1099.04 cy=720 r=14.725918720569442 stroke=""black"" stroke-width=""1.5"" fill=""none"" />
    <circle cx=1187.5481625588611 cy=720 r=14.725918720569442 stroke=""black"" stroke-width=""1.5"" fill=""none"" />
    <circle cx=1099.04 cy=808.5081625588612 r=14.725918720569442 stroke=""black"" stroke-width=""1.5"" fill=""none"" />
    <circle cx=1010.5318374411388 cy=720 r=14.725918720569442 stroke=""black"" stroke-width=""1.5"" fill=""none"" />
    <circle cx=1099.04 cy=631.4918374411388 r=14.725918720569442 stroke=""black"" stroke-width=""1.5"" fill=""none"" />
    <polygon points = ""1099.04,720 1103.1823273065027,705.2740812794306 1094.8976726934973,705.2740812794306"" stroke=""white"" stroke-width=""3"" fill = ""white"" />
    
    </svg>
    </div>
        ","","","","","","","","","","","","stimulus","","","","","","","","","","","","","","","","",""
"html-keyboard-response","87","249715","0.0-87.0","345.69999998807907","arrowup","","
    <div style="" display: block;  position: relative;"">
    
    <svg width=2560 height=1440>
    <circle cx=1217 cy=720 r=10.308143104398608 stroke=""black"" stroke-width=""1"" fill=""black"" />
    <circle cx=1187.5481625588611 cy=720 r=14.725918720569442 stroke=""none"" stroke-width=""1.5"" fill=""none"" />
    <circle cx=1099.04 cy=808.5081625588612 r=14.725918720569442 stroke=""none"" stroke-width=""1.5"" fill=""none"" />
    <circle cx=1010.5318374411388 cy=720 r=14.725918720569442 stroke=""none"" stroke-width=""1.5"" fill=""none"" />
    <circle cx=1099.04 cy=631.4918374411388 r=14.725918720569442 stroke=""none"" stroke-width=""1.5"" fill=""none"" />
    <polygon points = ""1099.04,720 1103.1823273065027,705.2740812794306 1094.8976726934973,705.2740812794306"" stroke=""none"" stroke-width=""3"" fill = ""none"" />
    
    </svg>
    </div>
        ","","","","","","","","","","","","get_response","true","mAEaXGQIFClNRuQ4","","","true","true","true","117.96","4","379.524","88.5081625588611","3","1","0","","",""
"html-keyboard-response","88","250217","0.0-88.0","null","null","","
    <div style="" display: block;  position: relative;"">
    
    <svg width=2560 height=1440>
    <circle cx=1217 cy=720 r=10.308143104398608 stroke=""black"" stroke-width=""1"" fill=""black"" />
    <circle cx=1187.5481625588611 cy=720 r=14.725918720569442 stroke=""none"" stroke-width=""1.5"" fill=""none"" />
    <circle cx=1099.04 cy=808.5081625588612 r=14.725918720569442 stroke=""none"" stroke-width=""1.5"" fill=""none"" />
    <circle cx=1010.5318374411388 cy=720 r=14.725918720569442 stroke=""none"" stroke-width=""1.5"" fill=""none"" />
    <circle cx=1099.04 cy=631.4918374411388 r=14.725918720569442 stroke=""none"" stroke-width=""1.5"" fill=""none"" />
    <polygon points = ""1099.04,720 1103.1823273065027,705.2740812794306 1094.8976726934973,705.2740812794306"" stroke=""none"" stroke-width=""3"" fill = ""none"" />
    
    </svg>
    </div>
        ","","","","","","","","","","","","","","","","","","","","","","","","","","","","",""
"html-keyboard-response","89","250369","0.0-89.0","null","null","","
    <div style="" display: block;  position: relative;"">
    <svg width=2560 height=1440>
    
    <circle cx=1217 cy=720 r=10.308143104398608 stroke=""black"" stroke-width=""1"" fill=""black"" />
    <circle cx=1334.96 cy=720 r=14.725918720569442 stroke=""black"" stroke-width=""1.5"" fill=""none"" />
    <circle cx=1415.421965962601 cy=720 r=14.725918720569442 stroke=""black"" stroke-width=""1.5"" fill=""none"" />
    <circle cx=1334.96 cy=800.461965962601 r=14.725918720569442 stroke=""black"" stroke-width=""1.5"" fill=""none"" />
    <circle cx=1254.498034037399 cy=720 r=14.725918720569442 stroke=""black"" stroke-width=""1.5"" fill=""none"" />
    <circle cx=1334.96 cy=639.538034037399 r=14.725918720569442 stroke=""black"" stroke-width=""1.5"" fill=""none"" />
    <polygon points = ""1334.96,720 1339.1023273065027,734.7259187205694 1330.8176726934973,734.7259187205694"" stroke=""white"" stroke-width=""3"" fill = ""white"" />
    
    </svg>
    </div>
        ","","","","","","","","","","","","stimulus","","","","","","","","","","","","","","","","",""
"html-keyboard-response","90","250707","0.0-90.0","337.59999999403954","arrowdown","","
    <div style="" display: block;  position: relative;"">
    
    <svg width=2560 height=1440>
    <circle cx=1217 cy=720 r=10.308143104398608 stroke=""black"" stroke-width=""1"" fill=""black"" />
    <circle cx=1415.421965962601 cy=720 r=14.725918720569442 stroke=""none"" stroke-width=""1.5"" fill=""none"" />
    <circle cx=1334.96 cy=800.461965962601 r=14.725918720569442 stroke=""none"" stroke-width=""1.5"" fill=""none"" />
    <circle cx=1254.498034037399 cy=720 r=14.725918720569442 stroke=""none"" stroke-width=""1.5"" fill=""none"" />
    <circle cx=1334.96 cy=639.538034037399 r=14.725918720569442 stroke=""none"" stroke-width=""1.5"" fill=""none"" />
    <polygon points = ""1334.96,720 1339.1023273065027,734.7259187205694 1330.8176726934973,734.7259187205694"" stroke=""none"" stroke-width=""3"" fill = ""none"" />
    
    </svg>
    </div>
        ","","","","","","","","","","","","get_response","true","mAEaXGQIFClNRuQ4","","","false","false","true","117.96","4","379.524","80.461965962601","2.73","1","0","","",""
"html-keyboard-response","91","251208","0.0-91.0","null","null","","
    <div style="" display: block;  position: relative;"">
    
    <svg width=2560 height=1440>
    <circle cx=1217 cy=720 r=10.308143104398608 stroke=""black"" stroke-width=""1"" fill=""black"" />
    <circle cx=1415.421965962601 cy=720 r=14.725918720569442 stroke=""none"" stroke-width=""1.5"" fill=""none"" />
    <circle cx=1334.96 cy=800.461965962601 r=14.725918720569442 stroke=""none"" stroke-width=""1.5"" fill=""none"" />
    <circle cx=1254.498034037399 cy=720 r=14.725918720569442 stroke=""none"" stroke-width=""1.5"" fill=""none"" />
    <circle cx=1334.96 cy=639.538034037399 r=14.725918720569442 stroke=""none"" stroke-width=""1.5"" fill=""none"" />
    <polygon points = ""1334.96,720 1339.1023273065027,734.7259187205694 1330.8176726934973,734.7259187205694"" stroke=""none"" stroke-width=""3"" fill = ""none"" />
    
    </svg>
    </div>
        ","","","","","","","","","","","","","","","","","","","","","","","","","","","","",""
"html-keyboard-response","92","251367","0.0-92.0","null","null","","
    <div style="" display: block;  position: relative;"">
    <svg width=2560 height=1440>
    
    <circle cx=1217 cy=720 r=10.308143104398608 stroke=""black"" stroke-width=""1"" fill=""black"" />
    <circle cx=1334.96 cy=720 r=14.725918720569442 stroke=""black"" stroke-width=""1.5"" fill=""none"" />
    <circle cx=1408.1072417841829 cy=720 r=14.725918720569442 stroke=""black"" stroke-width=""1.5"" fill=""none"" />
    <circle cx=1334.96 cy=793.1472417841827 r=14.725918720569442 stroke=""black"" stroke-width=""1.5"" fill=""none"" />
    <circle cx=1261.8127582158172 cy=720 r=14.725918720569442 stroke=""black"" stroke-width=""1.5"" fill=""none"" />
    <circle cx=1334.96 cy=646.8527582158173 r=14.725918720569442 stroke=""black"" stroke-width=""1.5"" fill=""none"" />
    <polygon points = ""1334.96,720 1339.1023273065027,705.2740812794306 1330.8176726934973,705.2740812794306"" stroke=""white"" stroke-width=""3"" fill = ""white"" />
    
    </svg>
    </div>
        ","","","","","","","","","","","","stimulus","","","","","","","","","","","","","","","","",""
"html-keyboard-response","93","251651","0.0-93.0","283.7000000178814","arrowdown","","
    <div style="" display: block;  position: relative;"">
    
    <svg width=2560 height=1440>
    <circle cx=1217 cy=720 r=10.308143104398608 stroke=""black"" stroke-width=""1"" fill=""black"" />
    <circle cx=1408.1072417841829 cy=720 r=14.725918720569442 stroke=""none"" stroke-width=""1.5"" fill=""none"" />
    <circle cx=1334.96 cy=793.1472417841827 r=14.725918720569442 stroke=""none"" stroke-width=""1.5"" fill=""none"" />
    <circle cx=1261.8127582158172 cy=720 r=14.725918720569442 stroke=""none"" stroke-width=""1.5"" fill=""none"" />
    <circle cx=1334.96 cy=646.8527582158173 r=14.725918720569442 stroke=""none"" stroke-width=""1.5"" fill=""none"" />
    <polygon points = ""1334.96,720 1339.1023273065027,705.2740812794306 1330.8176726934973,705.2740812794306"" stroke=""none"" stroke-width=""3"" fill = ""none"" />
    
    </svg>
    </div>
        ","","","","","","","","","","","","get_response","false","mAEaXGQIFClNRuQ4","","","false","true","true","117.96","4","379.524","73.14724178418273","2.48","1","0","","",""
"html-keyboard-response","94","251763","0.0-94.0","111.5","arrowup","","
    <div style="" display: block;  position: relative;"">
    
    <svg width=2560 height=1440>
    <circle cx=1217 cy=720 r=10.308143104398608 stroke=""black"" stroke-width=""1"" fill=""black"" />
    <circle cx=1408.1072417841829 cy=720 r=14.725918720569442 stroke=""none"" stroke-width=""1.5"" fill=""none"" />
    <circle cx=1334.96 cy=793.1472417841827 r=14.725918720569442 stroke=""none"" stroke-width=""1.5"" fill=""none"" />
    <circle cx=1261.8127582158172 cy=720 r=14.725918720569442 stroke=""none"" stroke-width=""1.5"" fill=""none"" />
    <circle cx=1334.96 cy=646.8527582158173 r=14.725918720569442 stroke=""none"" stroke-width=""1.5"" fill=""none"" />
    <polygon points = ""1334.96,720 1339.1023273065027,705.2740812794306 1330.8176726934973,705.2740812794306"" stroke=""none"" stroke-width=""3"" fill = ""none"" />
    
    </svg>
    </div>
        ","","","","","","","","","","","","","","","","","","","","","","","","","","","","",""
"html-keyboard-response","95","251915","0.0-95.0","null","null","","
    <div style="" display: block;  position: relative;"">
    <svg width=2560 height=1440>
    
    <circle cx=1217 cy=720 r=10.308143104398608 stroke=""black"" stroke-width=""1"" fill=""black"" />
    <circle cx=1099.04 cy=720 r=14.725918720569442 stroke=""black"" stroke-width=""1.5"" fill=""none"" />
    <circle cx=1187.5481625588611 cy=720 r=14.725918720569442 stroke=""black"" stroke-width=""1.5"" fill=""none"" />
    <circle cx=1099.04 cy=808.5081625588612 r=14.725918720569442 stroke=""black"" stroke-width=""1.5"" fill=""none"" />
    <circle cx=1010.5318374411388 cy=720 r=14.725918720569442 stroke=""black"" stroke-width=""1.5"" fill=""none"" />
    <circle cx=1099.04 cy=631.4918374411388 r=14.725918720569442 stroke=""black"" stroke-width=""1.5"" fill=""none"" />
    <polygon points = ""1099.04,720 1103.1823273065027,734.7259187205694 1094.8976726934973,734.7259187205694"" stroke=""white"" stroke-width=""3"" fill = ""white"" />
    
    </svg>
    </div>
        ","","","","","","","","","","","","stimulus","","","","","","","","","","","","","","","","",""
"html-keyboard-response","96","252459","0.0-96.0","544","arrowdown","","
    <div style="" display: block;  position: relative;"">
    
