"trial_type","trial_index","time_elapsed","internal_node_id","rt","response","success","stimulus","start_time","start_time_unix","item_width_mm","item_height_mm","item_width_px","px2mm","view_dist_mm","item_width_deg","px2deg","win_width_deg","win_height_deg","trialType","correct","participantID","criticalSpacing","criticalSpacing_deg","isLeft","isUp","isEccen4","eccentricity","eccentricity_deg","viewingDistanceMean","critical_spacing","critical_spacing_deg","crowding_session","correctRate","viewDistance_1","viewDistance_2","viewDistance_3"
"pavlovia","0","5","0.0-0.0","","","","","","","","","","","","","","","","","","","","","","","","","","","","","","","","",""
"survey-text","1","4537","0.0-1.0","4475.799999952316","{""Q0"":""""}","","","","","","","","","","","","","","","","","","","","","","","","","","","","","","",""
"fullscreen","2","27362","0.0-2.0","","","true","","","","","","","","","","","","","","","","","","","","","","","","","","","","","",""
"html-keyboard-response","3","51235","0.0-3.0","23871.200000047684","arrowright","","<h1>Consent Form</h1>
       <p>By answering the following questions, you are participating in a study being performed by cognitive scientists in the Stanford Department of Psychology. If you have questions about this research, please contact us at stanfordpsych251@gmail.com. You must be at least 18 years old to participate. Your participation in this research is voluntary. You may decline to answer any or all of the following questions. You may decline further participation by closing the window, at any time, without adverse consequences. Your anonymity is assured; the researchers who have requested your participation will not receive any personal information about you.</p>
       <p>Press <b>any key</b> to start the experiment!</p>","","","","","","","","","","","","","","","","","","","","","","","","","","","","",""
"html-keyboard-response","4","59410","0.0-4.0","8173.800000071526","arrowdown","","<h1>Welcome to the Visual Crowding Experiment!</h1>
       <p>This test will take <b>10-12</b> minutes to complete.</p>
       <p>Press any key to start the experiment!</p>","11/24/2021, 9:24:45 AM","1637738685069","","","","","","","","","","","","","","","","","","","","","","","","","","",""
"html-keyboard-response","5","85221","0.0-5.0","25807.600000023842","arrowdown","","<div> 
<p> Before you begin this study, let&#39;s quickly test how far away you are sitting. You might know that vision tests at a doctor&#39;s practice often involve chinrests, the doctor basically asks you to sit away from a screen in a specific distance. We do this here with a <b>virtual chinrest</b>. </p>
<p> Please press the <b>down</b> arrow to continue.
</p>
</div>","","","","","","","","","","","","","","","","","","","","","","","","","","","","",""
"virtual-chinrest","6","272674","0.0-6.0","187450.39999997616","","","","","","85.6","53.98","308","3.6","527.77","9.2726175201712","33.21607942201776","48.16944166322702","27.095310935565198","","","","","","","","","","","","","","","","","",""
"html-keyboard-response","7","344122","0.0-7.0","71446.29999995232","arrowdown","","
	<h2 class=""bolded-blue"">Now, you will take a peripheral vision test!</h2>
<p> 
	<b>
		<font size=""140%"">1. </font>
	</b>
	<em><b>Please use both eyes for the following task.</b></em> First, you will see a screen (like the one in the image below) showing a <b>black dot</b> in the middle of the screen, with a group of circles displayed on either the <span class=""bolded-blue"">left</span> or <span class=""bolded-blue"">right</span> of the black dot for 150 ms. <span class=""bolded-blue"">Please make sure to focus on the black dot all the time!</span>

	<div>
		<img src=""example.png"" alt=""example"" style=""border: 2px solid black"" width=""600""/> 
	</div>
	
	<b>
		<font size=""140%"">2. </font>
	</b>
	Your task is to identify whether the opening of the <b class=""bolded-blue"">center circle</b> is upward by pressing UP or downward by pressing DOWN on your keyboard. The opening of the circle will only be upward or downward, not towards left or right.

	<div>
		<img src=""arrow_keys+.png"" alt=""arrows"" style=""border: 2px solid black"" width=""600""/>
	</div>
	<br>

<p>Please press the <b>down</b> arrow key to start the <span class=""bolded-blue"">practice task</span> (this first practice task will not count toward your final results).</p>
</p>
","","","","","","","","","","","","","","","","","","","","","","","","","","","","",""
"html-keyboard-response","8","344626","0.0-8.0","null","null","","
    <div style="" display: block;  position: relative;"">
    
    <svg width=1600 height=900>
    <circle cx=737 cy=450 r=9.992356313938528 stroke=""black"" stroke-width=""1"" fill=""black"" />
    <circle cx=NaN cy=450 r=14.274794734197897 stroke=""none"" stroke-width=""1.5"" fill=""none"" />
    <circle cx=565.83 cy=NaN r=14.274794734197897 stroke=""none"" stroke-width=""1.5"" fill=""none"" />
    <circle cx=NaN cy=450 r=14.274794734197897 stroke=""none"" stroke-width=""1.5"" fill=""none"" />
    <circle cx=565.83 cy=NaN r=14.274794734197897 stroke=""none"" stroke-width=""1.5"" fill=""none"" />
    <polygon points = ""565.83,450 569.8454283847562,464.2747947341979 561.8145716152438,464.2747947341979"" stroke=""none"" stroke-width=""3"" fill = ""none"" />
    
    </svg>
    </div>
        ","","","","","","","","","","","","","","","","","","","","","","","","","","","","",""
"html-keyboard-response","9","344780","0.0-9.0","null","null","","
    <div style="" display: block;  position: relative;"">
    <svg width=1600 height=900>
    
    <circle cx=737 cy=450 r=9.992356313938528 stroke=""black"" stroke-width=""1"" fill=""black"" />
    <circle cx=908.17 cy=450 r=14.274794734197897 stroke=""black"" stroke-width=""1.5"" fill=""none"" />
    <circle cx=1019.4304999999999 cy=450 r=14.274794734197897 stroke=""black"" stroke-width=""1.5"" fill=""none"" />
    <circle cx=908.17 cy=561.2605 r=14.274794734197897 stroke=""black"" stroke-width=""1.5"" fill=""none"" />
    <circle cx=796.9095 cy=450 r=14.274794734197897 stroke=""black"" stroke-width=""1.5"" fill=""none"" />
    <circle cx=908.17 cy=338.7395 r=14.274794734197897 stroke=""black"" stroke-width=""1.5"" fill=""none"" />
    <polygon points = ""908.17,450 912.1854283847562,435.7252052658021 904.1545716152438,435.7252052658021"" stroke=""white"" stroke-width=""3"" fill = ""white"" />
    
    </svg>
    </div>
        ","","","","","","","","","","","","stimulus","","","","","","","","","","","","","","","","",""
"html-keyboard-response","10","348482","0.0-10.0","3699.2000000476837","arrowdown","","
    <div style="" display: block;  position: relative;"">
    
    <svg width=1600 height=900>
    <circle cx=737 cy=450 r=9.992356313938528 stroke=""black"" stroke-width=""1"" fill=""black"" />
    <circle cx=1019.4304999999999 cy=450 r=14.274794734197897 stroke=""none"" stroke-width=""1.5"" fill=""none"" />
    <circle cx=908.17 cy=561.2605 r=14.274794734197897 stroke=""none"" stroke-width=""1.5"" fill=""none"" />
    <circle cx=796.9095 cy=450 r=14.274794734197897 stroke=""none"" stroke-width=""1.5"" fill=""none"" />
    <circle cx=908.17 cy=338.7395 r=14.274794734197897 stroke=""none"" stroke-width=""1.5"" fill=""none"" />
    <polygon points = ""908.17,450 912.1854283847562,435.7252052658021 904.1545716152438,435.7252052658021"" stroke=""none"" stroke-width=""3"" fill = ""none"" />
    
    </svg>
    </div>
        ","","","","","","","","","","","","practice_get_response","false","opYZckdMKz6qmuHF","111.2605","3.89","false","true","false","171.17","6","455.784","","","","","","",""
"html-keyboard-response","11","348987","0.0-11.0","null","null","","
    <div style="" display: block;  position: relative;"">
    
    <svg width=1600 height=900>
    <circle cx=737 cy=450 r=9.992356313938528 stroke=""black"" stroke-width=""1"" fill=""black"" />
    <circle cx=1019.4304999999999 cy=450 r=14.274794734197897 stroke=""none"" stroke-width=""1.5"" fill=""none"" />
    <circle cx=908.17 cy=561.2605 r=14.274794734197897 stroke=""none"" stroke-width=""1.5"" fill=""none"" />
    <circle cx=796.9095 cy=450 r=14.274794734197897 stroke=""none"" stroke-width=""1.5"" fill=""none"" />
    <circle cx=908.17 cy=338.7395 r=14.274794734197897 stroke=""none"" stroke-width=""1.5"" fill=""none"" />
    <polygon points = ""908.17,450 912.1854283847562,435.7252052658021 904.1545716152438,435.7252052658021"" stroke=""none"" stroke-width=""3"" fill = ""none"" />
    
    </svg>
    </div>
        ","","","","","","","","","","","","","","","","","","","","","","","","","","","","",""
"html-keyboard-response","12","349140","0.0-12.0","null","null","","
    <div style="" display: block;  position: relative;"">
    <svg width=1600 height=900>
    
    <circle cx=737 cy=450 r=9.992356313938528 stroke=""black"" stroke-width=""1"" fill=""black"" />
    <circle cx=565.83 cy=450 r=14.274794734197897 stroke=""black"" stroke-width=""1.5"" fill=""none"" />
    <circle cx=708.4504105316042 cy=450 r=14.274794734197897 stroke=""black"" stroke-width=""1.5"" fill=""none"" />
    <circle cx=565.83 cy=592.6204105316042 r=14.274794734197897 stroke=""black"" stroke-width=""1.5"" fill=""none"" />
    <circle cx=423.20958946839585 cy=450 r=14.274794734197897 stroke=""black"" stroke-width=""1.5"" fill=""none"" />
    <circle cx=565.83 cy=307.3795894683958 r=14.274794734197897 stroke=""black"" stroke-width=""1.5"" fill=""none"" />
    <polygon points = ""565.83,450 569.8454283847562,435.7252052658021 561.8145716152438,435.7252052658021"" stroke=""white"" stroke-width=""3"" fill = ""white"" />
    
    </svg>
    </div>
        ","","","","","","","","","","","","stimulus","","","","","","","","","","","","","","","","",""
"html-keyboard-response","13","349977","0.0-13.0","835.2999999523163","arrowup","","
    <div style="" display: block;  position: relative;"">
    
    <svg width=1600 height=900>
    <circle cx=737 cy=450 r=9.992356313938528 stroke=""black"" stroke-width=""1"" fill=""black"" />
    <circle cx=708.4504105316042 cy=450 r=14.274794734197897 stroke=""none"" stroke-width=""1.5"" fill=""none"" />
    <circle cx=565.83 cy=592.6204105316042 r=14.274794734197897 stroke=""none"" stroke-width=""1.5"" fill=""none"" />
    <circle cx=423.20958946839585 cy=450 r=14.274794734197897 stroke=""none"" stroke-width=""1.5"" fill=""none"" />
    <circle cx=565.83 cy=307.3795894683958 r=14.274794734197897 stroke=""none"" stroke-width=""1.5"" fill=""none"" />
    <polygon points = ""565.83,450 569.8454283847562,435.7252052658021 561.8145716152438,435.7252052658021"" stroke=""none"" stroke-width=""3"" fill = ""none"" />
    
    </svg>
    </div>
        ","","","","","","","","","","","","practice_get_response","true","opYZckdMKz6qmuHF","142.6204105316042","4.99","true","true","false","171.17","6","455.784","","","","","","",""
"html-keyboard-response","14","350478","0.0-14.0","null","null","","
    <div style="" display: block;  position: relative;"">
    
    <svg width=1600 height=900>
    <circle cx=737 cy=450 r=9.992356313938528 stroke=""black"" stroke-width=""1"" fill=""black"" />
    <circle cx=708.4504105316042 cy=450 r=14.274794734197897 stroke=""none"" stroke-width=""1.5"" fill=""none"" />
    <circle cx=565.83 cy=592.6204105316042 r=14.274794734197897 stroke=""none"" stroke-width=""1.5"" fill=""none"" />
    <circle cx=423.20958946839585 cy=450 r=14.274794734197897 stroke=""none"" stroke-width=""1.5"" fill=""none"" />
    <circle cx=565.83 cy=307.3795894683958 r=14.274794734197897 stroke=""none"" stroke-width=""1.5"" fill=""none"" />
    <polygon points = ""565.83,450 569.8454283847562,435.7252052658021 561.8145716152438,435.7252052658021"" stroke=""none"" stroke-width=""3"" fill = ""none"" />
    
    </svg>
    </div>
        ","","","","","","","","","","","","","","","","","","","","","","","","","","","","",""
"html-keyboard-response","15","350632","0.0-15.0","null","null","","
    <div style="" display: block;  position: relative;"">
    <svg width=1600 height=900>
    
    <circle cx=737 cy=450 r=9.992356313938528 stroke=""black"" stroke-width=""1"" fill=""black"" />
    <circle cx=908.17 cy=450 r=14.274794734197897 stroke=""black"" stroke-width=""1.5"" fill=""none"" />
    <circle cx=1050.7904105316043 cy=450 r=14.274794734197897 stroke=""black"" stroke-width=""1.5"" fill=""none"" />
    <circle cx=908.17 cy=592.6204105316042 r=14.274794734197897 stroke=""black"" stroke-width=""1.5"" fill=""none"" />
    <circle cx=765.5495894683958 cy=450 r=14.274794734197897 stroke=""black"" stroke-width=""1.5"" fill=""none"" />
    <circle cx=908.17 cy=307.3795894683958 r=14.274794734197897 stroke=""black"" stroke-width=""1.5"" fill=""none"" />
    <polygon points = ""908.17,450 912.1854283847562,464.2747947341979 904.1545716152438,464.2747947341979"" stroke=""white"" stroke-width=""3"" fill = ""white"" />
    
    </svg>
    </div>
        ","","","","","","","","","","","","stimulus","","","","","","","","","","","","","","","","",""
"html-keyboard-response","16","351906","0.0-16.0","1272.8999999761581","arrowdown","","
    <div style="" display: block;  position: relative;"">
    
    <svg width=1600 height=900>
    <circle cx=737 cy=450 r=9.992356313938528 stroke=""black"" stroke-width=""1"" fill=""black"" />
    <circle cx=1050.7904105316043 cy=450 r=14.274794734197897 stroke=""none"" stroke-width=""1.5"" fill=""none"" />
    <circle cx=908.17 cy=592.6204105316042 r=14.274794734197897 stroke=""none"" stroke-width=""1.5"" fill=""none"" />
    <circle cx=765.5495894683958 cy=450 r=14.274794734197897 stroke=""none"" stroke-width=""1.5"" fill=""none"" />
    <circle cx=908.17 cy=307.3795894683958 r=14.274794734197897 stroke=""none"" stroke-width=""1.5"" fill=""none"" />
    <polygon points = ""908.17,450 912.1854283847562,464.2747947341979 904.1545716152438,464.2747947341979"" stroke=""none"" stroke-width=""3"" fill = ""none"" />
    
    </svg>
    </div>
        ","","","","","","","","","","","","practice_get_response","true","opYZckdMKz6qmuHF","142.6204105316042","4.99","false","false","false","171.17","6","455.784","","","","","","",""
"html-keyboard-response","17","352408","0.0-17.0","null","null","","
    <div style="" display: block;  position: relative;"">
    
    <svg width=1600 height=900>
    <circle cx=737 cy=450 r=9.992356313938528 stroke=""black"" stroke-width=""1"" fill=""black"" />
    <circle cx=1050.7904105316043 cy=450 r=14.274794734197897 stroke=""none"" stroke-width=""1.5"" fill=""none"" />
    <circle cx=908.17 cy=592.6204105316042 r=14.274794734197897 stroke=""none"" stroke-width=""1.5"" fill=""none"" />
    <circle cx=765.5495894683958 cy=450 r=14.274794734197897 stroke=""none"" stroke-width=""1.5"" fill=""none"" />
    <circle cx=908.17 cy=307.3795894683958 r=14.274794734197897 stroke=""none"" stroke-width=""1.5"" fill=""none"" />
    <polygon points = ""908.17,450 912.1854283847562,464.2747947341979 904.1545716152438,464.2747947341979"" stroke=""none"" stroke-width=""3"" fill = ""none"" />
    
    </svg>
    </div>
        ","","","","","","","","","","","","","","","","","","","","","","","","","","","","",""
"html-keyboard-response","18","352562","0.0-18.0","null","null","","
    <div style="" display: block;  position: relative;"">
    <svg width=1600 height=900>
    
    <circle cx=737 cy=450 r=9.992356313938528 stroke=""black"" stroke-width=""1"" fill=""black"" />
    <circle cx=565.83 cy=450 r=14.274794734197897 stroke=""black"" stroke-width=""1.5"" fill=""none"" />
    <circle cx=708.4504105316042 cy=450 r=14.274794734197897 stroke=""black"" stroke-width=""1.5"" fill=""none"" />
    <circle cx=565.83 cy=592.6204105316042 r=14.274794734197897 stroke=""black"" stroke-width=""1.5"" fill=""none"" />
    <circle cx=423.20958946839585 cy=450 r=14.274794734197897 stroke=""black"" stroke-width=""1.5"" fill=""none"" />
    <circle cx=565.83 cy=307.3795894683958 r=14.274794734197897 stroke=""black"" stroke-width=""1.5"" fill=""none"" />
    <polygon points = ""565.83,450 569.8454283847562,435.7252052658021 561.8145716152438,435.7252052658021"" stroke=""white"" stroke-width=""3"" fill = ""white"" />
    
    </svg>
    </div>
        ","","","","","","","","","","","","stimulus","","","","","","","","","","","","","","","","",""
"html-keyboard-response","19","353041","0.0-19.0","477.2000000476837","arrowup","","
    <div style="" display: block;  position: relative;"">
    
    <svg width=1600 height=900>
    <circle cx=737 cy=450 r=9.992356313938528 stroke=""black"" stroke-width=""1"" fill=""black"" />
    <circle cx=708.4504105316042 cy=450 r=14.274794734197897 stroke=""none"" stroke-width=""1.5"" fill=""none"" />
    <circle cx=565.83 cy=592.6204105316042 r=14.274794734197897 stroke=""none"" stroke-width=""1.5"" fill=""none"" />
    <circle cx=423.20958946839585 cy=450 r=14.274794734197897 stroke=""none"" stroke-width=""1.5"" fill=""none"" />
    <circle cx=565.83 cy=307.3795894683958 r=14.274794734197897 stroke=""none"" stroke-width=""1.5"" fill=""none"" />
    <polygon points = ""565.83,450 569.8454283847562,435.7252052658021 561.8145716152438,435.7252052658021"" stroke=""none"" stroke-width=""3"" fill = ""none"" />
    
    </svg>
    </div>
        ","","","","","","","","","","","","practice_get_response","true","opYZckdMKz6qmuHF","142.6204105316042","4.99","true","true","false","171.17","6","455.784","","","","","","",""
"html-keyboard-response","20","353543","0.0-20.0","null","null","","
    <div style="" display: block;  position: relative;"">
    
    <svg width=1600 height=900>
    <circle cx=737 cy=450 r=9.992356313938528 stroke=""black"" stroke-width=""1"" fill=""black"" />
    <circle cx=708.4504105316042 cy=450 r=14.274794734197897 stroke=""none"" stroke-width=""1.5"" fill=""none"" />
    <circle cx=565.83 cy=592.6204105316042 r=14.274794734197897 stroke=""none"" stroke-width=""1.5"" fill=""none"" />
    <circle cx=423.20958946839585 cy=450 r=14.274794734197897 stroke=""none"" stroke-width=""1.5"" fill=""none"" />
    <circle cx=565.83 cy=307.3795894683958 r=14.274794734197897 stroke=""none"" stroke-width=""1.5"" fill=""none"" />
    <polygon points = ""565.83,450 569.8454283847562,435.7252052658021 561.8145716152438,435.7252052658021"" stroke=""none"" stroke-width=""3"" fill = ""none"" />
    
    </svg>
    </div>
        ","","","","","","","","","","","","","","","","","","","","","","","","","","","","",""
"html-keyboard-response","21","353696","0.0-21.0","null","null","","
    <div style="" display: block;  position: relative;"">
    <svg width=1600 height=900>
    
    <circle cx=737 cy=450 r=9.992356313938528 stroke=""black"" stroke-width=""1"" fill=""black"" />
    <circle cx=565.83 cy=450 r=14.274794734197897 stroke=""black"" stroke-width=""1.5"" fill=""none"" />
    <circle cx=695.4849186650947 cy=450 r=14.274794734197897 stroke=""black"" stroke-width=""1.5"" fill=""none"" />
    <circle cx=565.83 cy=579.6549186650947 r=14.274794734197897 stroke=""black"" stroke-width=""1.5"" fill=""none"" />
    <circle cx=436.17508133490537 cy=450 r=14.274794734197897 stroke=""black"" stroke-width=""1.5"" fill=""none"" />
    <circle cx=565.83 cy=320.34508133490533 r=14.274794734197897 stroke=""black"" stroke-width=""1.5"" fill=""none"" />
    <polygon points = ""565.83,450 569.8454283847562,464.2747947341979 561.8145716152438,464.2747947341979"" stroke=""white"" stroke-width=""3"" fill = ""white"" />
    
    </svg>
    </div>
        ","","","","","","","","","","","","stimulus","","","","","","","","","","","","","","","","",""
"html-keyboard-response","22","354185","0.0-22.0","487.39999997615814","arrowdown","","
    <div style="" display: block;  position: relative;"">
    
    <svg width=1600 height=900>
    <circle cx=737 cy=450 r=9.992356313938528 stroke=""black"" stroke-width=""1"" fill=""black"" />
    <circle cx=695.4849186650947 cy=450 r=14.274794734197897 stroke=""none"" stroke-width=""1.5"" fill=""none"" />
    <circle cx=565.83 cy=579.6549186650947 r=14.274794734197897 stroke=""none"" stroke-width=""1.5"" fill=""none"" />
    <circle cx=436.17508133490537 cy=450 r=14.274794734197897 stroke=""none"" stroke-width=""1.5"" fill=""none"" />
    <circle cx=565.83 cy=320.34508133490533 r=14.274794734197897 stroke=""none"" stroke-width=""1.5"" fill=""none"" />
    <polygon points = ""565.83,450 569.8454283847562,464.2747947341979 561.8145716152438,464.2747947341979"" stroke=""none"" stroke-width=""3"" fill = ""none"" />
    
    </svg>
    </div>
        ","","","","","","","","","","","","practice_get_response","true","opYZckdMKz6qmuHF","129.6549186650947","4.54","true","false","false","171.17","6","455.784","","","","","","",""
"html-keyboard-response","23","364099","0.0-23.0","9911","arrowdown","","<div> 
<h2 class=""bolded-blue"">Well done!</h2>
<p> Now that you have the hang of it, we&#39;ll start the study. This session has 25 trials and takes about 2 minute to complete. </p> 
<p>If you are ready for the real deal, please press the <b>down</b> arrow to continue.
</p>
</div>","","","","","","","","","","","","","","","","","","","","","","","","","","","","",""
"html-keyboard-response","24","379172","0.0-24.0","15071.300000071526","arrowdown","","<div id=""continue""> 
<p>Again, please keep the <b>full screen</b> mode for the best experience.</p>
<p>Please do not move around and keep your eye on the black dot. Click <b>up</b> or <b>down</b> key on your keyboard to indicate the opening of the center circle. Make your best guess!</p>
<p>Please press the <b>down</b> arrow key to start the session 1. </p>
</div>","","","","","","","","","","","","","","","","","","","","","","","","","","","","",""
"html-keyboard-response","25","379675","0.0-25.0","null","null","","
    <div style="" display: block;  position: relative;"">
    
    <svg width=1600 height=900>
    <circle cx=737 cy=450 r=9.992356313938528 stroke=""black"" stroke-width=""1"" fill=""black"" />
    <circle cx=695.4849186650947 cy=450 r=14.274794734197897 stroke=""none"" stroke-width=""1.5"" fill=""none"" />
    <circle cx=565.83 cy=579.6549186650947 r=14.274794734197897 stroke=""none"" stroke-width=""1.5"" fill=""none"" />
    <circle cx=436.17508133490537 cy=450 r=14.274794734197897 stroke=""none"" stroke-width=""1.5"" fill=""none"" />
    <circle cx=565.83 cy=320.34508133490533 r=14.274794734197897 stroke=""none"" stroke-width=""1.5"" fill=""none"" />
    <polygon points = ""565.83,450 569.8454283847562,464.2747947341979 561.8145716152438,464.2747947341979"" stroke=""none"" stroke-width=""3"" fill = ""none"" />
    
    </svg>
    </div>
        ","","","","","","","","","","","","","","","","","","","","","","","","","","","","",""
"html-keyboard-response","26","379829","0.0-26.0","null","null","","
    <div style="" display: block;  position: relative;"">
    <svg width=1600 height=900>
    
    <circle cx=737 cy=450 r=9.992356313938528 stroke=""black"" stroke-width=""1"" fill=""black"" />
    <circle cx=908.17 cy=450 r=14.274794734197897 stroke=""black"" stroke-width=""1.5"" fill=""none"" />
    <circle cx=1019.4304999999999 cy=450 r=14.274794734197897 stroke=""black"" stroke-width=""1.5"" fill=""none"" />
    <circle cx=908.17 cy=561.2605 r=14.274794734197897 stroke=""black"" stroke-width=""1.5"" fill=""none"" />
    <circle cx=796.9095 cy=450 r=14.274794734197897 stroke=""black"" stroke-width=""1.5"" fill=""none"" />
    <circle cx=908.17 cy=338.7395 r=14.274794734197897 stroke=""black"" stroke-width=""1.5"" fill=""none"" />
    <polygon points = ""908.17,450 912.1854283847562,435.7252052658021 904.1545716152438,435.7252052658021"" stroke=""white"" stroke-width=""3"" fill = ""white"" />
    
    </svg>
    </div>
        ","","","","","","","","","","","","stimulus","","","","","","","","","","","","","","","","",""
"html-keyboard-response","27","380513","0.0-27.0","681.5","arrowup","","
    <div style="" display: block;  position: relative;"">
    
    <svg width=1600 height=900>
    <circle cx=737 cy=450 r=9.992356313938528 stroke=""black"" stroke-width=""1"" fill=""black"" />
    <circle cx=1019.4304999999999 cy=450 r=14.274794734197897 stroke=""none"" stroke-width=""1.5"" fill=""none"" />
    <circle cx=908.17 cy=561.2605 r=14.274794734197897 stroke=""none"" stroke-width=""1.5"" fill=""none"" />
    <circle cx=796.9095 cy=450 r=14.274794734197897 stroke=""none"" stroke-width=""1.5"" fill=""none"" />
    <circle cx=908.17 cy=338.7395 r=14.274794734197897 stroke=""none"" stroke-width=""1.5"" fill=""none"" />
    <polygon points = ""908.17,450 912.1854283847562,435.7252052658021 904.1545716152438,435.7252052658021"" stroke=""none"" stroke-width=""3"" fill = ""none"" />
    
    </svg>
    </div>
        ","","","","","","","","","","","","get_response","true","opYZckdMKz6qmuHF","","","false","true","false","171.17","6","455.784","111.2605","3.89","1","0","","",""
"html-keyboard-response","28","381015","0.0-28.0","null","null","","
    <div style="" display: block;  position: relative;"">
    
    <svg width=1600 height=900>
    <circle cx=737 cy=450 r=9.992356313938528 stroke=""black"" stroke-width=""1"" fill=""black"" />
    <circle cx=1019.4304999999999 cy=450 r=14.274794734197897 stroke=""none"" stroke-width=""1.5"" fill=""none"" />
    <circle cx=908.17 cy=561.2605 r=14.274794734197897 stroke=""none"" stroke-width=""1.5"" fill=""none"" />
    <circle cx=796.9095 cy=450 r=14.274794734197897 stroke=""none"" stroke-width=""1.5"" fill=""none"" />
    <circle cx=908.17 cy=338.7395 r=14.274794734197897 stroke=""none"" stroke-width=""1.5"" fill=""none"" />
    <polygon points = ""908.17,450 912.1854283847562,435.7252052658021 904.1545716152438,435.7252052658021"" stroke=""none"" stroke-width=""3"" fill = ""none"" />
    
    </svg>
    </div>
        ","","","","","","","","","","","","","","","","","","","","","","","","","","","","",""
"html-keyboard-response","29","381168","0.0-29.0","null","null","","
    <div style="" display: block;  position: relative;"">
    <svg width=1600 height=900>
    
    <circle cx=737 cy=450 r=9.992356313938528 stroke=""black"" stroke-width=""1"" fill=""black"" />
    <circle cx=565.83 cy=450 r=14.274794734197897 stroke=""black"" stroke-width=""1.5"" fill=""none"" />
    <circle cx=677.0905 cy=450 r=14.274794734197897 stroke=""black"" stroke-width=""1.5"" fill=""none"" />
    <circle cx=565.83 cy=561.2605 r=14.274794734197897 stroke=""black"" stroke-width=""1.5"" fill=""none"" />
    <circle cx=454.56950000000006 cy=450 r=14.274794734197897 stroke=""black"" stroke-width=""1.5"" fill=""none"" />
    <circle cx=565.83 cy=338.7395 r=14.274794734197897 stroke=""black"" stroke-width=""1.5"" fill=""none"" />
    <polygon points = ""565.83,450 569.8454283847562,435.7252052658021 561.8145716152438,435.7252052658021"" stroke=""white"" stroke-width=""3"" fill = ""white"" />
    
    </svg>
    </div>
        ","","","","","","","","","","","","stimulus","","","","","","","","","","","","","","","","",""
"html-keyboard-response","30","381481","0.0-30.0","311","arrowdown","","
    <div style="" display: block;  position: relative;"">
    
    <svg width=1600 height=900>
    <circle cx=737 cy=450 r=9.992356313938528 stroke=""black"" stroke-width=""1"" fill=""black"" />
    <circle cx=677.0905 cy=450 r=14.274794734197897 stroke=""none"" stroke-width=""1.5"" fill=""none"" />
    <circle cx=565.83 cy=561.2605 r=14.274794734197897 stroke=""none"" stroke-width=""1.5"" fill=""none"" />
    <circle cx=454.56950000000006 cy=450 r=14.274794734197897 stroke=""none"" stroke-width=""1.5"" fill=""none"" />
    <circle cx=565.83 cy=338.7395 r=14.274794734197897 stroke=""none"" stroke-width=""1.5"" fill=""none"" />
    <polygon points = ""565.83,450 569.8454283847562,435.7252052658021 561.8145716152438,435.7252052658021"" stroke=""none"" stroke-width=""3"" fill = ""none"" />
    
    </svg>
    </div>
        ","","","","","","","","","","","","get_response","false","opYZckdMKz6qmuHF","","","true","true","false","171.17","6","455.784","111.2605","3.89","1","0","","",""
"html-keyboard-response","31","381983","0.0-31.0","null","null","","
    <div style="" display: block;  position: relative;"">
    
    <svg width=1600 height=900>
    <circle cx=737 cy=450 r=9.992356313938528 stroke=""black"" stroke-width=""1"" fill=""black"" />
    <circle cx=677.0905 cy=450 r=14.274794734197897 stroke=""none"" stroke-width=""1.5"" fill=""none"" />
    <circle cx=565.83 cy=561.2605 r=14.274794734197897 stroke=""none"" stroke-width=""1.5"" fill=""none"" />
    <circle cx=454.56950000000006 cy=450 r=14.274794734197897 stroke=""none"" stroke-width=""1.5"" fill=""none"" />
    <circle cx=565.83 cy=338.7395 r=14.274794734197897 stroke=""none"" stroke-width=""1.5"" fill=""none"" />
    <polygon points = ""565.83,450 569.8454283847562,435.7252052658021 561.8145716152438,435.7252052658021"" stroke=""none"" stroke-width=""3"" fill = ""none"" />
    
    </svg>
    </div>
        ","","","","","","","","","","","","","","","","","","","","","","","","","","","","",""
"html-keyboard-response","32","382137","0.0-32.0","null","null","","
    <div style="" display: block;  position: relative;"">
    <svg width=1600 height=900>
    
    <circle cx=737 cy=450 r=9.992356313938528 stroke=""black"" stroke-width=""1"" fill=""black"" />
    <circle cx=908.17 cy=450 r=14.274794734197897 stroke=""black"" stroke-width=""1.5"" fill=""none"" />
    <circle cx=1050.7904105316043 cy=450 r=14.274794734197897 stroke=""black"" stroke-width=""1.5"" fill=""none"" />
    <circle cx=908.17 cy=592.6204105316042 r=14.274794734197897 stroke=""black"" stroke-width=""1.5"" fill=""none"" />
    <circle cx=765.5495894683958 cy=450 r=14.274794734197897 stroke=""black"" stroke-width=""1.5"" fill=""none"" />
    <circle cx=908.17 cy=307.3795894683958 r=14.274794734197897 stroke=""black"" stroke-width=""1.5"" fill=""none"" />
    <polygon points = ""908.17,450 912.1854283847562,435.7252052658021 904.1545716152438,435.7252052658021"" stroke=""white"" stroke-width=""3"" fill = ""white"" />
    
    </svg>
    </div>
        ","","","","","","","","","","","","stimulus","","","","","","","","","","","","","","","","",""
"html-keyboard-response","33","382617","0.0-33.0","478.2000000476837","arrowup","","
    <div style="" display: block;  position: relative;"">
    
    <svg width=1600 height=900>
    <circle cx=737 cy=450 r=9.992356313938528 stroke=""black"" stroke-width=""1"" fill=""black"" />
    <circle cx=1050.7904105316043 cy=450 r=14.274794734197897 stroke=""none"" stroke-width=""1.5"" fill=""none"" />
    <circle cx=908.17 cy=592.6204105316042 r=14.274794734197897 stroke=""none"" stroke-width=""1.5"" fill=""none"" />
    <circle cx=765.5495894683958 cy=450 r=14.274794734197897 stroke=""none"" stroke-width=""1.5"" fill=""none"" />
    <circle cx=908.17 cy=307.3795894683958 r=14.274794734197897 stroke=""none"" stroke-width=""1.5"" fill=""none"" />
    <polygon points = ""908.17,450 912.1854283847562,435.7252052658021 904.1545716152438,435.7252052658021"" stroke=""none"" stroke-width=""3"" fill = ""none"" />
    
    </svg>
    </div>
        ","","","","","","","","","","","","get_response","true","opYZckdMKz6qmuHF","","","false","true","false","171.17","6","455.784","142.6204105316042","4.99","1","0","","",""
"html-keyboard-response","34","383119","0.0-34.0","null","null","","
    <div style="" display: block;  position: relative;"">
    
    <svg width=1600 height=900>
    <circle cx=737 cy=450 r=9.992356313938528 stroke=""black"" stroke-width=""1"" fill=""black"" />
    <circle cx=1050.7904105316043 cy=450 r=14.274794734197897 stroke=""none"" stroke-width=""1.5"" fill=""none"" />
    <circle cx=908.17 cy=592.6204105316042 r=14.274794734197897 stroke=""none"" stroke-width=""1.5"" fill=""none"" />
    <circle cx=765.5495894683958 cy=450 r=14.274794734197897 stroke=""none"" stroke-width=""1.5"" fill=""none"" />
    <circle cx=908.17 cy=307.3795894683958 r=14.274794734197897 stroke=""none"" stroke-width=""1.5"" fill=""none"" />
    <polygon points = ""908.17,450 912.1854283847562,435.7252052658021 904.1545716152438,435.7252052658021"" stroke=""none"" stroke-width=""3"" fill = ""none"" />
    
    </svg>
    </div>
        ","","","","","","","","","","","","","","","","","","","","","","","","","","","","",""
"html-keyboard-response","35","383273","0.0-35.0","null","null","","
    <div style="" display: block;  position: relative;"">
    <svg width=1600 height=900>
    
    <circle cx=737 cy=450 r=9.992356313938528 stroke=""black"" stroke-width=""1"" fill=""black"" />
    <circle cx=908.17 cy=450 r=14.274794734197897 stroke=""black"" stroke-width=""1.5"" fill=""none"" />
    <circle cx=1050.7904105316043 cy=450 r=14.274794734197897 stroke=""black"" stroke-width=""1.5"" fill=""none"" />
    <circle cx=908.17 cy=592.6204105316042 r=14.274794734197897 stroke=""black"" stroke-width=""1.5"" fill=""none"" />
    <circle cx=765.5495894683958 cy=450 r=14.274794734197897 stroke=""black"" stroke-width=""1.5"" fill=""none"" />
    <circle cx=908.17 cy=307.3795894683958 r=14.274794734197897 stroke=""black"" stroke-width=""1.5"" fill=""none"" />
    <polygon points = ""908.17,450 912.1854283847562,435.7252052658021 904.1545716152438,435.7252052658021"" stroke=""white"" stroke-width=""3"" fill = ""white"" />
    
    </svg>
    </div>
        ","","","","","","","","","","","","stimulus","","","","","","","","","","","","","","","","",""
"html-keyboard-response","36","383683","0.0-36.0","407.5","arrowup","","
    <div style="" display: block;  position: relative;"">
    
    <svg width=1600 height=900>
    <circle cx=737 cy=450 r=9.992356313938528 stroke=""black"" stroke-width=""1"" fill=""black"" />
    <circle cx=1050.7904105316043 cy=450 r=14.274794734197897 stroke=""none"" stroke-width=""1.5"" fill=""none"" />
    <circle cx=908.17 cy=592.6204105316042 r=14.274794734197897 stroke=""none"" stroke-width=""1.5"" fill=""none"" />
    <circle cx=765.5495894683958 cy=450 r=14.274794734197897 stroke=""none"" stroke-width=""1.5"" fill=""none"" />
    <circle cx=908.17 cy=307.3795894683958 r=14.274794734197897 stroke=""none"" stroke-width=""1.5"" fill=""none"" />
    <polygon points = ""908.17,450 912.1854283847562,435.7252052658021 904.1545716152438,435.7252052658021"" stroke=""none"" stroke-width=""3"" fill = ""none"" />
    
    </svg>
    </div>
        ","","","","","","","","","","","","get_response","true","opYZckdMKz6qmuHF","","","false","true","false","171.17","6","455.784","142.6204105316042","4.99","1","0","","",""
"html-keyboard-response","37","384187","0.0-37.0","null","null","","
    <div style="" display: block;  position: relative;"">
    
    <svg width=1600 height=900>
    <circle cx=737 cy=450 r=9.992356313938528 stroke=""black"" stroke-width=""1"" fill=""black"" />
    <circle cx=1050.7904105316043 cy=450 r=14.274794734197897 stroke=""none"" stroke-width=""1.5"" fill=""none"" />
    <circle cx=908.17 cy=592.6204105316042 r=14.274794734197897 stroke=""none"" stroke-width=""1.5"" fill=""none"" />
    <circle cx=765.5495894683958 cy=450 r=14.274794734197897 stroke=""none"" stroke-width=""1.5"" fill=""none"" />
    <circle cx=908.17 cy=307.3795894683958 r=14.274794734197897 stroke=""none"" stroke-width=""1.5"" fill=""none"" />
    <polygon points = ""908.17,450 912.1854283847562,435.7252052658021 904.1545716152438,435.7252052658021"" stroke=""none"" stroke-width=""3"" fill = ""none"" />
    
    </svg>
    </div>
        ","","","","","","","","","","","","","","","","","","","","","","","","","","","","",""
"html-keyboard-response","38","384340","0.0-38.0","null","null","","
    <div style="" display: block;  position: relative;"">
    <svg width=1600 height=900>
    
    <circle cx=737 cy=450 r=9.992356313938528 stroke=""black"" stroke-width=""1"" fill=""black"" />
    <circle cx=908.17 cy=450 r=14.274794734197897 stroke=""black"" stroke-width=""1.5"" fill=""none"" />
    <circle cx=1050.7904105316043 cy=450 r=14.274794734197897 stroke=""black"" stroke-width=""1.5"" fill=""none"" />
    <circle cx=908.17 cy=592.6204105316042 r=14.274794734197897 stroke=""black"" stroke-width=""1.5"" fill=""none"" />
    <circle cx=765.5495894683958 cy=450 r=14.274794734197897 stroke=""black"" stroke-width=""1.5"" fill=""none"" />
    <circle cx=908.17 cy=307.3795894683958 r=14.274794734197897 stroke=""black"" stroke-width=""1.5"" fill=""none"" />
    <polygon points = ""908.17,450 912.1854283847562,464.2747947341979 904.1545716152438,464.2747947341979"" stroke=""white"" stroke-width=""3"" fill = ""white"" />
    
    </svg>
    </div>
        ","","","","","","","","","","","","stimulus","","","","","","","","","","","","","","","","",""
"html-keyboard-response","39","384852","0.0-39.0","508","arrowdown","","
    <div style="" display: block;  position: relative;"">
    
    <svg width=1600 height=900>
    <circle cx=737 cy=450 r=9.992356313938528 stroke=""black"" stroke-width=""1"" fill=""black"" />
    <circle cx=1050.7904105316043 cy=450 r=14.274794734197897 stroke=""none"" stroke-width=""1.5"" fill=""none"" />
    <circle cx=908.17 cy=592.6204105316042 r=14.274794734197897 stroke=""none"" stroke-width=""1.5"" fill=""none"" />
    <circle cx=765.5495894683958 cy=450 r=14.274794734197897 stroke=""none"" stroke-width=""1.5"" fill=""none"" />
    <circle cx=908.17 cy=307.3795894683958 r=14.274794734197897 stroke=""none"" stroke-width=""1.5"" fill=""none"" />
    <polygon points = ""908.17,450 912.1854283847562,464.2747947341979 904.1545716152438,464.2747947341979"" stroke=""none"" stroke-width=""3"" fill = ""none"" />
    
    </svg>
    </div>
        ","","","","","","","","","","","","get_response","true","opYZckdMKz6qmuHF","","","false","false","false","171.17","6","455.784","142.6204105316042","4.99","1","0","","",""
"html-keyboard-response","40","385354","0.0-40.0","null","null","","
    <div style="" display: block;  position: relative;"">
    
    <svg width=1600 height=900>
    <circle cx=737 cy=450 r=9.992356313938528 stroke=""black"" stroke-width=""1"" fill=""black"" />
    <circle cx=1050.7904105316043 cy=450 r=14.274794734197897 stroke=""none"" stroke-width=""1.5"" fill=""none"" />
    <circle cx=908.17 cy=592.6204105316042 r=14.274794734197897 stroke=""none"" stroke-width=""1.5"" fill=""none"" />
    <circle cx=765.5495894683958 cy=450 r=14.274794734197897 stroke=""none"" stroke-width=""1.5"" fill=""none"" />
    <circle cx=908.17 cy=307.3795894683958 r=14.274794734197897 stroke=""none"" stroke-width=""1.5"" fill=""none"" />
    <polygon points = ""908.17,450 912.1854283847562,464.2747947341979 904.1545716152438,464.2747947341979"" stroke=""none"" stroke-width=""3"" fill = ""none"" />
    
    </svg>
    </div>
        ","","","","","","","","","","","","","","","","","","","","","","","","","","","","",""
"html-keyboard-response","41","385508","0.0-41.0","null","null","","
    <div style="" display: block;  position: relative;"">
    <svg width=1600 height=900>
    
    <circle cx=737 cy=450 r=9.992356313938528 stroke=""black"" stroke-width=""1"" fill=""black"" />
    <circle cx=565.83 cy=450 r=14.274794734197897 stroke=""black"" stroke-width=""1.5"" fill=""none"" />
    <circle cx=695.4849186650947 cy=450 r=14.274794734197897 stroke=""black"" stroke-width=""1.5"" fill=""none"" />
    <circle cx=565.83 cy=579.6549186650947 r=14.274794734197897 stroke=""black"" stroke-width=""1.5"" fill=""none"" />
    <circle cx=436.17508133490537 cy=450 r=14.274794734197897 stroke=""black"" stroke-width=""1.5"" fill=""none"" />
    <circle cx=565.83 cy=320.34508133490533 r=14.274794734197897 stroke=""black"" stroke-width=""1.5"" fill=""none"" />
    <polygon points = ""565.83,450 569.8454283847562,435.7252052658021 561.8145716152438,435.7252052658021"" stroke=""white"" stroke-width=""3"" fill = ""white"" />
    
    </svg>
    </div>
        ","","","","","","","","","","","","stimulus","","","","","","","","","","","","","","","","",""
"html-keyboard-response","42","386027","0.0-42.0","517.6000000238419","arrowup","","
    <div style="" display: block;  position: relative;"">
    
    <svg width=1600 height=900>
    <circle cx=737 cy=450 r=9.992356313938528 stroke=""black"" stroke-width=""1"" fill=""black"" />
    <circle cx=695.4849186650947 cy=450 r=14.274794734197897 stroke=""none"" stroke-width=""1.5"" fill=""none"" />
    <circle cx=565.83 cy=579.6549186650947 r=14.274794734197897 stroke=""none"" stroke-width=""1.5"" fill=""none"" />
    <circle cx=436.17508133490537 cy=450 r=14.274794734197897 stroke=""none"" stroke-width=""1.5"" fill=""none"" />
    <circle cx=565.83 cy=320.34508133490533 r=14.274794734197897 stroke=""none"" stroke-width=""1.5"" fill=""none"" />
    <polygon points = ""565.83,450 569.8454283847562,435.7252052658021 561.8145716152438,435.7252052658021"" stroke=""none"" stroke-width=""3"" fill = ""none"" />
    
    </svg>
    </div>
        ","","","","","","","","","","","","get_response","true","opYZckdMKz6qmuHF","","","true","true","false","171.17","6","455.784","129.6549186650947","4.54","1","0","","",""
"html-keyboard-response","43","386530","0.0-43.0","null","null","","
    <div style="" display: block;  position: relative;"">
    
    <svg width=1600 height=900>
    <circle cx=737 cy=450 r=9.992356313938528 stroke=""black"" stroke-width=""1"" fill=""black"" />
    <circle cx=695.4849186650947 cy=450 r=14.274794734197897 stroke=""none"" stroke-width=""1.5"" fill=""none"" />
    <circle cx=565.83 cy=579.6549186650947 r=14.274794734197897 stroke=""none"" stroke-width=""1.5"" fill=""none"" />
    <circle cx=436.17508133490537 cy=450 r=14.274794734197897 stroke=""none"" stroke-width=""1.5"" fill=""none"" />
    <circle cx=565.83 cy=320.34508133490533 r=14.274794734197897 stroke=""none"" stroke-width=""1.5"" fill=""none"" />
    <polygon points = ""565.83,450 569.8454283847562,435.7252052658021 561.8145716152438,435.7252052658021"" stroke=""none"" stroke-width=""3"" fill = ""none"" />
    
    </svg>
    </div>
        ","","","","","","","","","","","","","","","","","","","","","","","","","","","","",""
"html-keyboard-response","44","386684","0.0-44.0","null","null","","
    <div style="" display: block;  position: relative;"">
    <svg width=1600 height=900>
    
    <circle cx=737 cy=450 r=9.992356313938528 stroke=""black"" stroke-width=""1"" fill=""black"" />
    <circle cx=908.17 cy=450 r=14.274794734197897 stroke=""black"" stroke-width=""1.5"" fill=""none"" />
    <circle cx=1026.0381078773587 cy=450 r=14.274794734197897 stroke=""black"" stroke-width=""1.5"" fill=""none"" />
    <circle cx=908.17 cy=567.8681078773589 r=14.274794734197897 stroke=""black"" stroke-width=""1.5"" fill=""none"" />
    <circle cx=790.3018921226411 cy=450 r=14.274794734197897 stroke=""black"" stroke-width=""1.5"" fill=""none"" />
    <circle cx=908.17 cy=332.1318921226412 r=14.274794734197897 stroke=""black"" stroke-width=""1.5"" fill=""none"" />
    <polygon points = ""908.17,450 912.1854283847562,464.2747947341979 904.1545716152438,464.2747947341979"" stroke=""white"" stroke-width=""3"" fill = ""white"" />
    
    </svg>
    </div>
        ","","","","","","","","","","","","stimulus","","","","","","","","","","","","","","","","",""
"html-keyboard-response","45","387306","0.0-45.0","621.1000000238419","arrowdown","","
    <div style="" display: block;  position: relative;"">
    
    <svg width=1600 height=900>
    <circle cx=737 cy=450 r=9.992356313938528 stroke=""black"" stroke-width=""1"" fill=""black"" />
    <circle cx=1026.0381078773587 cy=450 r=14.274794734197897 stroke=""none"" stroke-width=""1.5"" fill=""none"" />
    <circle cx=908.17 cy=567.8681078773589 r=14.274794734197897 stroke=""none"" stroke-width=""1.5"" fill=""none"" />
    <circle cx=790.3018921226411 cy=450 r=14.274794734197897 stroke=""none"" stroke-width=""1.5"" fill=""none"" />
    <circle cx=908.17 cy=332.1318921226412 r=14.274794734197897 stroke=""none"" stroke-width=""1.5"" fill=""none"" />
    <polygon points = ""908.17,450 912.1854283847562,464.2747947341979 904.1545716152438,464.2747947341979"" stroke=""none"" stroke-width=""3"" fill = ""none"" />
    
    </svg>
    </div>
        ","","","","","","","","","","","","get_response","true","opYZckdMKz6qmuHF","","","false","false","false","171.17","6","455.784","117.86810787735881","4.12","1","0","","",""
"html-keyboard-response","46","387809","0.0-46.0","null","null","","
    <div style="" display: block;  position: relative;"">
    
    <svg width=1600 height=900>
    <circle cx=737 cy=450 r=9.992356313938528 stroke=""black"" stroke-width=""1"" fill=""black"" />
    <circle cx=1026.0381078773587 cy=450 r=14.274794734197897 stroke=""none"" stroke-width=""1.5"" fill=""none"" />
    <circle cx=908.17 cy=567.8681078773589 r=14.274794734197897 stroke=""none"" stroke-width=""1.5"" fill=""none"" />
    <circle cx=790.3018921226411 cy=450 r=14.274794734197897 stroke=""none"" stroke-width=""1.5"" fill=""none"" />
    <circle cx=908.17 cy=332.1318921226412 r=14.274794734197897 stroke=""none"" stroke-width=""1.5"" fill=""none"" />
    <polygon points = ""908.17,450 912.1854283847562,464.2747947341979 904.1545716152438,464.2747947341979"" stroke=""none"" stroke-width=""3"" fill = ""none"" />
    
    </svg>
    </div>
        ","","","","","","","","","","","","","","","","","","","","","","","","","","","","",""
"html-keyboard-response","47","387963","0.0-47.0","null","null","","
    <div style="" display: block;  position: relative;"">
    <svg width=1600 height=900>
    
    <circle cx=737 cy=450 r=9.992356313938528 stroke=""black"" stroke-width=""1"" fill=""black"" />
    <circle cx=565.83 cy=450 r=14.274794734197897 stroke=""black"" stroke-width=""1.5"" fill=""none"" />
    <circle cx=672.9828253430535 cy=450 r=14.274794734197897 stroke=""black"" stroke-width=""1.5"" fill=""none"" />
    <circle cx=565.83 cy=557.1528253430535 r=14.274794734197897 stroke=""black"" stroke-width=""1.5"" fill=""none"" />
    <circle cx=458.6771746569466 cy=450 r=14.274794734197897 stroke=""black"" stroke-width=""1.5"" fill=""none"" />
    <circle cx=565.83 cy=342.84717465694655 r=14.274794734197897 stroke=""black"" stroke-width=""1.5"" fill=""none"" />
    <polygon points = ""565.83,450 569.8454283847562,435.7252052658021 561.8145716152438,435.7252052658021"" stroke=""white"" stroke-width=""3"" fill = ""white"" />
    
    </svg>
    </div>
        ","","","","","","","","","","","","stimulus","","","","","","","","","","","","","","","","",""
"html-keyboard-response","48","388450","0.0-48.0","485.1999999284744","arrowup","","
    <div style="" display: block;  position: relative;"">
    
    <svg width=1600 height=900>
    <circle cx=737 cy=450 r=9.992356313938528 stroke=""black"" stroke-width=""1"" fill=""black"" />
    <circle cx=672.9828253430535 cy=450 r=14.274794734197897 stroke=""none"" stroke-width=""1.5"" fill=""none"" />
    <circle cx=565.83 cy=557.1528253430535 r=14.274794734197897 stroke=""none"" stroke-width=""1.5"" fill=""none"" />
    <circle cx=458.6771746569466 cy=450 r=14.274794734197897 stroke=""none"" stroke-width=""1.5"" fill=""none"" />
    <circle cx=565.83 cy=342.84717465694655 r=14.274794734197897 stroke=""none"" stroke-width=""1.5"" fill=""none"" />
    <polygon points = ""565.83,450 569.8454283847562,435.7252052658021 561.8145716152438,435.7252052658021"" stroke=""none"" stroke-width=""3"" fill = ""none"" />
    
    </svg>
    </div>
        ","","","","","","","","","","","","get_response","true","opYZckdMKz6qmuHF","","","true","true","false","171.17","6","455.784","107.15282534305345","3.75","1","0","","",""
"html-keyboard-response","49","388953","0.0-49.0","null","null","","
    <div style="" display: block;  position: relative;"">
    
    <svg width=1600 height=900>
    <circle cx=737 cy=450 r=9.992356313938528 stroke=""black"" stroke-width=""1"" fill=""black"" />
    <circle cx=672.9828253430535 cy=450 r=14.274794734197897 stroke=""none"" stroke-width=""1.5"" fill=""none"" />
    <circle cx=565.83 cy=557.1528253430535 r=14.274794734197897 stroke=""none"" stroke-width=""1.5"" fill=""none"" />
    <circle cx=458.6771746569466 cy=450 r=14.274794734197897 stroke=""none"" stroke-width=""1.5"" fill=""none"" />
    <circle cx=565.83 cy=342.84717465694655 r=14.274794734197897 stroke=""none"" stroke-width=""1.5"" fill=""none"" />
    <polygon points = ""565.83,450 569.8454283847562,435.7252052658021 561.8145716152438,435.7252052658021"" stroke=""none"" stroke-width=""3"" fill = ""none"" />
    
    </svg>
    </div>
        ","","","","","","","","","","","","","","","","","","","","","","","","","","","","",""
"html-keyboard-response","50","389107","0.0-50.0","null","null","","
    <div style="" display: block;  position: relative;"">
    <svg width=1600 height=900>
    
    <circle cx=737 cy=450 r=9.992356313938528 stroke=""black"" stroke-width=""1"" fill=""black"" />
    <circle cx=908.17 cy=450 r=14.274794734197897 stroke=""black"" stroke-width=""1.5"" fill=""none"" />
    <circle cx=1005.5816594027758 cy=450 r=14.274794734197897 stroke=""black"" stroke-width=""1.5"" fill=""none"" />
    <circle cx=908.17 cy=547.4116594027759 r=14.274794734197897 stroke=""black"" stroke-width=""1.5"" fill=""none"" />
    <circle cx=810.7583405972241 cy=450 r=14.274794734197897 stroke=""black"" stroke-width=""1.5"" fill=""none"" />
    <circle cx=908.17 cy=352.58834059722415 r=14.274794734197897 stroke=""black"" stroke-width=""1.5"" fill=""none"" />
    <polygon points = ""908.17,450 912.1854283847562,435.7252052658021 904.1545716152438,435.7252052658021"" stroke=""white"" stroke-width=""3"" fill = ""white"" />
    
    </svg>
    </div>
        ","","","","","","","","","","","","stimulus","","","","","","","","","","","","","","","","",""
"html-keyboard-response","51","389555","0.0-51.0","445.7000000476837","arrowup","","
    <div style="" display: block;  position: relative;"">
    
    <svg width=1600 height=900>
    <circle cx=737 cy=450 r=9.992356313938528 stroke=""black"" stroke-width=""1"" fill=""black"" />
    <circle cx=1005.5816594027758 cy=450 r=14.274794734197897 stroke=""none"" stroke-width=""1.5"" fill=""none"" />
    <circle cx=908.17 cy=547.4116594027759 r=14.274794734197897 stroke=""none"" stroke-width=""1.5"" fill=""none"" />
    <circle cx=810.7583405972241 cy=450 r=14.274794734197897 stroke=""none"" stroke-width=""1.5"" fill=""none"" />
    <circle cx=908.17 cy=352.58834059722415 r=14.274794734197897 stroke=""none"" stroke-width=""1.5"" fill=""none"" />
    <polygon points = ""908.17,450 912.1854283847562,435.7252052658021 904.1545716152438,435.7252052658021"" stroke=""none"" stroke-width=""3"" fill = ""none"" />
    
    </svg>
    </div>
        ","","","","","","","","","","","","get_response","true","opYZckdMKz6qmuHF","","","false","true","false","171.17","6","455.784","97.41165940277585","3.41","1","0","","",""
"html-keyboard-response","52","390058","0.0-52.0","null","null","","
    <div style="" display: block;  position: relative;"">
    
    <svg width=1600 height=900>
    <circle cx=737 cy=450 r=9.992356313938528 stroke=""black"" stroke-width=""1"" fill=""black"" />
    <circle cx=1005.5816594027758 cy=450 r=14.274794734197897 stroke=""none"" stroke-width=""1.5"" fill=""none"" />
    <circle cx=908.17 cy=547.4116594027759 r=14.274794734197897 stroke=""none"" stroke-width=""1.5"" fill=""none"" />
    <circle cx=810.7583405972241 cy=450 r=14.274794734197897 stroke=""none"" stroke-width=""1.5"" fill=""none"" />
    <circle cx=908.17 cy=352.58834059722415 r=14.274794734197897 stroke=""none"" stroke-width=""1.5"" fill=""none"" />
    <polygon points = ""908.17,450 912.1854283847562,435.7252052658021 904.1545716152438,435.7252052658021"" stroke=""none"" stroke-width=""3"" fill = ""none"" />
    
    </svg>
    </div>
        ","","","","","","","","","","","","","","","","","","","","","","","","","","","","",""
"html-keyboard-response","53","390211","0.0-53.0","null","null","","
    <div style="" display: block;  position: relative;"">
    <svg width=1600 height=900>
    
    <circle cx=737 cy=450 r=9.992356313938528 stroke=""black"" stroke-width=""1"" fill=""black"" />
    <circle cx=908.17 cy=450 r=14.274794734197897 stroke=""black"" stroke-width=""1.5"" fill=""none"" />
    <circle cx=996.7260540025235 cy=450 r=14.274794734197897 stroke=""black"" stroke-width=""1.5"" fill=""none"" />
    <circle cx=908.17 cy=538.5560540025235 r=14.274794734197897 stroke=""black"" stroke-width=""1.5"" fill=""none"" />
    <circle cx=819.6139459974764 cy=450 r=14.274794734197897 stroke=""black"" stroke-width=""1.5"" fill=""none"" />
    <circle cx=908.17 cy=361.4439459974765 r=14.274794734197897 stroke=""black"" stroke-width=""1.5"" fill=""none"" />
    <polygon points = ""908.17,450 912.1854283847562,435.7252052658021 904.1545716152438,435.7252052658021"" stroke=""white"" stroke-width=""3"" fill = ""white"" />
    
    </svg>
    </div>
        ","","","","","","","","","","","","stimulus","","","","","","","","","","","","","","","","",""
"html-keyboard-response","54","390649","0.0-54.0","436","arrowup","","
    <div style="" display: block;  position: relative;"">
    
    <svg width=1600 height=900>
    <circle cx=737 cy=450 r=9.992356313938528 stroke=""black"" stroke-width=""1"" fill=""black"" />
    <circle cx=996.7260540025235 cy=450 r=14.274794734197897 stroke=""none"" stroke-width=""1.5"" fill=""none"" />
    <circle cx=908.17 cy=538.5560540025235 r=14.274794734197897 stroke=""none"" stroke-width=""1.5"" fill=""none"" />
    <circle cx=819.6139459974764 cy=450 r=14.274794734197897 stroke=""none"" stroke-width=""1.5"" fill=""none"" />
    <circle cx=908.17 cy=361.4439459974765 r=14.274794734197897 stroke=""none"" stroke-width=""1.5"" fill=""none"" />
    <polygon points = ""908.17,450 912.1854283847562,435.7252052658021 904.1545716152438,435.7252052658021"" stroke=""none"" stroke-width=""3"" fill = ""none"" />
    
    </svg>
    </div>
        ","","","","","","","","","","","","get_response","true","opYZckdMKz6qmuHF","","","false","true","false","171.17","6","455.784","88.5560540025235","3.1","1","0","","",""
"html-keyboard-response","55","391151","0.0-55.0","null","null","","
    <div style="" display: block;  position: relative;"">
    
    <svg width=1600 height=900>
    <circle cx=737 cy=450 r=9.992356313938528 stroke=""black"" stroke-width=""1"" fill=""black"" />
    <circle cx=996.7260540025235 cy=450 r=14.274794734197897 stroke=""none"" stroke-width=""1.5"" fill=""none"" />
    <circle cx=908.17 cy=538.5560540025235 r=14.274794734197897 stroke=""none"" stroke-width=""1.5"" fill=""none"" />
    <circle cx=819.6139459974764 cy=450 r=14.274794734197897 stroke=""none"" stroke-width=""1.5"" fill=""none"" />
    <circle cx=908.17 cy=361.4439459974765 r=14.274794734197897 stroke=""none"" stroke-width=""1.5"" fill=""none"" />
    <polygon points = ""908.17,450 912.1854283847562,435.7252052658021 904.1545716152438,435.7252052658021"" stroke=""none"" stroke-width=""3"" fill = ""none"" />
    
    </svg>
    </div>
        ","","","","","","","","","","","","","","","","","","","","","","","","","","","","",""
"html-keyboard-response","56","391304","0.0-56.0","null","null","","
    <div style="" display: block;  position: relative;"">
    <svg width=1600 height=900>
    
    <circle cx=737 cy=450 r=9.992356313938528 stroke=""black"" stroke-width=""1"" fill=""black"" />
    <circle cx=908.17 cy=450 r=14.274794734197897 stroke=""black"" stroke-width=""1.5"" fill=""none"" />
    <circle cx=988.6755036386577 cy=450 r=14.274794734197897 stroke=""black"" stroke-width=""1.5"" fill=""none"" />
    <circle cx=908.17 cy=530.5055036386577 r=14.274794734197897 stroke=""black"" stroke-width=""1.5"" fill=""none"" />
    <circle cx=827.6644963613422 cy=450 r=14.274794734197897 stroke=""black"" stroke-width=""1.5"" fill=""none"" />
    <circle cx=908.17 cy=369.49449636134227 r=14.274794734197897 stroke=""black"" stroke-width=""1.5"" fill=""none"" />
    <polygon points = ""908.17,450 912.1854283847562,435.7252052658021 904.1545716152438,435.7252052658021"" stroke=""white"" stroke-width=""3"" fill = ""white"" />
    
    </svg>
    </div>
        ","","","","","","","","","","","","stimulus","","","","","","","","","","","","","","","","",""
"html-keyboard-response","57","391745","0.0-57.0","438.2999999523163","arrowup","","
    <div style="" display: block;  position: relative;"">
    
    <svg width=1600 height=900>
    <circle cx=737 cy=450 r=9.992356313938528 stroke=""black"" stroke-width=""1"" fill=""black"" />
    <circle cx=988.6755036386577 cy=450 r=14.274794734197897 stroke=""none"" stroke-width=""1.5"" fill=""none"" />
    <circle cx=908.17 cy=530.5055036386577 r=14.274794734197897 stroke=""none"" stroke-width=""1.5"" fill=""none"" />
    <circle cx=827.6644963613422 cy=450 r=14.274794734197897 stroke=""none"" stroke-width=""1.5"" fill=""none"" />
    <circle cx=908.17 cy=369.49449636134227 r=14.274794734197897 stroke=""none"" stroke-width=""1.5"" fill=""none"" />
    <polygon points = ""908.17,450 912.1854283847562,435.7252052658021 904.1545716152438,435.7252052658021"" stroke=""none"" stroke-width=""3"" fill = ""none"" />
    
    </svg>
    </div>
        ","","","","","","","","","","","","get_response","true","opYZckdMKz6qmuHF","","","false","true","false","171.17","6","455.784","80.50550363865771","2.81","1","0","","",""
"html-keyboard-response","58","392247","0.0-58.0","null","null","","
    <div style="" display: block;  position: relative;"">
    
    <svg width=1600 height=900>
    <circle cx=737 cy=450 r=9.992356313938528 stroke=""black"" stroke-width=""1"" fill=""black"" />
    <circle cx=988.6755036386577 cy=450 r=14.274794734197897 stroke=""none"" stroke-width=""1.5"" fill=""none"" />
    <circle cx=908.17 cy=530.5055036386577 r=14.274794734197897 stroke=""none"" stroke-width=""1.5"" fill=""none"" />
    <circle cx=827.6644963613422 cy=450 r=14.274794734197897 stroke=""none"" stroke-width=""1.5"" fill=""none"" />
    <circle cx=908.17 cy=369.49449636134227 r=14.274794734197897 stroke=""none"" stroke-width=""1.5"" fill=""none"" />
    <polygon points = ""908.17,450 912.1854283847562,435.7252052658021 904.1545716152438,435.7252052658021"" stroke=""none"" stroke-width=""3"" fill = ""none"" />
    
    </svg>
    </div>
        ","","","","","","","","","","","","","","","","","","","","","","","","","","","","",""
"html-keyboard-response","59","392399","0.0-59.0","null","null","","
    <div style="" display: block;  position: relative;"">
    <svg width=1600 height=900>
    
    <circle cx=737 cy=450 r=9.992356313938528 stroke=""black"" stroke-width=""1"" fill=""black"" />
    <circle cx=908.17 cy=450 r=14.274794734197897 stroke=""black"" stroke-width=""1.5"" fill=""none"" />
    <circle cx=981.3568214896887 cy=450 r=14.274794734197897 stroke=""black"" stroke-width=""1.5"" fill=""none"" />
    <circle cx=908.17 cy=523.1868214896888 r=14.274794734197897 stroke=""black"" stroke-width=""1.5"" fill=""none"" />
    <circle cx=834.9831785103112 cy=450 r=14.274794734197897 stroke=""black"" stroke-width=""1.5"" fill=""none"" />
    <circle cx=908.17 cy=376.81317851031116 r=14.274794734197897 stroke=""black"" stroke-width=""1.5"" fill=""none"" />
    <polygon points = ""908.17,450 912.1854283847562,464.2747947341979 904.1545716152438,464.2747947341979"" stroke=""white"" stroke-width=""3"" fill = ""white"" />
    
    </svg>
    </div>
        ","","","","","","","","","","","","stimulus","","","","","","","","","","","","","","","","",""
"html-keyboard-response","60","392905","0.0-60.0","504","arrowdown","","
    <div style="" display: block;  position: relative;"">
    
    <svg width=1600 height=900>
    <circle cx=737 cy=450 r=9.992356313938528 stroke=""black"" stroke-width=""1"" fill=""black"" />
    <circle cx=981.3568214896887 cy=450 r=14.274794734197897 stroke=""none"" stroke-width=""1.5"" fill=""none"" />
    <circle cx=908.17 cy=523.1868214896888 r=14.274794734197897 stroke=""none"" stroke-width=""1.5"" fill=""none"" />
    <circle cx=834.9831785103112 cy=450 r=14.274794734197897 stroke=""none"" stroke-width=""1.5"" fill=""none"" />
    <circle cx=908.17 cy=376.81317851031116 r=14.274794734197897 stroke=""none"" stroke-width=""1.5"" fill=""none"" />
    <polygon points = ""908.17,450 912.1854283847562,464.2747947341979 904.1545716152438,464.2747947341979"" stroke=""none"" stroke-width=""3"" fill = ""none"" />
    
    </svg>
    </div>
        ","","","","","","","","","","","","get_response","true","opYZckdMKz6qmuHF","","","false","false","false","171.17","6","455.784","73.18682148968882","2.56","1","0","","",""
"html-keyboard-response","61","393407","0.0-61.0","null","null","","
    <div style="" display: block;  position: relative;"">
    
    <svg width=1600 height=900>
    <circle cx=737 cy=450 r=9.992356313938528 stroke=""black"" stroke-width=""1"" fill=""black"" />
    <circle cx=981.3568214896887 cy=450 r=14.274794734197897 stroke=""none"" stroke-width=""1.5"" fill=""none"" />
    <circle cx=908.17 cy=523.1868214896888 r=14.274794734197897 stroke=""none"" stroke-width=""1.5"" fill=""none"" />
    <circle cx=834.9831785103112 cy=450 r=14.274794734197897 stroke=""none"" stroke-width=""1.5"" fill=""none"" />
    <circle cx=908.17 cy=376.81317851031116 r=14.274794734197897 stroke=""none"" stroke-width=""1.5"" fill=""none"" />
    <polygon points = ""908.17,450 912.1854283847562,464.2747947341979 904.1545716152438,464.2747947341979"" stroke=""none"" stroke-width=""3"" fill = ""none"" />
    
    </svg>
    </div>
        ","","","","","","","","","","","","","","","","","","","","","","","","","","","","",""
"html-keyboard-response","62","393560","0.0-62.0","null","null","","
    <div style="" display: block;  position: relative;"">
    <svg width=1600 height=900>
    
    <circle cx=737 cy=450 r=9.992356313938528 stroke=""black"" stroke-width=""1"" fill=""black"" />
    <circle cx=565.83 cy=450 r=14.274794734197897 stroke=""black"" stroke-width=""1.5"" fill=""none"" />
    <circle cx=632.3634740815353 cy=450 r=14.274794734197897 stroke=""black"" stroke-width=""1.5"" fill=""none"" />
    <circle cx=565.83 cy=516.5334740815352 r=14.274794734197897 stroke=""black"" stroke-width=""1.5"" fill=""none"" />
    <circle cx=499.29652591846474 cy=450 r=14.274794734197897 stroke=""black"" stroke-width=""1.5"" fill=""none"" />
    <circle cx=565.83 cy=383.4665259184647 r=14.274794734197897 stroke=""black"" stroke-width=""1.5"" fill=""none"" />
    <polygon points = ""565.83,450 569.8454283847562,464.2747947341979 561.8145716152438,464.2747947341979"" stroke=""white"" stroke-width=""3"" fill = ""white"" />
    
    </svg>
    </div>
        ","","","","","","","","","","","","stimulus","","","","","","","","","","","","","","","","",""
"html-keyboard-response","63","394673","0.0-63.0","1110.5999999046326","arrowup","","
    <div style="" display: block;  position: relative;"">
    
    <svg width=1600 height=900>
    <circle cx=737 cy=450 r=9.992356313938528 stroke=""black"" stroke-width=""1"" fill=""black"" />
    <circle cx=632.3634740815353 cy=450 r=14.274794734197897 stroke=""none"" stroke-width=""1.5"" fill=""none"" />
    <circle cx=565.83 cy=516.5334740815352 r=14.274794734197897 stroke=""none"" stroke-width=""1.5"" fill=""none"" />
    <circle cx=499.29652591846474 cy=450 r=14.274794734197897 stroke=""none"" stroke-width=""1.5"" fill=""none"" />
    <circle cx=565.83 cy=383.4665259184647 r=14.274794734197897 stroke=""none"" stroke-width=""1.5"" fill=""none"" />
    <polygon points = ""565.83,450 569.8454283847562,464.2747947341979 561.8145716152438,464.2747947341979"" stroke=""none"" stroke-width=""3"" fill = ""none"" />
    
    </svg>
    </div>
        ","","","","","","","","","","","","get_response","false","opYZckdMKz6qmuHF","","","true","false","false","171.17","6","455.784","66.53347408153529","2.32","1","0","","",""
"html-keyboard-response","64","395175","0.0-64.0","null","null","","
    <div style="" display: block;  position: relative;"">
    
    <svg width=1600 height=900>
    <circle cx=737 cy=450 r=9.992356313938528 stroke=""black"" stroke-width=""1"" fill=""black"" />
    <circle cx=632.3634740815353 cy=450 r=14.274794734197897 stroke=""none"" stroke-width=""1.5"" fill=""none"" />
    <circle cx=565.83 cy=516.5334740815352 r=14.274794734197897 stroke=""none"" stroke-width=""1.5"" fill=""none"" />
    <circle cx=499.29652591846474 cy=450 r=14.274794734197897 stroke=""none"" stroke-width=""1.5"" fill=""none"" />
    <circle cx=565.83 cy=383.4665259184647 r=14.274794734197897 stroke=""none"" stroke-width=""1.5"" fill=""none"" />
    <polygon points = ""565.83,450 569.8454283847562,464.2747947341979 561.8145716152438,464.2747947341979"" stroke=""none"" stroke-width=""3"" fill = ""none"" />
    
    </svg>
    </div>
        ","","","","","","","","","","","","","","","","","","","","","","","","","","","","",""
"html-keyboard-response","65","395328","0.0-65.0","null","null","","
    <div style="" display: block;  position: relative;"">
    <svg width=1600 height=900>
    
    <circle cx=737 cy=450 r=9.992356313938528 stroke=""black"" stroke-width=""1"" fill=""black"" />
    <circle cx=908.17 cy=450 r=14.274794734197897 stroke=""black"" stroke-width=""1.5"" fill=""none"" />
    <circle cx=994.6635163059958 cy=450 r=14.274794734197897 stroke=""black"" stroke-width=""1.5"" fill=""none"" />
    <circle cx=908.17 cy=536.4935163059959 r=14.274794734197897 stroke=""black"" stroke-width=""1.5"" fill=""none"" />
    <circle cx=821.6764836940041 cy=450 r=14.274794734197897 stroke=""black"" stroke-width=""1.5"" fill=""none"" />
    <circle cx=908.17 cy=363.50648369400415 r=14.274794734197897 stroke=""black"" stroke-width=""1.5"" fill=""none"" />
    <polygon points = ""908.17,450 912.1854283847562,435.7252052658021 904.1545716152438,435.7252052658021"" stroke=""white"" stroke-width=""3"" fill = ""white"" />
    
    </svg>
    </div>
        ","","","","","","","","","","","","stimulus","","","","","","","","","","","","","","","","",""
"html-keyboard-response","66","395833","0.0-66.0","503.1999999284744","arrowup","","
    <div style="" display: block;  position: relative;"">
    
    <svg width=1600 height=900>
    <circle cx=737 cy=450 r=9.992356313938528 stroke=""black"" stroke-width=""1"" fill=""black"" />
    <circle cx=994.6635163059958 cy=450 r=14.274794734197897 stroke=""none"" stroke-width=""1.5"" fill=""none"" />
    <circle cx=908.17 cy=536.4935163059959 r=14.274794734197897 stroke=""none"" stroke-width=""1.5"" fill=""none"" />
    <circle cx=821.6764836940041 cy=450 r=14.274794734197897 stroke=""none"" stroke-width=""1.5"" fill=""none"" />
    <circle cx=908.17 cy=363.50648369400415 r=14.274794734197897 stroke=""none"" stroke-width=""1.5"" fill=""none"" />
    <polygon points = ""908.17,450 912.1854283847562,435.7252052658021 904.1545716152438,435.7252052658021"" stroke=""none"" stroke-width=""3"" fill = ""none"" />
    
    </svg>
    </div>
        ","","","","","","","","","","","","get_response","true","opYZckdMKz6qmuHF","","","false","true","false","171.17","6","455.784","86.49351630599588","3.02","1","0","","",""
"html-keyboard-response","67","396334","0.0-67.0","null","null","","
    <div style="" display: block;  position: relative;"">
    
    <svg width=1600 height=900>
    <circle cx=737 cy=450 r=9.992356313938528 stroke=""black"" stroke-width=""1"" fill=""black"" />
    <circle cx=994.6635163059958 cy=450 r=14.274794734197897 stroke=""none"" stroke-width=""1.5"" fill=""none"" />
    <circle cx=908.17 cy=536.4935163059959 r=14.274794734197897 stroke=""none"" stroke-width=""1.5"" fill=""none"" />
    <circle cx=821.6764836940041 cy=450 r=14.274794734197897 stroke=""none"" stroke-width=""1.5"" fill=""none"" />
    <circle cx=908.17 cy=363.50648369400415 r=14.274794734197897 stroke=""none"" stroke-width=""1.5"" fill=""none"" />
    <polygon points = ""908.17,450 912.1854283847562,435.7252052658021 904.1545716152438,435.7252052658021"" stroke=""none"" stroke-width=""3"" fill = ""none"" />
    
    </svg>
    </div>
        ","","","","","","","","","","","","","","","","","","","","","","","","","","","","",""
"html-keyboard-response","68","396487","0.0-68.0","null","null","","
    <div style="" display: block;  position: relative;"">
    <svg width=1600 height=900>
    
    <circle cx=737 cy=450 r=9.992356313938528 stroke=""black"" stroke-width=""1"" fill=""black"" />
    <circle cx=565.83 cy=450 r=14.274794734197897 stroke=""black"" stroke-width=""1.5"" fill=""none"" />
    <circle cx=652.3235163059959 cy=450 r=14.274794734197897 stroke=""black"" stroke-width=""1.5"" fill=""none"" />
    <circle cx=565.83 cy=536.4935163059959 r=14.274794734197897 stroke=""black"" stroke-width=""1.5"" fill=""none"" />
    <circle cx=479.3364836940042 cy=450 r=14.274794734197897 stroke=""black"" stroke-width=""1.5"" fill=""none"" />
    <circle cx=565.83 cy=363.50648369400415 r=14.274794734197897 stroke=""black"" stroke-width=""1.5"" fill=""none"" />
    <polygon points = ""565.83,450 569.8454283847562,435.7252052658021 561.8145716152438,435.7252052658021"" stroke=""white"" stroke-width=""3"" fill = ""white"" />
    
    </svg>
    </div>
        ","","","","","","","","","","","","stimulus","","","","","","","","","","","","","","","","",""
"html-keyboard-response","69","397050","0.0-69.0","560.5","arrowup","","
    <div style="" display: block;  position: relative;"">
    
    <svg width=1600 height=900>
    <circle cx=737 cy=450 r=9.992356313938528 stroke=""black"" stroke-width=""1"" fill=""black"" />
    <circle cx=652.3235163059959 cy=450 r=14.274794734197897 stroke=""none"" stroke-width=""1.5"" fill=""none"" />
    <circle cx=565.83 cy=536.4935163059959 r=14.274794734197897 stroke=""none"" stroke-width=""1.5"" fill=""none"" />
    <circle cx=479.3364836940042 cy=450 r=14.274794734197897 stroke=""none"" stroke-width=""1.5"" fill=""none"" />
    <circle cx=565.83 cy=363.50648369400415 r=14.274794734197897 stroke=""none"" stroke-width=""1.5"" fill=""none"" />
    <polygon points = ""565.83,450 569.8454283847562,435.7252052658021 561.8145716152438,435.7252052658021"" stroke=""none"" stroke-width=""3"" fill = ""none"" />
    
    </svg>
    </div>
        ","","","","","","","","","","","","get_response","true","opYZckdMKz6qmuHF","","","true","true","false","171.17","6","455.784","86.49351630599588","3.02","1","0","","",""
"html-keyboard-response","70","397556","0.0-70.0","null","null","","
    <div style="" display: block;  position: relative;"">
    
    <svg width=1600 height=900>
    <circle cx=737 cy=450 r=9.992356313938528 stroke=""black"" stroke-width=""1"" fill=""black"" />
    <circle cx=652.3235163059959 cy=450 r=14.274794734197897 stroke=""none"" stroke-width=""1.5"" fill=""none"" />
    <circle cx=565.83 cy=536.4935163059959 r=14.274794734197897 stroke=""none"" stroke-width=""1.5"" fill=""none"" />
    <circle cx=479.3364836940042 cy=450 r=14.274794734197897 stroke=""none"" stroke-width=""1.5"" fill=""none"" />
    <circle cx=565.83 cy=363.50648369400415 r=14.274794734197897 stroke=""none"" stroke-width=""1.5"" fill=""none"" />
    <polygon points = ""565.83,450 569.8454283847562,435.7252052658021 561.8145716152438,435.7252052658021"" stroke=""none"" stroke-width=""3"" fill = ""none"" />
    
    </svg>
    </div>
        ","","","","","","","","","","","","","","","","","","","","","","","","","","","","",""
"html-keyboard-response","71","397708","0.0-71.0","null","null","","
    <div style="" display: block;  position: relative;"">
    <svg width=1600 height=900>
    
    <circle cx=737 cy=450 r=9.992356313938528 stroke=""black"" stroke-width=""1"" fill=""black"" />
    <circle cx=908.17 cy=450 r=14.274794734197897 stroke=""black"" stroke-width=""1.5"" fill=""none"" />
    <circle cx=994.6635163059958 cy=450 r=14.274794734197897 stroke=""black"" stroke-width=""1.5"" fill=""none"" />
    <circle cx=908.17 cy=536.4935163059959 r=14.274794734197897 stroke=""black"" stroke-width=""1.5"" fill=""none"" />
    <circle cx=821.6764836940041 cy=450 r=14.274794734197897 stroke=""black"" stroke-width=""1.5"" fill=""none"" />
    <circle cx=908.17 cy=363.50648369400415 r=14.274794734197897 stroke=""black"" stroke-width=""1.5"" fill=""none"" />
    <polygon points = ""908.17,450 912.1854283847562,435.7252052658021 904.1545716152438,435.7252052658021"" stroke=""white"" stroke-width=""3"" fill = ""white"" />
    
    </svg>
    </div>
        ","","","","","","","","","","","","stimulus","","","","","","","","","","","","","","","","",""
"html-keyboard-response","72","398298","0.0-72.0","588.6000000238419","arrowup","","
    <div style="" display: block;  position: relative;"">
    
    <svg width=1600 height=900>
    <circle cx=737 cy=450 r=9.992356313938528 stroke=""black"" stroke-width=""1"" fill=""black"" />
    <circle cx=994.6635163059958 cy=450 r=14.274794734197897 stroke=""none"" stroke-width=""1.5"" fill=""none"" />
    <circle cx=908.17 cy=536.4935163059959 r=14.274794734197897 stroke=""none"" stroke-width=""1.5"" fill=""none"" />
    <circle cx=821.6764836940041 cy=450 r=14.274794734197897 stroke=""none"" stroke-width=""1.5"" fill=""none"" />
    <circle cx=908.17 cy=363.50648369400415 r=14.274794734197897 stroke=""none"" stroke-width=""1.5"" fill=""none"" />
    <polygon points = ""908.17,450 912.1854283847562,435.7252052658021 904.1545716152438,435.7252052658021"" stroke=""none"" stroke-width=""3"" fill = ""none"" />
    
    </svg>
    </div>
        ","","","","","","","","","","","","get_response","true","opYZckdMKz6qmuHF","","","false","true","false","171.17","6","455.784","86.49351630599588","3.02","1","0","","",""
"html-keyboard-response","73","398799","0.0-73.0","null","null","","
    <div style="" display: block;  position: relative;"">
    
    <svg width=1600 height=900>
    <circle cx=737 cy=450 r=9.992356313938528 stroke=""black"" stroke-width=""1"" fill=""black"" />
    <circle cx=994.6635163059958 cy=450 r=14.274794734197897 stroke=""none"" stroke-width=""1.5"" fill=""none"" />
    <circle cx=908.17 cy=536.4935163059959 r=14.274794734197897 stroke=""none"" stroke-width=""1.5"" fill=""none"" />
    <circle cx=821.6764836940041 cy=450 r=14.274794734197897 stroke=""none"" stroke-width=""1.5"" fill=""none"" />
    <circle cx=908.17 cy=363.50648369400415 r=14.274794734197897 stroke=""none"" stroke-width=""1.5"" fill=""none"" />
    <polygon points = ""908.17,450 912.1854283847562,435.7252052658021 904.1545716152438,435.7252052658021"" stroke=""none"" stroke-width=""3"" fill = ""none"" />
    
    </svg>
    </div>
        ","","","","","","","","","","","","","","","","","","","","","","","","","","","","",""
"html-keyboard-response","74","398951","0.0-74.0","null","null","","
    <div style="" display: block;  position: relative;"">
    <svg width=1600 height=900>
    
    <circle cx=737 cy=450 r=9.992356313938528 stroke=""black"" stroke-width=""1"" fill=""black"" />
    <circle cx=565.83 cy=450 r=14.274794734197897 stroke=""black"" stroke-width=""1.5"" fill=""none"" />
    <circle cx=644.4604693690871 cy=450 r=14.274794734197897 stroke=""black"" stroke-width=""1.5"" fill=""none"" />
    <circle cx=565.83 cy=528.6304693690872 r=14.274794734197897 stroke=""black"" stroke-width=""1.5"" fill=""none"" />
    <circle cx=487.1995306309129 cy=450 r=14.274794734197897 stroke=""black"" stroke-width=""1.5"" fill=""none"" />
    <circle cx=565.83 cy=371.36953063091283 r=14.274794734197897 stroke=""black"" stroke-width=""1.5"" fill=""none"" />
    <polygon points = ""565.83,450 569.8454283847562,464.2747947341979 561.8145716152438,464.2747947341979"" stroke=""white"" stroke-width=""3"" fill = ""white"" />
    
    </svg>
    </div>
        ","","","","","","","","","","","","stimulus","","","","","","","","","","","","","","","","",""
"html-keyboard-response","75","399514","0.0-75.0","561.1999999284744","arrowdown","","
    <div style="" display: block;  position: relative;"">
    
    <svg width=1600 height=900>
    <circle cx=737 cy=450 r=9.992356313938528 stroke=""black"" stroke-width=""1"" fill=""black"" />
    <circle cx=644.4604693690871 cy=450 r=14.274794734197897 stroke=""none"" stroke-width=""1.5"" fill=""none"" />
    <circle cx=565.83 cy=528.6304693690872 r=14.274794734197897 stroke=""none"" stroke-width=""1.5"" fill=""none"" />
    <circle cx=487.1995306309129 cy=450 r=14.274794734197897 stroke=""none"" stroke-width=""1.5"" fill=""none"" />
    <circle cx=565.83 cy=371.36953063091283 r=14.274794734197897 stroke=""none"" stroke-width=""1.5"" fill=""none"" />
    <polygon points = ""565.83,450 569.8454283847562,464.2747947341979 561.8145716152438,464.2747947341979"" stroke=""none"" stroke-width=""3"" fill = ""none"" />
    
    </svg>
    </div>
        ","","","","","","","","","","","","get_response","true","opYZckdMKz6qmuHF","","","true","false","false","171.17","6","455.784","78.63046936908717","2.75","1","0","","",""
"html-keyboard-response","76","400017","0.0-76.0","null","null","","
    <div style="" display: block;  position: relative;"">
    
    <svg width=1600 height=900>
    <circle cx=737 cy=450 r=9.992356313938528 stroke=""black"" stroke-width=""1"" fill=""black"" />
    <circle cx=644.4604693690871 cy=450 r=14.274794734197897 stroke=""none"" stroke-width=""1.5"" fill=""none"" />
    <circle cx=565.83 cy=528.6304693690872 r=14.274794734197897 stroke=""none"" stroke-width=""1.5"" fill=""none"" />
    <circle cx=487.1995306309129 cy=450 r=14.274794734197897 stroke=""none"" stroke-width=""1.5"" fill=""none"" />
    <circle cx=565.83 cy=371.36953063091283 r=14.274794734197897 stroke=""none"" stroke-width=""1.5"" fill=""none"" />
    <polygon points = ""565.83,450 569.8454283847562,464.2747947341979 561.8145716152438,464.2747947341979"" stroke=""none"" stroke-width=""3"" fill = ""none"" />
    
    </svg>
    </div>
        ","","","","","","","","","","","","","","","","","","","","","","","","","","","","",""
"html-keyboard-response","77","400170","0.0-77.0","null","null","","
    <div style="" display: block;  position: relative;"">
    <svg width=1600 height=900>
    
    <circle cx=737 cy=450 r=9.992356313938528 stroke=""black"" stroke-width=""1"" fill=""black"" />
    <circle cx=565.83 cy=450 r=14.274794734197897 stroke=""black"" stroke-width=""1.5"" fill=""none"" />
    <circle cx=637.3122448809884 cy=450 r=14.274794734197897 stroke=""black"" stroke-width=""1.5"" fill=""none"" />
    <circle cx=565.83 cy=521.4822448809883 r=14.274794734197897 stroke=""black"" stroke-width=""1.5"" fill=""none"" />
    <circle cx=494.3477551190117 cy=450 r=14.274794734197897 stroke=""black"" stroke-width=""1.5"" fill=""none"" />
    <circle cx=565.83 cy=378.51775511901167 r=14.274794734197897 stroke=""black"" stroke-width=""1.5"" fill=""none"" />
    <polygon points = ""565.83,450 569.8454283847562,464.2747947341979 561.8145716152438,464.2747947341979"" stroke=""white"" stroke-width=""3"" fill = ""white"" />
    
    </svg>
    </div>
        ","","","","","","","","","","","","stimulus","","","","","","","","","","","","","","","","",""
"html-keyboard-response","78","400619","0.0-78.0","447.39999997615814","arrowdown","","
    <div style="" display: block;  position: relative;"">
    
    <svg width=1600 height=900>
    <circle cx=737 cy=450 r=9.992356313938528 stroke=""black"" stroke-width=""1"" fill=""black"" />
    <circle cx=637.3122448809884 cy=450 r=14.274794734197897 stroke=""none"" stroke-width=""1.5"" fill=""none"" />
    <circle cx=565.83 cy=521.4822448809883 r=14.274794734197897 stroke=""none"" stroke-width=""1.5"" fill=""none"" />
    <circle cx=494.3477551190117 cy=450 r=14.274794734197897 stroke=""none"" stroke-width=""1.5"" fill=""none"" />
    <circle cx=565.83 cy=378.51775511901167 r=14.274794734197897 stroke=""none"" stroke-width=""1.5"" fill=""none"" />
    <polygon points = ""565.83,450 569.8454283847562,464.2747947341979 561.8145716152438,464.2747947341979"" stroke=""none"" stroke-width=""3"" fill = ""none"" />
    
    </svg>
    </div>
        ","","","","","","","","","","","","get_response","true","opYZckdMKz6qmuHF","","","true","false","false","171.17","6","455.784","71.48224488098833","2.5","1","0","","",""
"html-keyboard-response","79","401122","0.0-79.0","null","null","","
    <div style="" display: block;  position: relative;"">
    
    <svg width=1600 height=900>
    <circle cx=737 cy=450 r=9.992356313938528 stroke=""black"" stroke-width=""1"" fill=""black"" />
    <circle cx=637.3122448809884 cy=450 r=14.274794734197897 stroke=""none"" stroke-width=""1.5"" fill=""none"" />
    <circle cx=565.83 cy=521.4822448809883 r=14.274794734197897 stroke=""none"" stroke-width=""1.5"" fill=""none"" />
    <circle cx=494.3477551190117 cy=450 r=14.274794734197897 stroke=""none"" stroke-width=""1.5"" fill=""none"" />
    <circle cx=565.83 cy=378.51775511901167 r=14.274794734197897 stroke=""none"" stroke-width=""1.5"" fill=""none"" />
    <polygon points = ""565.83,450 569.8454283847562,464.2747947341979 561.8145716152438,464.2747947341979"" stroke=""none"" stroke-width=""3"" fill = ""none"" />
    
    </svg>
    </div>
        ","","","","","","","","","","","","","","","","","","","","","","","","","","","","",""
"html-keyboard-response","80","401274","0.0-80.0","null","null","","
    <div style="" display: block;  position: relative;"">
    <svg width=1600 height=900>
    
    <circle cx=737 cy=450 r=9.992356313938528 stroke=""black"" stroke-width=""1"" fill=""black"" />
    <circle cx=908.17 cy=450 r=14.274794734197897 stroke=""black"" stroke-width=""1.5"" fill=""none"" />
    <circle cx=973.1538589827167 cy=450 r=14.274794734197897 stroke=""black"" stroke-width=""1.5"" fill=""none"" />
    <circle cx=908.17 cy=514.9838589827167 r=14.274794734197897 stroke=""black"" stroke-width=""1.5"" fill=""none"" />
    <circle cx=843.1861410172833 cy=450 r=14.274794734197897 stroke=""black"" stroke-width=""1.5"" fill=""none"" />
    <circle cx=908.17 cy=385.01614101728336 r=14.274794734197897 stroke=""black"" stroke-width=""1.5"" fill=""none"" />
    <polygon points = ""908.17,450 912.1854283847562,435.7252052658021 904.1545716152438,435.7252052658021"" stroke=""white"" stroke-width=""3"" fill = ""white"" />
    
    </svg>
    </div>
        ","","","","","","","","","","","","stimulus","","","","","","","","","","","","","","","","",""
"html-keyboard-response","81","401793","0.0-81.0","517","arrowup","","
    <div style="" display: block;  position: relative;"">
    
    <svg width=1600 height=900>
    <circle cx=737 cy=450 r=9.992356313938528 stroke=""black"" stroke-width=""1"" fill=""black"" />
    <circle cx=973.1538589827167 cy=450 r=14.274794734197897 stroke=""none"" stroke-width=""1.5"" fill=""none"" />
    <circle cx=908.17 cy=514.9838589827167 r=14.274794734197897 stroke=""none"" stroke-width=""1.5"" fill=""none"" />
    <circle cx=843.1861410172833 cy=450 r=14.274794734197897 stroke=""none"" stroke-width=""1.5"" fill=""none"" />
    <circle cx=908.17 cy=385.01614101728336 r=14.274794734197897 stroke=""none"" stroke-width=""1.5"" fill=""none"" />
    <polygon points = ""908.17,450 912.1854283847562,435.7252052658021 904.1545716152438,435.7252052658021"" stroke=""none"" stroke-width=""3"" fill = ""none"" />
    
    </svg>
    </div>
        ","","","","","","","","","","","","get_response","true","opYZckdMKz6qmuHF","","","false","true","false","171.17","6","455.784","64.98385898271665","2.27","1","0","","",""
"html-keyboard-response","82","402294","0.0-82.0","null","null","","
    <div style="" display: block;  position: relative;"">
    
    <svg width=1600 height=900>
    <circle cx=737 cy=450 r=9.992356313938528 stroke=""black"" stroke-width=""1"" fill=""black"" />
    <circle cx=973.1538589827167 cy=450 r=14.274794734197897 stroke=""none"" stroke-width=""1.5"" fill=""none"" />
    <circle cx=908.17 cy=514.9838589827167 r=14.274794734197897 stroke=""none"" stroke-width=""1.5"" fill=""none"" />
    <circle cx=843.1861410172833 cy=450 r=14.274794734197897 stroke=""none"" stroke-width=""1.5"" fill=""none"" />
    <circle cx=908.17 cy=385.01614101728336 r=14.274794734197897 stroke=""none"" stroke-width=""1.5"" fill=""none"" />
    <polygon points = ""908.17,450 912.1854283847562,435.7252052658021 904.1545716152438,435.7252052658021"" stroke=""none"" stroke-width=""3"" fill = ""none"" />
    
    </svg>
    </div>
        ","","","","","","","","","","","","","","","","","","","","","","","","","","","","",""
"html-keyboard-response","83","402447","0.0-83.0","null","null","","
    <div style="" display: block;  position: relative;"">
    <svg width=1600 height=900>
    
    <circle cx=737 cy=450 r=9.992356313938528 stroke=""black"" stroke-width=""1"" fill=""black"" />
    <circle cx=908.17 cy=450 r=14.274794734197897 stroke=""black"" stroke-width=""1.5"" fill=""none"" />
    <circle cx=967.2462354388333 cy=450 r=14.274794734197897 stroke=""black"" stroke-width=""1.5"" fill=""none"" />
    <circle cx=908.17 cy=509.0762354388333 r=14.274794734197897 stroke=""black"" stroke-width=""1.5"" fill=""none"" />
    <circle cx=849.0937645611666 cy=450 r=14.274794734197897 stroke=""black"" stroke-width=""1.5"" fill=""none"" />
    <circle cx=908.17 cy=390.9237645611667 r=14.274794734197897 stroke=""black"" stroke-width=""1.5"" fill=""none"" />
    <polygon points = ""908.17,450 912.1854283847562,464.2747947341979 904.1545716152438,464.2747947341979"" stroke=""white"" stroke-width=""3"" fill = ""white"" />
    
    </svg>
    </div>
        ","","","","","","","","","","","","stimulus","","","","","","","","","","","","","","","","",""
"html-keyboard-response","84","403018","0.0-84.0","568.8000000715256","arrowdown","","
    <div style="" display: block;  position: relative;"">
    
    <svg width=1600 height=900>
    <circle cx=737 cy=450 r=9.992356313938528 stroke=""black"" stroke-width=""1"" fill=""black"" />
    <circle cx=967.2462354388333 cy=450 r=14.274794734197897 stroke=""none"" stroke-width=""1.5"" fill=""none"" />
    <circle cx=908.17 cy=509.0762354388333 r=14.274794734197897 stroke=""none"" stroke-width=""1.5"" fill=""none"" />
    <circle cx=849.0937645611666 cy=450 r=14.274794734197897 stroke=""none"" stroke-width=""1.5"" fill=""none"" />
    <circle cx=908.17 cy=390.9237645611667 r=14.274794734197897 stroke=""none"" stroke-width=""1.5"" fill=""none"" />
    <polygon points = ""908.17,450 912.1854283847562,464.2747947341979 904.1545716152438,464.2747947341979"" stroke=""none"" stroke-width=""3"" fill = ""none"" />
    
    </svg>
    </div>
        ","","","","","","","","","","","","get_response","true","opYZckdMKz6qmuHF","","","false","false","false","171.17","6","455.784","59.076235438833315","2.06","1","0","","",""
"html-keyboard-response","85","403521","0.0-85.0","null","null","","
    <div style="" display: block;  position: relative;"">
    
    <svg width=1600 height=900>
    <circle cx=737 cy=450 r=9.992356313938528 stroke=""black"" stroke-width=""1"" fill=""black"" />
    <circle cx=967.2462354388333 cy=450 r=14.274794734197897 stroke=""none"" stroke-width=""1.5"" fill=""none"" />
    <circle cx=908.17 cy=509.0762354388333 r=14.274794734197897 stroke=""none"" stroke-width=""1.5"" fill=""none"" />
    <circle cx=849.0937645611666 cy=450 r=14.274794734197897 stroke=""none"" stroke-width=""1.5"" fill=""none"" />
    <circle cx=908.17 cy=390.9237645611667 r=14.274794734197897 stroke=""none"" stroke-width=""1.5"" fill=""none"" />
    <polygon points = ""908.17,450 912.1854283847562,464.2747947341979 904.1545716152438,464.2747947341979"" stroke=""none"" stroke-width=""3"" fill = ""none"" />
    
    </svg>
    </div>
        ","","","","","","","","","","","","","","","","","","","","","","","","","","","","",""
"html-keyboard-response","86","403673","0.0-86.0","null","null","","
    <div style="" display: block;  position: relative;"">
    <svg width=1600 height=900>
    
    <circle cx=737 cy=450 r=9.992356313938528 stroke=""black"" stroke-width=""1"" fill=""black"" />
    <circle cx=908.17 cy=450 r=14.274794734197897 stroke=""black"" stroke-width=""1.5"" fill=""none"" />
    <circle cx=961.8756685807575 cy=450 r=14.274794734197897 stroke=""black"" stroke-width=""1.5"" fill=""none"" />
    <circle cx=908.17 cy=503.70566858075756 r=14.274794734197897 stroke=""black"" stroke-width=""1.5"" fill=""none"" />
    <circle cx=854.4643314192424 cy=450 r=14.274794734197897 stroke=""black"" stroke-width=""1.5"" fill=""none"" />
    <circle cx=908.17 cy=396.29433141924244 r=14.274794734197897 stroke=""black"" stroke-width=""1.5"" fill=""none"" />
    <polygon points = ""908.17,450 912.1854283847562,435.7252052658021 904.1545716152438,435.7252052658021"" stroke=""white"" stroke-width=""3"" fill = ""white"" />
    
    </svg>
    </div>
        ","","","","","","","","","","","","stimulus","","","","","","","","","","","","","","","","",""
"html-keyboard-response","87","404194","0.0-87.0","518.7999999523163","arrowup","","
    <div style="" display: block;  position: relative;"">
    
    <svg width=1600 height=900>
    <circle cx=737 cy=450 r=9.992356313938528 stroke=""black"" stroke-width=""1"" fill=""black"" />
    <circle cx=961.8756685807575 cy=450 r=14.274794734197897 stroke=""none"" stroke-width=""1.5"" fill=""none"" />
    <circle cx=908.17 cy=503.70566858075756 r=14.274794734197897 stroke=""none"" stroke-width=""1.5"" fill=""none"" />
    <circle cx=854.4643314192424 cy=450 r=14.274794734197897 stroke=""none"" stroke-width=""1.5"" fill=""none"" />
    <circle cx=908.17 cy=396.29433141924244 r=14.274794734197897 stroke=""none"" stroke-width=""1.5"" fill=""none"" />
    <polygon points = ""908.17,450 912.1854283847562,435.7252052658021 904.1545716152438,435.7252052658021"" stroke=""none"" stroke-width=""3"" fill = ""none"" />
    
    </svg>
    </div>
        ","","","","","","","","","","","","get_response","true","opYZckdMKz6qmuHF","","","false","true","false","171.17","6","455.784","53.70566858075755","1.88","1","0","","",""
"html-keyboard-response","88","404698","0.0-88.0","null","null","","
    <div style="" display: block;  position: relative;"">
    
    <svg width=1600 height=900>
    <circle cx=737 cy=450 r=9.992356313938528 stroke=""black"" stroke-width=""1"" fill=""black"" />
    <circle cx=961.8756685807575 cy=450 r=14.274794734197897 stroke=""none"" stroke-width=""1.5"" fill=""none"" />
    <circle cx=908.17 cy=503.70566858075756 r=14.274794734197897 stroke=""none"" stroke-width=""1.5"" fill=""none"" />
    <circle cx=854.4643314192424 cy=450 r=14.274794734197897 stroke=""none"" stroke-width=""1.5"" fill=""none"" />
    <circle cx=908.17 cy=396.29433141924244 r=14.274794734197897 stroke=""none"" stroke-width=""1.5"" fill=""none"" />
    <polygon points = ""908.17,450 912.1854283847562,435.7252052658021 904.1545716152438,435.7252052658021"" stroke=""none"" stroke-width=""3"" fill = ""none"" />
    
    </svg>
    </div>
        ","","","","","","","","","","","","","","","","","","","","","","","","","","","","",""
"html-keyboard-response","89","404850","0.0-89.0","null","null","","
    <div style="" display: block;  position: relative;"">
    <svg width=1600 height=900>
    
    <circle cx=737 cy=450 r=9.992356313938528 stroke=""black"" stroke-width=""1"" fill=""black"" />
    <circle cx=908.17 cy=450 r=14.274794734197897 stroke=""black"" stroke-width=""1.5"" fill=""none"" />
    <circle cx=956.9933350734159 cy=450 r=14.274794734197897 stroke=""black"" stroke-width=""1.5"" fill=""none"" />
    <circle cx=908.17 cy=498.82333507341593 r=14.274794734197897 stroke=""black"" stroke-width=""1.5"" fill=""none"" />
    <circle cx=859.346664926584 cy=450 r=14.274794734197897 stroke=""black"" stroke-width=""1.5"" fill=""none"" />
    <circle cx=908.17 cy=401.17666492658407 r=14.274794734197897 stroke=""black"" stroke-width=""1.5"" fill=""none"" />
    <polygon points = ""908.17,450 912.1854283847562,435.7252052658021 904.1545716152438,435.7252052658021"" stroke=""white"" stroke-width=""3"" fill = ""white"" />
    
    </svg>
    </div>
        ","","","","","","","","","","","","stimulus","","","","","","","","","","","","","","","","",""
"html-keyboard-response","90","405354","0.0-90.0","503.1999999284744","arrowup","","
    <div style="" display: block;  position: relative;"">
    
    <svg width=1600 height=900>
    <circle cx=737 cy=450 r=9.992356313938528 stroke=""black"" stroke-width=""1"" fill=""black"" />
    <circle cx=956.9933350734159 cy=450 r=14.274794734197897 stroke=""none"" stroke-width=""1.5"" fill=""none"" />
    <circle cx=908.17 cy=498.82333507341593 r=14.274794734197897 stroke=""none"" stroke-width=""1.5"" fill=""none"" />
    <circle cx=859.346664926584 cy=450 r=14.274794734197897 stroke=""none"" stroke-width=""1.5"" fill=""none"" />
    <circle cx=908.17 cy=401.17666492658407 r=14.274794734197897 stroke=""none"" stroke-width=""1.5"" fill=""none"" />
    <polygon points = ""908.17,450 912.1854283847562,435.7252052658021 904.1545716152438,435.7252052658021"" stroke=""none"" stroke-width=""3"" fill = ""none"" />
    
    </svg>
    </div>
        ","","","","","","","","","","","","get_response","true","opYZckdMKz6qmuHF","","","false","true","false","171.17","6","455.784","48.823335073415954","1.71","1","0","","",""
"html-keyboard-response","91","405857","0.0-91.0","null","null","","
    <div style="" display: block;  position: relative;"">
    
    <svg width=1600 height=900>
    <circle cx=737 cy=450 r=9.992356313938528 stroke=""black"" stroke-width=""1"" fill=""black"" />
    <circle cx=956.9933350734159 cy=450 r=14.274794734197897 stroke=""none"" stroke-width=""1.5"" fill=""none"" />
    <circle cx=908.17 cy=498.82333507341593 r=14.274794734197897 stroke=""none"" stroke-width=""1.5"" fill=""none"" />
    <circle cx=859.346664926584 cy=450 r=14.274794734197897 stroke=""none"" stroke-width=""1.5"" fill=""none"" />
    <circle cx=908.17 cy=401.17666492658407 r=14.274794734197897 stroke=""none"" stroke-width=""1.5"" fill=""none"" />
    <polygon points = ""908.17,450 912.1854283847562,435.7252052658021 904.1545716152438,435.7252052658021"" stroke=""none"" stroke-width=""3"" fill = ""none"" />
    
    </svg>
    </div>
        ","","","","","","","","","","","","","","","","","","","","","","","","","","","","",""
"html-keyboard-response","92","406008","0.0-92.0","null","null","","
    <div style="" display: block;  position: relative;"">
    <svg width=1600 height=900>
    
    <circle cx=737 cy=450 r=9.992356313938528 stroke=""black"" stroke-width=""1"" fill=""black"" />
    <circle cx=908.17 cy=450 r=14.274794734197897 stroke=""black"" stroke-width=""1.5"" fill=""none"" />
    <circle cx=952.5548500667418 cy=450 r=14.274794734197897 stroke=""black"" stroke-width=""1.5"" fill=""none"" />
    <circle cx=908.17 cy=494.38485006674176 r=14.274794734197897 stroke=""black"" stroke-width=""1.5"" fill=""none"" />
    <circle cx=863.7851499332581 cy=450 r=14.274794734197897 stroke=""black"" stroke-width=""1.5"" fill=""none"" />
    <circle cx=908.17 cy=405.61514993325824 r=14.274794734197897 stroke=""black"" stroke-width=""1.5"" fill=""none"" />
    <polygon points = ""908.17,450 912.1854283847562,464.2747947341979 904.1545716152438,464.2747947341979"" stroke=""white"" stroke-width=""3"" fill = ""white"" />
    
    </svg>
    </div>
        ","","","","","","","","","","","","stimulus","","","","","","","","","","","","","","","","",""
"html-keyboard-response","93","406521","0.0-93.0","511.3000000715256","arrowdown","","
    <div style="" display: block;  position: relative;"">
    
    <svg width=1600 height=900>
    <circle cx=737 cy=450 r=9.992356313938528 stroke=""black"" stroke-width=""1"" fill=""black"" />
    <circle cx=952.5548500667418 cy=450 r=14.274794734197897 stroke=""none"" stroke-width=""1.5"" fill=""none"" />
    <circle cx=908.17 cy=494.38485006674176 r=14.274794734197897 stroke=""none"" stroke-width=""1.5"" fill=""none"" />
    <circle cx=863.7851499332581 cy=450 r=14.274794734197897 stroke=""none"" stroke-width=""1.5"" fill=""none"" />
    <circle cx=908.17 cy=405.61514993325824 r=14.274794734197897 stroke=""none"" stroke-width=""1.5"" fill=""none"" />
    <polygon points = ""908.17,450 912.1854283847562,464.2747947341979 904.1545716152438,464.2747947341979"" stroke=""none"" stroke-width=""3"" fill = ""none"" />
    
    </svg>
    </div>
        ","","","","","","","","","","","","get_response","true","opYZckdMKz6qmuHF","","","false","false","false","171.17","6","455.784","44.38485006674177","1.55","1","0","","",""
"html-keyboard-response","94","407022","0.0-94.0","null","null","","
    <div style="" display: block;  position: relative;"">
    
    <svg width=1600 height=900>
    <circle cx=737 cy=450 r=9.992356313938528 stroke=""black"" stroke-width=""1"" fill=""black"" />
    <circle cx=952.5548500667418 cy=450 r=14.274794734197897 stroke=""none"" stroke-width=""1.5"" fill=""none"" />
    <circle cx=908.17 cy=494.38485006674176 r=14.274794734197897 stroke=""none"" stroke-width=""1.5"" fill=""none"" />
    <circle cx=863.7851499332581 cy=450 r=14.274794734197897 stroke=""none"" stroke-width=""1.5"" fill=""none"" />
    <circle cx=908.17 cy=405.61514993325824 r=14.274794734197897 stroke=""none"" stroke-width=""1.5"" fill=""none"" />
    <polygon points = ""908.17,450 912.1854283847562,464.2747947341979 904.1545716152438,464.2747947341979"" stroke=""none"" stroke-width=""3"" fill = ""none"" />
    
    </svg>
    </div>
        ","","","","","","","","","","","","","","","","","","","","","","","","","","","","",""
"html-keyboard-response","95","407175","0.0-95.0","null","null","","
    <div style="" display: block;  position: relative;"">
    <svg width=1600 height=900>
    
    <circle cx=737 cy=450 r=9.992356313938528 stroke=""black"" stroke-width=""1"" fill=""black"" />
    <circle cx=908.17 cy=450 r=14.274794734197897 stroke=""black"" stroke-width=""1.5"" fill=""none"" />
    <circle cx=948.519863697038 cy=450 r=14.274794734197897 stroke=""black"" stroke-width=""1.5"" fill=""none"" />
    <circle cx=908.17 cy=490.34986369703796 r=14.274794734197897 stroke=""black"" stroke-width=""1.5"" fill=""none"" />
    <circle cx=867.8201363029619 cy=450 r=14.274794734197897 stroke=""black"" stroke-width=""1.5"" fill=""none"" />
    <circle cx=908.17 cy=409.65013630296204 r=14.274794734197897 stroke=""black"" stroke-width=""1.5"" fill=""none"" />
    <polygon points = ""908.17,450 912.1854283847562,464.2747947341979 904.1545716152438,464.2747947341979"" stroke=""white"" stroke-width=""3"" fill = ""white"" />
    
    </svg>
    </div>
        ","","","","","","","","","","","","stimulus","","","","","","","","","","","","","","","","",""
"html-keyboard-response","96","407658","0.0-96.0","482.10000002384186","arrowdown","","
    <div style="" display: block;  position: relative;"">
    
    <svg width=1600 height=900>
    <circle cx=737 cy=450 r=9.992356313938528 stroke=""black"" stroke-width=""1"" fill=""black"" />
    <circle cx=948.519863697038 cy=450 r=14.274794734197897 stroke=""none"" stroke-width=""1.5"" fill=""none"" />
    <circle cx=908.17 cy=490.34986369703796 r=14.274794734197897 stroke=""none"" stroke-width=""1.5"" fill=""none"" />
    <circle cx=867.8201363029619 cy=450 r=14.274794734197897 stroke=""none"" stroke-width=""1.5"" fill=""none"" />
    <circle cx=908.17 cy=409.65013630296204 r=14.274794734197897 stroke=""none"" stroke-width=""1.5"" fill=""none"" />
    <polygon points = ""908.17,450 912.1854283847562,464.2747947341979 904.1545716152438,464.2747947341979"" stroke=""none"" stroke-width=""3"" fill = ""none"" />
    
    </svg>
    </div>
