"trial_type","trial_index","time_elapsed","internal_node_id","rt","response","success","stimulus","start_time","start_time_unix","item_width_mm","item_height_mm","item_width_px","px2mm","view_dist_mm","item_width_deg","px2deg","win_width_deg","win_height_deg","trialType","correct","participantID","criticalSpacing","criticalSpacing_deg","isLeft","isUp","isEccen4","eccentricity","eccentricity_deg","viewingDistanceMean","critical_spacing","critical_spacing_deg","crowding_session","correctRate","viewDistance_1","viewDistance_2","viewDistance_3"
"pavlovia","0","9","0.0-0.0","","","","","","","","","","","","","","","","","","","","","","","","","","","","","","","","",""
"survey-text","1","32239","0.0-1.0","32184.80000001192","{""Q0"":"""}","","","","","","","","","","","","","","","","","","","","","","","","","","","","","","",""
"fullscreen","2","35103","0.0-2.0","","","true","","","","","","","","","","","","","","","","","","","","","","","","","","","","","",""
"html-keyboard-response","3","37479","0.0-3.0","2374.899999976158"," ","","<h1>Consent Form</h1>
       <p>By answering the following questions, you are participating in a study being performed by cognitive scientists in the Stanford Department of Psychology. If you have questions about this research, please contact us at stanfordpsych251@gmail.com. You must be at least 18 years old to participate. Your participation in this research is voluntary. You may decline to answer any or all of the following questions. You may decline further participation by closing the window, at any time, without adverse consequences. Your anonymity is assured; the researchers who have requested your participation will not receive any personal information about you.</p>
       <p>Press <b>any key</b> to start the experiment!</p>","","","","","","","","","","","","","","","","","","","","","","","","","","","","",""
"html-keyboard-response","4","39969","0.0-4.0","2486.899999976158"," ","","<h1>Welcome to the Visual Crowding Experiment!</h1>
       <p>This test will take <b>10-12</b> minutes to complete.</p>
       <p>Press any key to start the experiment!</p>","30/11/2021 23:56:33","1638338193675","","","","","","","","","","","","","","","","","","","","","","","","","","",""
"html-keyboard-response","5","47674","0.0-5.0","7703.199999988079","arrowdown","","<div> 
<p> Before you begin this study, let&#39;s quickly test how far away you are sitting. You might know that vision tests at a doctor&#39;s practice often involve chinrests, the doctor basically asks you to sit away from a screen in a specific distance. We do this here with a <b>virtual chinrest</b>. </p>
<p> Please press the <b>down</b> arrow to continue.
</p>
</div>","","","","","","","","","","","","","","","","","","","","","","","","","","","","",""
"virtual-chinrest","6","153870","0.0-6.0","106194.5","","","","","","85.6","53.98","302","3.53","541.3","9.041817947231555","33.40036282111465","57.48440549233307","32.33497808943735","","","","","","","","","","","","","","","","","",""
"html-keyboard-response","7","177833","0.0-7.0","23957.400000035763","arrowdown","","
	<h2 class=""bolded-blue"">Now, you will take a peripheral vision test!</h2>
<p> 
	<b>
		<font size=""140%"">1. </font>
	</b>
	<em><b>Please use both eyes for the following task.</b></em> First, you will see a screen (like the one in the image below) showing a <b>black dot</b> in the middle of the screen, with a group of circles displayed on either the <span class=""bolded-blue"">left</span> or <span class=""bolded-blue"">right</span> of the black dot for 150 ms. <span class=""bolded-blue"">Please make sure to focus on the black dot all the time!</span>

	<div>
		<img src=""example.png"" alt=""example"" style=""border: 2px solid black"" width=""600""/> 
	</div>
	
	<b>
		<font size=""140%"">2. </font>
	</b>
	Your task is to identify whether the opening of the <b class=""bolded-blue"">center circle</b> is upward by pressing UP or downward by pressing DOWN on your keyboard. The opening of the circle will only be upward or downward, not towards left or right.

	<div>
		<img src=""arrow_keys+.png"" alt=""arrows"" style=""border: 2px solid black"" width=""600""/>
	</div>
	<br>

<p>Please press the <b>down</b> arrow key to start the <span class=""bolded-blue"">practice task</span> (this first practice task will not count toward your final results).</p>
</p>
","","","","","","","","","","","","","","","","","","","","","","","","","","","","",""
"html-keyboard-response","8","178338","0.0-8.0","null","null","","
    <div style="" display: block;  position: relative;"">
    
    <svg width=1920 height=1080>
    <circle cx=897 cy=540 r=12.405665718171171 stroke=""black"" stroke-width=""1"" fill=""black"" />
    <circle cx=NaN cy=540 r=17.722379597387388 stroke=""none"" stroke-width=""1.5"" fill=""none"" />
    <circle cx=755.04 cy=NaN r=17.722379597387388 stroke=""none"" stroke-width=""1.5"" fill=""none"" />
    <circle cx=NaN cy=540 r=17.722379597387388 stroke=""none"" stroke-width=""1.5"" fill=""none"" />
    <circle cx=755.04 cy=NaN r=17.722379597387388 stroke=""none"" stroke-width=""1.5"" fill=""none"" />
    <polygon points = ""755.04,540 760.025216768847,557.7223795973874 750.0547832311529,557.7223795973874"" stroke=""none"" stroke-width=""3"" fill = ""none"" />
    
    </svg>
    </div>
        ","","","","","","","","","","","","","","","","","","","","","","","","","","","","",""
"html-keyboard-response","9","178493","0.0-9.0","null","null","","
    <div style="" display: block;  position: relative;"">
    <svg width=1920 height=1080>
    
    <circle cx=897 cy=540 r=12.405665718171171 stroke=""black"" stroke-width=""1"" fill=""black"" />
    <circle cx=755.04 cy=540 r=17.722379597387388 stroke=""black"" stroke-width=""1.5"" fill=""none"" />
    <circle cx=847.314 cy=540 r=17.722379597387388 stroke=""black"" stroke-width=""1.5"" fill=""none"" />
    <circle cx=755.04 cy=632.274 r=17.722379597387388 stroke=""black"" stroke-width=""1.5"" fill=""none"" />
    <circle cx=662.766 cy=540 r=17.722379597387388 stroke=""black"" stroke-width=""1.5"" fill=""none"" />
    <circle cx=755.04 cy=447.726 r=17.722379597387388 stroke=""black"" stroke-width=""1.5"" fill=""none"" />
    <polygon points = ""755.04,540 760.025216768847,522.2776204026126 750.0547832311529,522.2776204026126"" stroke=""white"" stroke-width=""3"" fill = ""white"" />
    
    </svg>
    </div>
        ","","","","","","","","","","","","stimulus","","","","","","","","","","","","","","","","",""
"html-keyboard-response","10","180992","0.0-10.0","2495.800000011921","arrowdown","","
    <div style="" display: block;  position: relative;"">
    
    <svg width=1920 height=1080>
    <circle cx=897 cy=540 r=12.405665718171171 stroke=""black"" stroke-width=""1"" fill=""black"" />
    <circle cx=847.314 cy=540 r=17.722379597387388 stroke=""none"" stroke-width=""1.5"" fill=""none"" />
    <circle cx=755.04 cy=632.274 r=17.722379597387388 stroke=""none"" stroke-width=""1.5"" fill=""none"" />
    <circle cx=662.766 cy=540 r=17.722379597387388 stroke=""none"" stroke-width=""1.5"" fill=""none"" />
    <circle cx=755.04 cy=447.726 r=17.722379597387388 stroke=""none"" stroke-width=""1.5"" fill=""none"" />
    <polygon points = ""755.04,540 760.025216768847,522.2776204026126 750.0547832311529,522.2776204026126"" stroke=""none"" stroke-width=""3"" fill = ""none"" />
    
    </svg>
    </div>
        ","","","","","","","","","","","","practice_get_response","false","8YKZhmKRXb04sSrZ","92.27400000000002","2.6","true","true","true","141.96","4","577.0840000000001","","","","","","",""
"html-keyboard-response","11","181376","0.0-11.0","379.30000001192093","arrowup","","
    <div style="" display: block;  position: relative;"">
    
    <svg width=1920 height=1080>
    <circle cx=897 cy=540 r=12.405665718171171 stroke=""black"" stroke-width=""1"" fill=""black"" />
    <circle cx=847.314 cy=540 r=17.722379597387388 stroke=""none"" stroke-width=""1.5"" fill=""none"" />
    <circle cx=755.04 cy=632.274 r=17.722379597387388 stroke=""none"" stroke-width=""1.5"" fill=""none"" />
    <circle cx=662.766 cy=540 r=17.722379597387388 stroke=""none"" stroke-width=""1.5"" fill=""none"" />
    <circle cx=755.04 cy=447.726 r=17.722379597387388 stroke=""none"" stroke-width=""1.5"" fill=""none"" />
    <polygon points = ""755.04,540 760.025216768847,522.2776204026126 750.0547832311529,522.2776204026126"" stroke=""none"" stroke-width=""3"" fill = ""none"" />
    
    </svg>
    </div>
        ","","","","","","","","","","","","","","","","","","","","","","","","","","","","",""
"html-keyboard-response","12","181530","0.0-12.0","null","null","","
    <div style="" display: block;  position: relative;"">
    <svg width=1920 height=1080>
    
    <circle cx=897 cy=540 r=12.405665718171171 stroke=""black"" stroke-width=""1"" fill=""black"" />
    <circle cx=1038.96 cy=540 r=17.722379597387388 stroke=""black"" stroke-width=""1.5"" fill=""none"" />
    <circle cx=1145.4752408052252 cy=540 r=17.722379597387388 stroke=""black"" stroke-width=""1.5"" fill=""none"" />
    <circle cx=1038.96 cy=646.5152408052252 r=17.722379597387388 stroke=""black"" stroke-width=""1.5"" fill=""none"" />
    <circle cx=932.4447591947749 cy=540 r=17.722379597387388 stroke=""black"" stroke-width=""1.5"" fill=""none"" />
    <circle cx=1038.96 cy=433.48475919477477 r=17.722379597387388 stroke=""black"" stroke-width=""1.5"" fill=""none"" />
    <polygon points = ""1038.96,540 1043.945216768847,522.2776204026126 1033.974783231153,522.2776204026126"" stroke=""white"" stroke-width=""3"" fill = ""white"" />
    
    </svg>
    </div>
        ","","","","","","","","","","","","stimulus","","","","","","","","","","","","","","","","",""
"html-keyboard-response","13","183174","0.0-13.0","1641.7000000476837","arrowup","","
    <div style="" display: block;  position: relative;"">
    
    <svg width=1920 height=1080>
    <circle cx=897 cy=540 r=12.405665718171171 stroke=""black"" stroke-width=""1"" fill=""black"" />
    <circle cx=1145.4752408052252 cy=540 r=17.722379597387388 stroke=""none"" stroke-width=""1.5"" fill=""none"" />
    <circle cx=1038.96 cy=646.5152408052252 r=17.722379597387388 stroke=""none"" stroke-width=""1.5"" fill=""none"" />
    <circle cx=932.4447591947749 cy=540 r=17.722379597387388 stroke=""none"" stroke-width=""1.5"" fill=""none"" />
    <circle cx=1038.96 cy=433.48475919477477 r=17.722379597387388 stroke=""none"" stroke-width=""1.5"" fill=""none"" />
    <polygon points = ""1038.96,540 1043.945216768847,522.2776204026126 1033.974783231153,522.2776204026126"" stroke=""none"" stroke-width=""3"" fill = ""none"" />
    
    </svg>
    </div>
        ","","","","","","","","","","","","practice_get_response","true","8YKZhmKRXb04sSrZ","106.51524080522523","3","false","true","true","141.96","4","577.0840000000001","","","","","","",""
"html-keyboard-response","14","183472","0.0-14.0","294.80000001192093","arrowdown","","
    <div style="" display: block;  position: relative;"">
    
    <svg width=1920 height=1080>
    <circle cx=897 cy=540 r=12.405665718171171 stroke=""black"" stroke-width=""1"" fill=""black"" />
    <circle cx=1145.4752408052252 cy=540 r=17.722379597387388 stroke=""none"" stroke-width=""1.5"" fill=""none"" />
    <circle cx=1038.96 cy=646.5152408052252 r=17.722379597387388 stroke=""none"" stroke-width=""1.5"" fill=""none"" />
    <circle cx=932.4447591947749 cy=540 r=17.722379597387388 stroke=""none"" stroke-width=""1.5"" fill=""none"" />
    <circle cx=1038.96 cy=433.48475919477477 r=17.722379597387388 stroke=""none"" stroke-width=""1.5"" fill=""none"" />
    <polygon points = ""1038.96,540 1043.945216768847,522.2776204026126 1033.974783231153,522.2776204026126"" stroke=""none"" stroke-width=""3"" fill = ""none"" />
    
    </svg>
    </div>
        ","","","","","","","","","","","","","","","","","","","","","","","","","","","","",""
"html-keyboard-response","15","183625","0.0-15.0","null","null","","
    <div style="" display: block;  position: relative;"">
    <svg width=1920 height=1080>
    
    <circle cx=897 cy=540 r=12.405665718171171 stroke=""black"" stroke-width=""1"" fill=""black"" />
    <circle cx=755.04 cy=540 r=17.722379597387388 stroke=""black"" stroke-width=""1.5"" fill=""none"" />
    <circle cx=861.5552408052251 cy=540 r=17.722379597387388 stroke=""black"" stroke-width=""1.5"" fill=""none"" />
    <circle cx=755.04 cy=646.5152408052252 r=17.722379597387388 stroke=""black"" stroke-width=""1.5"" fill=""none"" />
    <circle cx=648.5247591947748 cy=540 r=17.722379597387388 stroke=""black"" stroke-width=""1.5"" fill=""none"" />
    <circle cx=755.04 cy=433.48475919477477 r=17.722379597387388 stroke=""black"" stroke-width=""1.5"" fill=""none"" />
    <polygon points = ""755.04,540 760.025216768847,522.2776204026126 750.0547832311529,522.2776204026126"" stroke=""white"" stroke-width=""3"" fill = ""white"" />
    
    </svg>
    </div>
        ","","","","","","","","","","","","stimulus","","","","","","","","","","","","","","","","",""
"html-keyboard-response","16","184960","0.0-16.0","1331.5","arrowup","","
    <div style="" display: block;  position: relative;"">
    
    <svg width=1920 height=1080>
    <circle cx=897 cy=540 r=12.405665718171171 stroke=""black"" stroke-width=""1"" fill=""black"" />
    <circle cx=861.5552408052251 cy=540 r=17.722379597387388 stroke=""none"" stroke-width=""1.5"" fill=""none"" />
    <circle cx=755.04 cy=646.5152408052252 r=17.722379597387388 stroke=""none"" stroke-width=""1.5"" fill=""none"" />
    <circle cx=648.5247591947748 cy=540 r=17.722379597387388 stroke=""none"" stroke-width=""1.5"" fill=""none"" />
    <circle cx=755.04 cy=433.48475919477477 r=17.722379597387388 stroke=""none"" stroke-width=""1.5"" fill=""none"" />
    <polygon points = ""755.04,540 760.025216768847,522.2776204026126 750.0547832311529,522.2776204026126"" stroke=""none"" stroke-width=""3"" fill = ""none"" />
    
    </svg>
    </div>
        ","","","","","","","","","","","","practice_get_response","true","8YKZhmKRXb04sSrZ","106.51524080522523","3","true","true","true","141.96","4","577.0840000000001","","","","","","",""
"html-keyboard-response","17","185382","0.0-17.0","419.9000000357628","arrowdown","","
    <div style="" display: block;  position: relative;"">
    
    <svg width=1920 height=1080>
    <circle cx=897 cy=540 r=12.405665718171171 stroke=""black"" stroke-width=""1"" fill=""black"" />
    <circle cx=861.5552408052251 cy=540 r=17.722379597387388 stroke=""none"" stroke-width=""1.5"" fill=""none"" />
    <circle cx=755.04 cy=646.5152408052252 r=17.722379597387388 stroke=""none"" stroke-width=""1.5"" fill=""none"" />
    <circle cx=648.5247591947748 cy=540 r=17.722379597387388 stroke=""none"" stroke-width=""1.5"" fill=""none"" />
    <circle cx=755.04 cy=433.48475919477477 r=17.722379597387388 stroke=""none"" stroke-width=""1.5"" fill=""none"" />
    <polygon points = ""755.04,540 760.025216768847,522.2776204026126 750.0547832311529,522.2776204026126"" stroke=""none"" stroke-width=""3"" fill = ""none"" />
    
    </svg>
    </div>
        ","","","","","","","","","","","","","","","","","","","","","","","","","","","","",""
"html-keyboard-response","18","185533","0.0-18.0","null","null","","
    <div style="" display: block;  position: relative;"">
    <svg width=1920 height=1080>
    
    <circle cx=897 cy=540 r=12.405665718171171 stroke=""black"" stroke-width=""1"" fill=""black"" />
    <circle cx=755.04 cy=540 r=17.722379597387388 stroke=""black"" stroke-width=""1.5"" fill=""none"" />
    <circle cx=861.5552408052251 cy=540 r=17.722379597387388 stroke=""black"" stroke-width=""1.5"" fill=""none"" />
    <circle cx=755.04 cy=646.5152408052252 r=17.722379597387388 stroke=""black"" stroke-width=""1.5"" fill=""none"" />
    <circle cx=648.5247591947748 cy=540 r=17.722379597387388 stroke=""black"" stroke-width=""1.5"" fill=""none"" />
    <circle cx=755.04 cy=433.48475919477477 r=17.722379597387388 stroke=""black"" stroke-width=""1.5"" fill=""none"" />
    <polygon points = ""755.04,540 760.025216768847,522.2776204026126 750.0547832311529,522.2776204026126"" stroke=""white"" stroke-width=""3"" fill = ""white"" />
    
    </svg>
    </div>
        ","","","","","","","","","","","","stimulus","","","","","","","","","","","","","","","","",""
"html-keyboard-response","19","186449","0.0-19.0","914.9000000357628","arrowdown","","
    <div style="" display: block;  position: relative;"">
    
    <svg width=1920 height=1080>
    <circle cx=897 cy=540 r=12.405665718171171 stroke=""black"" stroke-width=""1"" fill=""black"" />
    <circle cx=861.5552408052251 cy=540 r=17.722379597387388 stroke=""none"" stroke-width=""1.5"" fill=""none"" />
    <circle cx=755.04 cy=646.5152408052252 r=17.722379597387388 stroke=""none"" stroke-width=""1.5"" fill=""none"" />
    <circle cx=648.5247591947748 cy=540 r=17.722379597387388 stroke=""none"" stroke-width=""1.5"" fill=""none"" />
    <circle cx=755.04 cy=433.48475919477477 r=17.722379597387388 stroke=""none"" stroke-width=""1.5"" fill=""none"" />
    <polygon points = ""755.04,540 760.025216768847,522.2776204026126 750.0547832311529,522.2776204026126"" stroke=""none"" stroke-width=""3"" fill = ""none"" />
    
    </svg>
    </div>
        ","","","","","","","","","","","","practice_get_response","false","8YKZhmKRXb04sSrZ","106.51524080522523","3","true","true","true","141.96","4","577.0840000000001","","","","","","",""
"html-keyboard-response","20","186952","0.0-20.0","null","null","","
    <div style="" display: block;  position: relative;"">
    
    <svg width=1920 height=1080>
    <circle cx=897 cy=540 r=12.405665718171171 stroke=""black"" stroke-width=""1"" fill=""black"" />
    <circle cx=861.5552408052251 cy=540 r=17.722379597387388 stroke=""none"" stroke-width=""1.5"" fill=""none"" />
    <circle cx=755.04 cy=646.5152408052252 r=17.722379597387388 stroke=""none"" stroke-width=""1.5"" fill=""none"" />
    <circle cx=648.5247591947748 cy=540 r=17.722379597387388 stroke=""none"" stroke-width=""1.5"" fill=""none"" />
    <circle cx=755.04 cy=433.48475919477477 r=17.722379597387388 stroke=""none"" stroke-width=""1.5"" fill=""none"" />
    <polygon points = ""755.04,540 760.025216768847,522.2776204026126 750.0547832311529,522.2776204026126"" stroke=""none"" stroke-width=""3"" fill = ""none"" />
    
    </svg>
    </div>
        ","","","","","","","","","","","","","","","","","","","","","","","","","","","","",""
"html-keyboard-response","21","187106","0.0-21.0","null","null","","
    <div style="" display: block;  position: relative;"">
    <svg width=1920 height=1080>
    
    <circle cx=897 cy=540 r=12.405665718171171 stroke=""black"" stroke-width=""1"" fill=""black"" />
    <circle cx=755.04 cy=540 r=17.722379597387388 stroke=""black"" stroke-width=""1.5"" fill=""none"" />
    <circle cx=861.5552408052251 cy=540 r=17.722379597387388 stroke=""black"" stroke-width=""1.5"" fill=""none"" />
    <circle cx=755.04 cy=646.5152408052252 r=17.722379597387388 stroke=""black"" stroke-width=""1.5"" fill=""none"" />
    <circle cx=648.5247591947748 cy=540 r=17.722379597387388 stroke=""black"" stroke-width=""1.5"" fill=""none"" />
    <circle cx=755.04 cy=433.48475919477477 r=17.722379597387388 stroke=""black"" stroke-width=""1.5"" fill=""none"" />
    <polygon points = ""755.04,540 760.025216768847,557.7223795973874 750.0547832311529,557.7223795973874"" stroke=""white"" stroke-width=""3"" fill = ""white"" />
    
    </svg>
    </div>
        ","","","","","","","","","","","","stimulus","","","","","","","","","","","","","","","","",""
"html-keyboard-response","22","187242","0.0-22.0","132.5","arrowdown","","
    <div style="" display: block;  position: relative;"">
    
    <svg width=1920 height=1080>
    <circle cx=897 cy=540 r=12.405665718171171 stroke=""black"" stroke-width=""1"" fill=""black"" />
    <circle cx=861.5552408052251 cy=540 r=17.722379597387388 stroke=""none"" stroke-width=""1.5"" fill=""none"" />
    <circle cx=755.04 cy=646.5152408052252 r=17.722379597387388 stroke=""none"" stroke-width=""1.5"" fill=""none"" />
    <circle cx=648.5247591947748 cy=540 r=17.722379597387388 stroke=""none"" stroke-width=""1.5"" fill=""none"" />
    <circle cx=755.04 cy=433.48475919477477 r=17.722379597387388 stroke=""none"" stroke-width=""1.5"" fill=""none"" />
    <polygon points = ""755.04,540 760.025216768847,557.7223795973874 750.0547832311529,557.7223795973874"" stroke=""none"" stroke-width=""3"" fill = ""none"" />
    
    </svg>
    </div>
        ","","","","","","","","","","","","practice_get_response","true","8YKZhmKRXb04sSrZ","106.51524080522523","3","true","false","true","141.96","4","577.0840000000001","","","","","","",""
"html-keyboard-response","23","193559","0.0-23.0","6313.100000023842","arrowdown","","<div> 
<h2 class=""bolded-blue"">Well done!</h2>
<p> Now that you have the hang of it, we&#39;ll start the study. This session has 25 trials and takes about 2 minute to complete. </p> 
<p>If you are ready for the real deal, please press the <b>down</b> arrow to continue.
</p>
</div>","","","","","","","","","","","","","","","","","","","","","","","","","","","","",""
"html-keyboard-response","24","209926","0.0-24.0","16365.199999988079","arrowdown","","<div id=""continue""> 
<p>Again, please keep the <b>full screen</b> mode for the best experience.</p>
<p>Please do not move around and keep your eye on the black dot. Click <b>up</b> or <b>down</b> key on your keyboard to indicate the opening of the center circle. Make your best guess!</p>
<p>Please press the <b>down</b> arrow key to start the session 1. </p>
</div>","","","","","","","","","","","","","","","","","","","","","","","","","","","","",""
"html-keyboard-response","25","210430","0.0-25.0","null","null","","
    <div style="" display: block;  position: relative;"">
    
    <svg width=1920 height=1080>
    <circle cx=897 cy=540 r=12.405665718171171 stroke=""black"" stroke-width=""1"" fill=""black"" />
    <circle cx=861.5552408052251 cy=540 r=17.722379597387388 stroke=""none"" stroke-width=""1.5"" fill=""none"" />
    <circle cx=755.04 cy=646.5152408052252 r=17.722379597387388 stroke=""none"" stroke-width=""1.5"" fill=""none"" />
    <circle cx=648.5247591947748 cy=540 r=17.722379597387388 stroke=""none"" stroke-width=""1.5"" fill=""none"" />
    <circle cx=755.04 cy=433.48475919477477 r=17.722379597387388 stroke=""none"" stroke-width=""1.5"" fill=""none"" />
    <polygon points = ""755.04,540 760.025216768847,557.7223795973874 750.0547832311529,557.7223795973874"" stroke=""none"" stroke-width=""3"" fill = ""none"" />
    
    </svg>
    </div>
        ","","","","","","","","","","","","","","","","","","","","","","","","","","","","",""
"html-keyboard-response","26","210584","0.0-26.0","null","null","","
    <div style="" display: block;  position: relative;"">
    <svg width=1920 height=1080>
    
    <circle cx=897 cy=540 r=12.405665718171171 stroke=""black"" stroke-width=""1"" fill=""black"" />
    <circle cx=755.04 cy=540 r=17.722379597387388 stroke=""black"" stroke-width=""1.5"" fill=""none"" />
    <circle cx=847.314 cy=540 r=17.722379597387388 stroke=""black"" stroke-width=""1.5"" fill=""none"" />
    <circle cx=755.04 cy=632.274 r=17.722379597387388 stroke=""black"" stroke-width=""1.5"" fill=""none"" />
    <circle cx=662.766 cy=540 r=17.722379597387388 stroke=""black"" stroke-width=""1.5"" fill=""none"" />
    <circle cx=755.04 cy=447.726 r=17.722379597387388 stroke=""black"" stroke-width=""1.5"" fill=""none"" />
    <polygon points = ""755.04,540 760.025216768847,557.7223795973874 750.0547832311529,557.7223795973874"" stroke=""white"" stroke-width=""3"" fill = ""white"" />
    
    </svg>
    </div>
        ","","","","","","","","","","","","stimulus","","","","","","","","","","","","","","","","",""
"html-keyboard-response","27","211087","0.0-27.0","500.19999998807907","arrowdown","","
    <div style="" display: block;  position: relative;"">
    
    <svg width=1920 height=1080>
    <circle cx=897 cy=540 r=12.405665718171171 stroke=""black"" stroke-width=""1"" fill=""black"" />
    <circle cx=847.314 cy=540 r=17.722379597387388 stroke=""none"" stroke-width=""1.5"" fill=""none"" />
    <circle cx=755.04 cy=632.274 r=17.722379597387388 stroke=""none"" stroke-width=""1.5"" fill=""none"" />
    <circle cx=662.766 cy=540 r=17.722379597387388 stroke=""none"" stroke-width=""1.5"" fill=""none"" />
    <circle cx=755.04 cy=447.726 r=17.722379597387388 stroke=""none"" stroke-width=""1.5"" fill=""none"" />
    <polygon points = ""755.04,540 760.025216768847,557.7223795973874 750.0547832311529,557.7223795973874"" stroke=""none"" stroke-width=""3"" fill = ""none"" />
    
    </svg>
    </div>
        ","","","","","","","","","","","","get_response","true","8YKZhmKRXb04sSrZ","","","true","false","true","141.96","4","577.0840000000001","92.27400000000002","2.6","1","0","","",""
"html-keyboard-response","28","211592","0.0-28.0","null","null","","
    <div style="" display: block;  position: relative;"">
    
    <svg width=1920 height=1080>
    <circle cx=897 cy=540 r=12.405665718171171 stroke=""black"" stroke-width=""1"" fill=""black"" />
    <circle cx=847.314 cy=540 r=17.722379597387388 stroke=""none"" stroke-width=""1.5"" fill=""none"" />
    <circle cx=755.04 cy=632.274 r=17.722379597387388 stroke=""none"" stroke-width=""1.5"" fill=""none"" />
    <circle cx=662.766 cy=540 r=17.722379597387388 stroke=""none"" stroke-width=""1.5"" fill=""none"" />
    <circle cx=755.04 cy=447.726 r=17.722379597387388 stroke=""none"" stroke-width=""1.5"" fill=""none"" />
    <polygon points = ""755.04,540 760.025216768847,557.7223795973874 750.0547832311529,557.7223795973874"" stroke=""none"" stroke-width=""3"" fill = ""none"" />
    
    </svg>
    </div>
        ","","","","","","","","","","","","","","","","","","","","","","","","","","","","",""
"html-keyboard-response","29","211745","0.0-29.0","null","null","","
    <div style="" display: block;  position: relative;"">
    <svg width=1920 height=1080>
    
    <circle cx=897 cy=540 r=12.405665718171171 stroke=""black"" stroke-width=""1"" fill=""black"" />
    <circle cx=755.04 cy=540 r=17.722379597387388 stroke=""black"" stroke-width=""1.5"" fill=""none"" />
    <circle cx=847.314 cy=540 r=17.722379597387388 stroke=""black"" stroke-width=""1.5"" fill=""none"" />
    <circle cx=755.04 cy=632.274 r=17.722379597387388 stroke=""black"" stroke-width=""1.5"" fill=""none"" />
    <circle cx=662.766 cy=540 r=17.722379597387388 stroke=""black"" stroke-width=""1.5"" fill=""none"" />
    <circle cx=755.04 cy=447.726 r=17.722379597387388 stroke=""black"" stroke-width=""1.5"" fill=""none"" />
    <polygon points = ""755.04,540 760.025216768847,522.2776204026126 750.0547832311529,522.2776204026126"" stroke=""white"" stroke-width=""3"" fill = ""white"" />
    
    </svg>
    </div>
        ","","","","","","","","","","","","stimulus","","","","","","","","","","","","","","","","",""
"html-keyboard-response","30","212265","0.0-30.0","516.0999999642372","arrowdown","","
    <div style="" display: block;  position: relative;"">
    
    <svg width=1920 height=1080>
    <circle cx=897 cy=540 r=12.405665718171171 stroke=""black"" stroke-width=""1"" fill=""black"" />
    <circle cx=847.314 cy=540 r=17.722379597387388 stroke=""none"" stroke-width=""1.5"" fill=""none"" />
    <circle cx=755.04 cy=632.274 r=17.722379597387388 stroke=""none"" stroke-width=""1.5"" fill=""none"" />
    <circle cx=662.766 cy=540 r=17.722379597387388 stroke=""none"" stroke-width=""1.5"" fill=""none"" />
    <circle cx=755.04 cy=447.726 r=17.722379597387388 stroke=""none"" stroke-width=""1.5"" fill=""none"" />
    <polygon points = ""755.04,540 760.025216768847,522.2776204026126 750.0547832311529,522.2776204026126"" stroke=""none"" stroke-width=""3"" fill = ""none"" />
    
    </svg>
    </div>
        ","","","","","","","","","","","","get_response","false","8YKZhmKRXb04sSrZ","","","true","true","true","141.96","4","577.0840000000001","92.27400000000002","2.6","1","0","","",""
"html-keyboard-response","31","212769","0.0-31.0","null","null","","
    <div style="" display: block;  position: relative;"">
    
    <svg width=1920 height=1080>
    <circle cx=897 cy=540 r=12.405665718171171 stroke=""black"" stroke-width=""1"" fill=""black"" />
    <circle cx=847.314 cy=540 r=17.722379597387388 stroke=""none"" stroke-width=""1.5"" fill=""none"" />
    <circle cx=755.04 cy=632.274 r=17.722379597387388 stroke=""none"" stroke-width=""1.5"" fill=""none"" />
    <circle cx=662.766 cy=540 r=17.722379597387388 stroke=""none"" stroke-width=""1.5"" fill=""none"" />
    <circle cx=755.04 cy=447.726 r=17.722379597387388 stroke=""none"" stroke-width=""1.5"" fill=""none"" />
    <polygon points = ""755.04,540 760.025216768847,522.2776204026126 750.0547832311529,522.2776204026126"" stroke=""none"" stroke-width=""3"" fill = ""none"" />
    
    </svg>
    </div>
        ","","","","","","","","","","","","","","","","","","","","","","","","","","","","",""
"html-keyboard-response","32","212923","0.0-32.0","null","null","","
    <div style="" display: block;  position: relative;"">
    <svg width=1920 height=1080>
    
    <circle cx=897 cy=540 r=12.405665718171171 stroke=""black"" stroke-width=""1"" fill=""black"" />
    <circle cx=1038.96 cy=540 r=17.722379597387388 stroke=""black"" stroke-width=""1.5"" fill=""none"" />
    <circle cx=1145.4752408052252 cy=540 r=17.722379597387388 stroke=""black"" stroke-width=""1.5"" fill=""none"" />
    <circle cx=1038.96 cy=646.5152408052252 r=17.722379597387388 stroke=""black"" stroke-width=""1.5"" fill=""none"" />
    <circle cx=932.4447591947749 cy=540 r=17.722379597387388 stroke=""black"" stroke-width=""1.5"" fill=""none"" />
    <circle cx=1038.96 cy=433.48475919477477 r=17.722379597387388 stroke=""black"" stroke-width=""1.5"" fill=""none"" />
    <polygon points = ""1038.96,540 1043.945216768847,522.2776204026126 1033.974783231153,522.2776204026126"" stroke=""white"" stroke-width=""3"" fill = ""white"" />
    
    </svg>
    </div>
        ","","","","","","","","","","","","stimulus","","","","","","","","","","","","","","","","",""
"html-keyboard-response","33","213433","0.0-33.0","506.89999997615814","arrowup","","
    <div style="" display: block;  position: relative;"">
    
    <svg width=1920 height=1080>
    <circle cx=897 cy=540 r=12.405665718171171 stroke=""black"" stroke-width=""1"" fill=""black"" />
    <circle cx=1145.4752408052252 cy=540 r=17.722379597387388 stroke=""none"" stroke-width=""1.5"" fill=""none"" />
    <circle cx=1038.96 cy=646.5152408052252 r=17.722379597387388 stroke=""none"" stroke-width=""1.5"" fill=""none"" />
    <circle cx=932.4447591947749 cy=540 r=17.722379597387388 stroke=""none"" stroke-width=""1.5"" fill=""none"" />
    <circle cx=1038.96 cy=433.48475919477477 r=17.722379597387388 stroke=""none"" stroke-width=""1.5"" fill=""none"" />
    <polygon points = ""1038.96,540 1043.945216768847,522.2776204026126 1033.974783231153,522.2776204026126"" stroke=""none"" stroke-width=""3"" fill = ""none"" />
    
    </svg>
    </div>
        ","","","","","","","","","","","","get_response","true","8YKZhmKRXb04sSrZ","","","false","true","true","141.96","4","577.0840000000001","106.51524080522523","3","1","0","","",""
"html-keyboard-response","34","213938","0.0-34.0","null","null","","
    <div style="" display: block;  position: relative;"">
    
    <svg width=1920 height=1080>
    <circle cx=897 cy=540 r=12.405665718171171 stroke=""black"" stroke-width=""1"" fill=""black"" />
    <circle cx=1145.4752408052252 cy=540 r=17.722379597387388 stroke=""none"" stroke-width=""1.5"" fill=""none"" />
    <circle cx=1038.96 cy=646.5152408052252 r=17.722379597387388 stroke=""none"" stroke-width=""1.5"" fill=""none"" />
    <circle cx=932.4447591947749 cy=540 r=17.722379597387388 stroke=""none"" stroke-width=""1.5"" fill=""none"" />
    <circle cx=1038.96 cy=433.48475919477477 r=17.722379597387388 stroke=""none"" stroke-width=""1.5"" fill=""none"" />
    <polygon points = ""1038.96,540 1043.945216768847,522.2776204026126 1033.974783231153,522.2776204026126"" stroke=""none"" stroke-width=""3"" fill = ""none"" />
    
    </svg>
    </div>
        ","","","","","","","","","","","","","","","","","","","","","","","","","","","","",""
"html-keyboard-response","35","214092","0.0-35.0","null","null","","
    <div style="" display: block;  position: relative;"">
    <svg width=1920 height=1080>
    
    <circle cx=897 cy=540 r=12.405665718171171 stroke=""black"" stroke-width=""1"" fill=""black"" />
    <circle cx=755.04 cy=540 r=17.722379597387388 stroke=""black"" stroke-width=""1.5"" fill=""none"" />
    <circle cx=861.5552408052251 cy=540 r=17.722379597387388 stroke=""black"" stroke-width=""1.5"" fill=""none"" />
    <circle cx=755.04 cy=646.5152408052252 r=17.722379597387388 stroke=""black"" stroke-width=""1.5"" fill=""none"" />
    <circle cx=648.5247591947748 cy=540 r=17.722379597387388 stroke=""black"" stroke-width=""1.5"" fill=""none"" />
    <circle cx=755.04 cy=433.48475919477477 r=17.722379597387388 stroke=""black"" stroke-width=""1.5"" fill=""none"" />
    <polygon points = ""755.04,540 760.025216768847,522.2776204026126 750.0547832311529,522.2776204026126"" stroke=""white"" stroke-width=""3"" fill = ""white"" />
    
    </svg>
    </div>
        ","","","","","","","","","","","","stimulus","","","","","","","","","","","","","","","","",""
"html-keyboard-response","36","214680","0.0-36.0","584.5","arrowdown","","
    <div style="" display: block;  position: relative;"">
    
    <svg width=1920 height=1080>
    <circle cx=897 cy=540 r=12.405665718171171 stroke=""black"" stroke-width=""1"" fill=""black"" />
    <circle cx=861.5552408052251 cy=540 r=17.722379597387388 stroke=""none"" stroke-width=""1.5"" fill=""none"" />
    <circle cx=755.04 cy=646.5152408052252 r=17.722379597387388 stroke=""none"" stroke-width=""1.5"" fill=""none"" />
    <circle cx=648.5247591947748 cy=540 r=17.722379597387388 stroke=""none"" stroke-width=""1.5"" fill=""none"" />
    <circle cx=755.04 cy=433.48475919477477 r=17.722379597387388 stroke=""none"" stroke-width=""1.5"" fill=""none"" />
    <polygon points = ""755.04,540 760.025216768847,522.2776204026126 750.0547832311529,522.2776204026126"" stroke=""none"" stroke-width=""3"" fill = ""none"" />
    
    </svg>
    </div>
        ","","","","","","","","","","","","get_response","false","8YKZhmKRXb04sSrZ","","","true","true","true","141.96","4","577.0840000000001","106.51524080522523","3","1","0","","",""
"html-keyboard-response","37","215183","0.0-37.0","null","null","","
    <div style="" display: block;  position: relative;"">
    
    <svg width=1920 height=1080>
    <circle cx=897 cy=540 r=12.405665718171171 stroke=""black"" stroke-width=""1"" fill=""black"" />
    <circle cx=861.5552408052251 cy=540 r=17.722379597387388 stroke=""none"" stroke-width=""1.5"" fill=""none"" />
    <circle cx=755.04 cy=646.5152408052252 r=17.722379597387388 stroke=""none"" stroke-width=""1.5"" fill=""none"" />
    <circle cx=648.5247591947748 cy=540 r=17.722379597387388 stroke=""none"" stroke-width=""1.5"" fill=""none"" />
    <circle cx=755.04 cy=433.48475919477477 r=17.722379597387388 stroke=""none"" stroke-width=""1.5"" fill=""none"" />
    <polygon points = ""755.04,540 760.025216768847,522.2776204026126 750.0547832311529,522.2776204026126"" stroke=""none"" stroke-width=""3"" fill = ""none"" />
    
    </svg>
    </div>
        ","","","","","","","","","","","","","","","","","","","","","","","","","","","","",""
"html-keyboard-response","38","215337","0.0-38.0","null","null","","
    <div style="" display: block;  position: relative;"">
    <svg width=1920 height=1080>
    
    <circle cx=897 cy=540 r=12.405665718171171 stroke=""black"" stroke-width=""1"" fill=""black"" />
    <circle cx=1038.96 cy=540 r=17.722379597387388 stroke=""black"" stroke-width=""1.5"" fill=""none"" />
    <circle cx=1145.4752408052252 cy=540 r=17.722379597387388 stroke=""black"" stroke-width=""1.5"" fill=""none"" />
    <circle cx=1038.96 cy=646.5152408052252 r=17.722379597387388 stroke=""black"" stroke-width=""1.5"" fill=""none"" />
    <circle cx=932.4447591947749 cy=540 r=17.722379597387388 stroke=""black"" stroke-width=""1.5"" fill=""none"" />
    <circle cx=1038.96 cy=433.48475919477477 r=17.722379597387388 stroke=""black"" stroke-width=""1.5"" fill=""none"" />
    <polygon points = ""1038.96,540 1043.945216768847,522.2776204026126 1033.974783231153,522.2776204026126"" stroke=""white"" stroke-width=""3"" fill = ""white"" />
    
    </svg>
    </div>
        ","","","","","","","","","","","","stimulus","","","","","","","","","","","","","","","","",""
"html-keyboard-response","39","215624","0.0-39.0","284.0999999642372","arrowup","","
    <div style="" display: block;  position: relative;"">
    
    <svg width=1920 height=1080>
    <circle cx=897 cy=540 r=12.405665718171171 stroke=""black"" stroke-width=""1"" fill=""black"" />
    <circle cx=1145.4752408052252 cy=540 r=17.722379597387388 stroke=""none"" stroke-width=""1.5"" fill=""none"" />
    <circle cx=1038.96 cy=646.5152408052252 r=17.722379597387388 stroke=""none"" stroke-width=""1.5"" fill=""none"" />
    <circle cx=932.4447591947749 cy=540 r=17.722379597387388 stroke=""none"" stroke-width=""1.5"" fill=""none"" />
    <circle cx=1038.96 cy=433.48475919477477 r=17.722379597387388 stroke=""none"" stroke-width=""1.5"" fill=""none"" />
    <polygon points = ""1038.96,540 1043.945216768847,522.2776204026126 1033.974783231153,522.2776204026126"" stroke=""none"" stroke-width=""3"" fill = ""none"" />
    
    </svg>
    </div>
        ","","","","","","","","","","","","get_response","true","8YKZhmKRXb04sSrZ","","","false","true","true","141.96","4","577.0840000000001","106.51524080522523","3","1","0","","",""
"html-keyboard-response","40","216128","0.0-40.0","null","null","","
    <div style="" display: block;  position: relative;"">
    
    <svg width=1920 height=1080>
    <circle cx=897 cy=540 r=12.405665718171171 stroke=""black"" stroke-width=""1"" fill=""black"" />
    <circle cx=1145.4752408052252 cy=540 r=17.722379597387388 stroke=""none"" stroke-width=""1.5"" fill=""none"" />
    <circle cx=1038.96 cy=646.5152408052252 r=17.722379597387388 stroke=""none"" stroke-width=""1.5"" fill=""none"" />
    <circle cx=932.4447591947749 cy=540 r=17.722379597387388 stroke=""none"" stroke-width=""1.5"" fill=""none"" />
    <circle cx=1038.96 cy=433.48475919477477 r=17.722379597387388 stroke=""none"" stroke-width=""1.5"" fill=""none"" />
    <polygon points = ""1038.96,540 1043.945216768847,522.2776204026126 1033.974783231153,522.2776204026126"" stroke=""none"" stroke-width=""3"" fill = ""none"" />
    
    </svg>
    </div>
        ","","","","","","","","","","","","","","","","","","","","","","","","","","","","",""
"html-keyboard-response","41","216282","0.0-41.0","null","null","","
    <div style="" display: block;  position: relative;"">
    <svg width=1920 height=1080>
    
    <circle cx=897 cy=540 r=12.405665718171171 stroke=""black"" stroke-width=""1"" fill=""black"" />
    <circle cx=1038.96 cy=540 r=17.722379597387388 stroke=""black"" stroke-width=""1.5"" fill=""none"" />
    <circle cx=1145.4752408052252 cy=540 r=17.722379597387388 stroke=""black"" stroke-width=""1.5"" fill=""none"" />
    <circle cx=1038.96 cy=646.5152408052252 r=17.722379597387388 stroke=""black"" stroke-width=""1.5"" fill=""none"" />
    <circle cx=932.4447591947749 cy=540 r=17.722379597387388 stroke=""black"" stroke-width=""1.5"" fill=""none"" />
    <circle cx=1038.96 cy=433.48475919477477 r=17.722379597387388 stroke=""black"" stroke-width=""1.5"" fill=""none"" />
    <polygon points = ""1038.96,540 1043.945216768847,522.2776204026126 1033.974783231153,522.2776204026126"" stroke=""white"" stroke-width=""3"" fill = ""white"" />
    
    </svg>
    </div>
        ","","","","","","","","","","","","stimulus","","","","","","","","","","","","","","","","",""
"html-keyboard-response","42","216730","0.0-42.0","445.5","arrowup","","
    <div style="" display: block;  position: relative;"">
    
    <svg width=1920 height=1080>
    <circle cx=897 cy=540 r=12.405665718171171 stroke=""black"" stroke-width=""1"" fill=""black"" />
    <circle cx=1145.4752408052252 cy=540 r=17.722379597387388 stroke=""none"" stroke-width=""1.5"" fill=""none"" />
    <circle cx=1038.96 cy=646.5152408052252 r=17.722379597387388 stroke=""none"" stroke-width=""1.5"" fill=""none"" />
    <circle cx=932.4447591947749 cy=540 r=17.722379597387388 stroke=""none"" stroke-width=""1.5"" fill=""none"" />
    <circle cx=1038.96 cy=433.48475919477477 r=17.722379597387388 stroke=""none"" stroke-width=""1.5"" fill=""none"" />
    <polygon points = ""1038.96,540 1043.945216768847,522.2776204026126 1033.974783231153,522.2776204026126"" stroke=""none"" stroke-width=""3"" fill = ""none"" />
    
    </svg>
    </div>
        ","","","","","","","","","","","","get_response","true","8YKZhmKRXb04sSrZ","","","false","true","true","141.96","4","577.0840000000001","106.51524080522523","3","1","0","","",""
"html-keyboard-response","43","217231","0.0-43.0","null","null","","
    <div style="" display: block;  position: relative;"">
    
    <svg width=1920 height=1080>
    <circle cx=897 cy=540 r=12.405665718171171 stroke=""black"" stroke-width=""1"" fill=""black"" />
    <circle cx=1145.4752408052252 cy=540 r=17.722379597387388 stroke=""none"" stroke-width=""1.5"" fill=""none"" />
    <circle cx=1038.96 cy=646.5152408052252 r=17.722379597387388 stroke=""none"" stroke-width=""1.5"" fill=""none"" />
    <circle cx=932.4447591947749 cy=540 r=17.722379597387388 stroke=""none"" stroke-width=""1.5"" fill=""none"" />
    <circle cx=1038.96 cy=433.48475919477477 r=17.722379597387388 stroke=""none"" stroke-width=""1.5"" fill=""none"" />
    <polygon points = ""1038.96,540 1043.945216768847,522.2776204026126 1033.974783231153,522.2776204026126"" stroke=""none"" stroke-width=""3"" fill = ""none"" />
    
    </svg>
    </div>
        ","","","","","","","","","","","","","","","","","","","","","","","","","","","","",""
"html-keyboard-response","44","217385","0.0-44.0","null","null","","
    <div style="" display: block;  position: relative;"">
    <svg width=1920 height=1080>
    
    <circle cx=897 cy=540 r=12.405665718171171 stroke=""black"" stroke-width=""1"" fill=""black"" />
    <circle cx=755.04 cy=540 r=17.722379597387388 stroke=""black"" stroke-width=""1.5"" fill=""none"" />
    <circle cx=861.5552408052251 cy=540 r=17.722379597387388 stroke=""black"" stroke-width=""1.5"" fill=""none"" />
    <circle cx=755.04 cy=646.5152408052252 r=17.722379597387388 stroke=""black"" stroke-width=""1.5"" fill=""none"" />
    <circle cx=648.5247591947748 cy=540 r=17.722379597387388 stroke=""black"" stroke-width=""1.5"" fill=""none"" />
    <circle cx=755.04 cy=433.48475919477477 r=17.722379597387388 stroke=""black"" stroke-width=""1.5"" fill=""none"" />
    <polygon points = ""755.04,540 760.025216768847,522.2776204026126 750.0547832311529,522.2776204026126"" stroke=""white"" stroke-width=""3"" fill = ""white"" />
    
    </svg>
    </div>
        ","","","","","","","","","","","","stimulus","","","","","","","","","","","","","","","","",""
"html-keyboard-response","45","217897","0.0-45.0","508.69999998807907","arrowdown","","
    <div style="" display: block;  position: relative;"">
    
    <svg width=1920 height=1080>
    <circle cx=897 cy=540 r=12.405665718171171 stroke=""black"" stroke-width=""1"" fill=""black"" />
    <circle cx=861.5552408052251 cy=540 r=17.722379597387388 stroke=""none"" stroke-width=""1.5"" fill=""none"" />
    <circle cx=755.04 cy=646.5152408052252 r=17.722379597387388 stroke=""none"" stroke-width=""1.5"" fill=""none"" />
    <circle cx=648.5247591947748 cy=540 r=17.722379597387388 stroke=""none"" stroke-width=""1.5"" fill=""none"" />
    <circle cx=755.04 cy=433.48475919477477 r=17.722379597387388 stroke=""none"" stroke-width=""1.5"" fill=""none"" />
    <polygon points = ""755.04,540 760.025216768847,522.2776204026126 750.0547832311529,522.2776204026126"" stroke=""none"" stroke-width=""3"" fill = ""none"" />
    
    </svg>
    </div>
        ","","","","","","","","","","","","get_response","false","8YKZhmKRXb04sSrZ","","","true","true","true","141.96","4","577.0840000000001","106.51524080522523","3","1","0","","",""
"html-keyboard-response","46","218400","0.0-46.0","null","null","","
    <div style="" display: block;  position: relative;"">
    
    <svg width=1920 height=1080>
    <circle cx=897 cy=540 r=12.405665718171171 stroke=""black"" stroke-width=""1"" fill=""black"" />
    <circle cx=861.5552408052251 cy=540 r=17.722379597387388 stroke=""none"" stroke-width=""1.5"" fill=""none"" />
    <circle cx=755.04 cy=646.5152408052252 r=17.722379597387388 stroke=""none"" stroke-width=""1.5"" fill=""none"" />
    <circle cx=648.5247591947748 cy=540 r=17.722379597387388 stroke=""none"" stroke-width=""1.5"" fill=""none"" />
    <circle cx=755.04 cy=433.48475919477477 r=17.722379597387388 stroke=""none"" stroke-width=""1.5"" fill=""none"" />
    <polygon points = ""755.04,540 760.025216768847,522.2776204026126 750.0547832311529,522.2776204026126"" stroke=""none"" stroke-width=""3"" fill = ""none"" />
    
    </svg>
    </div>
        ","","","","","","","","","","","","","","","","","","","","","","","","","","","","",""
"html-keyboard-response","47","218554","0.0-47.0","null","null","","
    <div style="" display: block;  position: relative;"">
    <svg width=1920 height=1080>
    
    <circle cx=897 cy=540 r=12.405665718171171 stroke=""black"" stroke-width=""1"" fill=""black"" />
    <circle cx=755.04 cy=540 r=17.722379597387388 stroke=""black"" stroke-width=""1.5"" fill=""none"" />
    <circle cx=861.5552408052251 cy=540 r=17.722379597387388 stroke=""black"" stroke-width=""1.5"" fill=""none"" />
    <circle cx=755.04 cy=646.5152408052252 r=17.722379597387388 stroke=""black"" stroke-width=""1.5"" fill=""none"" />
    <circle cx=648.5247591947748 cy=540 r=17.722379597387388 stroke=""black"" stroke-width=""1.5"" fill=""none"" />
    <circle cx=755.04 cy=433.48475919477477 r=17.722379597387388 stroke=""black"" stroke-width=""1.5"" fill=""none"" />
    <polygon points = ""755.04,540 760.025216768847,522.2776204026126 750.0547832311529,522.2776204026126"" stroke=""white"" stroke-width=""3"" fill = ""white"" />
    
    </svg>
    </div>
        ","","","","","","","","","","","","stimulus","","","","","","","","","","","","","","","","",""
"html-keyboard-response","48","218848","0.0-48.0","289","arrowdown","","
    <div style="" display: block;  position: relative;"">
    
    <svg width=1920 height=1080>
    <circle cx=897 cy=540 r=12.405665718171171 stroke=""black"" stroke-width=""1"" fill=""black"" />
    <circle cx=861.5552408052251 cy=540 r=17.722379597387388 stroke=""none"" stroke-width=""1.5"" fill=""none"" />
    <circle cx=755.04 cy=646.5152408052252 r=17.722379597387388 stroke=""none"" stroke-width=""1.5"" fill=""none"" />
    <circle cx=648.5247591947748 cy=540 r=17.722379597387388 stroke=""none"" stroke-width=""1.5"" fill=""none"" />
    <circle cx=755.04 cy=433.48475919477477 r=17.722379597387388 stroke=""none"" stroke-width=""1.5"" fill=""none"" />
    <polygon points = ""755.04,540 760.025216768847,522.2776204026126 750.0547832311529,522.2776204026126"" stroke=""none"" stroke-width=""3"" fill = ""none"" />
    
    </svg>
    </div>
        ","","","","","","","","","","","","get_response","false","8YKZhmKRXb04sSrZ","","","true","true","true","141.96","4","577.0840000000001","106.51524080522523","3","1","0","","",""
"html-keyboard-response","49","219351","0.0-49.0","null","null","","
    <div style="" display: block;  position: relative;"">
    
    <svg width=1920 height=1080>
    <circle cx=897 cy=540 r=12.405665718171171 stroke=""black"" stroke-width=""1"" fill=""black"" />
    <circle cx=861.5552408052251 cy=540 r=17.722379597387388 stroke=""none"" stroke-width=""1.5"" fill=""none"" />
    <circle cx=755.04 cy=646.5152408052252 r=17.722379597387388 stroke=""none"" stroke-width=""1.5"" fill=""none"" />
    <circle cx=648.5247591947748 cy=540 r=17.722379597387388 stroke=""none"" stroke-width=""1.5"" fill=""none"" />
    <circle cx=755.04 cy=433.48475919477477 r=17.722379597387388 stroke=""none"" stroke-width=""1.5"" fill=""none"" />
    <polygon points = ""755.04,540 760.025216768847,522.2776204026126 750.0547832311529,522.2776204026126"" stroke=""none"" stroke-width=""3"" fill = ""none"" />
    
    </svg>
    </div>
        ","","","","","","","","","","","","","","","","","","","","","","","","","","","","",""
"html-keyboard-response","50","219505","0.0-50.0","null","null","","
    <div style="" display: block;  position: relative;"">
    <svg width=1920 height=1080>
    
    <circle cx=897 cy=540 r=12.405665718171171 stroke=""black"" stroke-width=""1"" fill=""black"" />
    <circle cx=1038.96 cy=540 r=17.722379597387388 stroke=""black"" stroke-width=""1.5"" fill=""none"" />
    <circle cx=1145.4752408052252 cy=540 r=17.722379597387388 stroke=""black"" stroke-width=""1.5"" fill=""none"" />
    <circle cx=1038.96 cy=646.5152408052252 r=17.722379597387388 stroke=""black"" stroke-width=""1.5"" fill=""none"" />
    <circle cx=932.4447591947749 cy=540 r=17.722379597387388 stroke=""black"" stroke-width=""1.5"" fill=""none"" />
    <circle cx=1038.96 cy=433.48475919477477 r=17.722379597387388 stroke=""black"" stroke-width=""1.5"" fill=""none"" />
    <polygon points = ""1038.96,540 1043.945216768847,522.2776204026126 1033.974783231153,522.2776204026126"" stroke=""white"" stroke-width=""3"" fill = ""white"" />
    
    </svg>
    </div>
        ","","","","","","","","","","","","stimulus","","","","","","","","","","","","","","","","",""
"html-keyboard-response","51","219712","0.0-51.0","203.5999999642372","arrowup","","
    <div style="" display: block;  position: relative;"">
    
    <svg width=1920 height=1080>
    <circle cx=897 cy=540 r=12.405665718171171 stroke=""black"" stroke-width=""1"" fill=""black"" />
    <circle cx=1145.4752408052252 cy=540 r=17.722379597387388 stroke=""none"" stroke-width=""1.5"" fill=""none"" />
    <circle cx=1038.96 cy=646.5152408052252 r=17.722379597387388 stroke=""none"" stroke-width=""1.5"" fill=""none"" />
    <circle cx=932.4447591947749 cy=540 r=17.722379597387388 stroke=""none"" stroke-width=""1.5"" fill=""none"" />
    <circle cx=1038.96 cy=433.48475919477477 r=17.722379597387388 stroke=""none"" stroke-width=""1.5"" fill=""none"" />
    <polygon points = ""1038.96,540 1043.945216768847,522.2776204026126 1033.974783231153,522.2776204026126"" stroke=""none"" stroke-width=""3"" fill = ""none"" />
    
    </svg>
    </div>
        ","","","","","","","","","","","","get_response","true","8YKZhmKRXb04sSrZ","","","false","true","true","141.96","4","577.0840000000001","106.51524080522523","3","1","0","","",""
"html-keyboard-response","52","220216","0.0-52.0","null","null","","
    <div style="" display: block;  position: relative;"">
    
    <svg width=1920 height=1080>
    <circle cx=897 cy=540 r=12.405665718171171 stroke=""black"" stroke-width=""1"" fill=""black"" />
    <circle cx=1145.4752408052252 cy=540 r=17.722379597387388 stroke=""none"" stroke-width=""1.5"" fill=""none"" />
    <circle cx=1038.96 cy=646.5152408052252 r=17.722379597387388 stroke=""none"" stroke-width=""1.5"" fill=""none"" />
    <circle cx=932.4447591947749 cy=540 r=17.722379597387388 stroke=""none"" stroke-width=""1.5"" fill=""none"" />
    <circle cx=1038.96 cy=433.48475919477477 r=17.722379597387388 stroke=""none"" stroke-width=""1.5"" fill=""none"" />
    <polygon points = ""1038.96,540 1043.945216768847,522.2776204026126 1033.974783231153,522.2776204026126"" stroke=""none"" stroke-width=""3"" fill = ""none"" />
    
    </svg>
    </div>
        ","","","","","","","","","","","","","","","","","","","","","","","","","","","","",""
"html-keyboard-response","53","220370","0.0-53.0","null","null","","
    <div style="" display: block;  position: relative;"">
    <svg width=1920 height=1080>
    
    <circle cx=897 cy=540 r=12.405665718171171 stroke=""black"" stroke-width=""1"" fill=""black"" />
    <circle cx=755.04 cy=540 r=17.722379597387388 stroke=""black"" stroke-width=""1.5"" fill=""none"" />
    <circle cx=861.5552408052251 cy=540 r=17.722379597387388 stroke=""black"" stroke-width=""1.5"" fill=""none"" />
    <circle cx=755.04 cy=646.5152408052252 r=17.722379597387388 stroke=""black"" stroke-width=""1.5"" fill=""none"" />
    <circle cx=648.5247591947748 cy=540 r=17.722379597387388 stroke=""black"" stroke-width=""1.5"" fill=""none"" />
    <circle cx=755.04 cy=433.48475919477477 r=17.722379597387388 stroke=""black"" stroke-width=""1.5"" fill=""none"" />
    <polygon points = ""755.04,540 760.025216768847,522.2776204026126 750.0547832311529,522.2776204026126"" stroke=""white"" stroke-width=""3"" fill = ""white"" />
    
    </svg>
    </div>
        ","","","","","","","","","","","","stimulus","","","","","","","","","","","","","","","","",""
"html-keyboard-response","54","220566","0.0-54.0","192.80000001192093","arrowdown","","
    <div style="" display: block;  position: relative;"">
    
    <svg width=1920 height=1080>
    <circle cx=897 cy=540 r=12.405665718171171 stroke=""black"" stroke-width=""1"" fill=""black"" />
    <circle cx=861.5552408052251 cy=540 r=17.722379597387388 stroke=""none"" stroke-width=""1.5"" fill=""none"" />
    <circle cx=755.04 cy=646.5152408052252 r=17.722379597387388 stroke=""none"" stroke-width=""1.5"" fill=""none"" />
    <circle cx=648.5247591947748 cy=540 r=17.722379597387388 stroke=""none"" stroke-width=""1.5"" fill=""none"" />
    <circle cx=755.04 cy=433.48475919477477 r=17.722379597387388 stroke=""none"" stroke-width=""1.5"" fill=""none"" />
    <polygon points = ""755.04,540 760.025216768847,522.2776204026126 750.0547832311529,522.2776204026126"" stroke=""none"" stroke-width=""3"" fill = ""none"" />
    
    </svg>
    </div>
        ","","","","","","","","","","","","get_response","false","8YKZhmKRXb04sSrZ","","","true","true","true","141.96","4","577.0840000000001","106.51524080522523","3","1","0","","",""
"html-keyboard-response","55","221071","0.0-55.0","null","null","","
    <div style="" display: block;  position: relative;"">
    
    <svg width=1920 height=1080>
    <circle cx=897 cy=540 r=12.405665718171171 stroke=""black"" stroke-width=""1"" fill=""black"" />
    <circle cx=861.5552408052251 cy=540 r=17.722379597387388 stroke=""none"" stroke-width=""1.5"" fill=""none"" />
    <circle cx=755.04 cy=646.5152408052252 r=17.722379597387388 stroke=""none"" stroke-width=""1.5"" fill=""none"" />
    <circle cx=648.5247591947748 cy=540 r=17.722379597387388 stroke=""none"" stroke-width=""1.5"" fill=""none"" />
    <circle cx=755.04 cy=433.48475919477477 r=17.722379597387388 stroke=""none"" stroke-width=""1.5"" fill=""none"" />
    <polygon points = ""755.04,540 760.025216768847,522.2776204026126 750.0547832311529,522.2776204026126"" stroke=""none"" stroke-width=""3"" fill = ""none"" />
    
    </svg>
    </div>
        ","","","","","","","","","","","","","","","","","","","","","","","","","","","","",""
"html-keyboard-response","56","221225","0.0-56.0","null","null","","
    <div style="" display: block;  position: relative;"">
    <svg width=1920 height=1080>
    
    <circle cx=897 cy=540 r=12.405665718171171 stroke=""black"" stroke-width=""1"" fill=""black"" />
    <circle cx=755.04 cy=540 r=17.722379597387388 stroke=""black"" stroke-width=""1.5"" fill=""none"" />
    <circle cx=861.5552408052251 cy=540 r=17.722379597387388 stroke=""black"" stroke-width=""1.5"" fill=""none"" />
    <circle cx=755.04 cy=646.5152408052252 r=17.722379597387388 stroke=""black"" stroke-width=""1.5"" fill=""none"" />
    <circle cx=648.5247591947748 cy=540 r=17.722379597387388 stroke=""black"" stroke-width=""1.5"" fill=""none"" />
    <circle cx=755.04 cy=433.48475919477477 r=17.722379597387388 stroke=""black"" stroke-width=""1.5"" fill=""none"" />
    <polygon points = ""755.04,540 760.025216768847,557.7223795973874 750.0547832311529,557.7223795973874"" stroke=""white"" stroke-width=""3"" fill = ""white"" />
    
    </svg>
    </div>
        ","","","","","","","","","","","","stimulus","","","","","","","","","","","","","","","","",""
"html-keyboard-response","57","221529","0.0-57.0","300.39999997615814","arrowdown","","
    <div style="" display: block;  position: relative;"">
    
    <svg width=1920 height=1080>
    <circle cx=897 cy=540 r=12.405665718171171 stroke=""black"" stroke-width=""1"" fill=""black"" />
    <circle cx=861.5552408052251 cy=540 r=17.722379597387388 stroke=""none"" stroke-width=""1.5"" fill=""none"" />
    <circle cx=755.04 cy=646.5152408052252 r=17.722379597387388 stroke=""none"" stroke-width=""1.5"" fill=""none"" />
    <circle cx=648.5247591947748 cy=540 r=17.722379597387388 stroke=""none"" stroke-width=""1.5"" fill=""none"" />
    <circle cx=755.04 cy=433.48475919477477 r=17.722379597387388 stroke=""none"" stroke-width=""1.5"" fill=""none"" />
    <polygon points = ""755.04,540 760.025216768847,557.7223795973874 750.0547832311529,557.7223795973874"" stroke=""none"" stroke-width=""3"" fill = ""none"" />
    
    </svg>
    </div>
        ","","","","","","","","","","","","get_response","true","8YKZhmKRXb04sSrZ","","","true","false","true","141.96","4","577.0840000000001","106.51524080522523","3","1","0","","",""
"html-keyboard-response","58","222033","0.0-58.0","null","null","","
    <div style="" display: block;  position: relative;"">
    
    <svg width=1920 height=1080>
    <circle cx=897 cy=540 r=12.405665718171171 stroke=""black"" stroke-width=""1"" fill=""black"" />
    <circle cx=861.5552408052251 cy=540 r=17.722379597387388 stroke=""none"" stroke-width=""1.5"" fill=""none"" />
    <circle cx=755.04 cy=646.5152408052252 r=17.722379597387388 stroke=""none"" stroke-width=""1.5"" fill=""none"" />
    <circle cx=648.5247591947748 cy=540 r=17.722379597387388 stroke=""none"" stroke-width=""1.5"" fill=""none"" />
    <circle cx=755.04 cy=433.48475919477477 r=17.722379597387388 stroke=""none"" stroke-width=""1.5"" fill=""none"" />
    <polygon points = ""755.04,540 760.025216768847,557.7223795973874 750.0547832311529,557.7223795973874"" stroke=""none"" stroke-width=""3"" fill = ""none"" />
    
    </svg>
    </div>
        ","","","","","","","","","","","","","","","","","","","","","","","","","","","","",""
"html-keyboard-response","59","222187","0.0-59.0","null","null","","
    <div style="" display: block;  position: relative;"">
    <svg width=1920 height=1080>
    
    <circle cx=897 cy=540 r=12.405665718171171 stroke=""black"" stroke-width=""1"" fill=""black"" />
    <circle cx=755.04 cy=540 r=17.722379597387388 stroke=""black"" stroke-width=""1.5"" fill=""none"" />
    <circle cx=861.5552408052251 cy=540 r=17.722379597387388 stroke=""black"" stroke-width=""1.5"" fill=""none"" />
    <circle cx=755.04 cy=646.5152408052252 r=17.722379597387388 stroke=""black"" stroke-width=""1.5"" fill=""none"" />
    <circle cx=648.5247591947748 cy=540 r=17.722379597387388 stroke=""black"" stroke-width=""1.5"" fill=""none"" />
    <circle cx=755.04 cy=433.48475919477477 r=17.722379597387388 stroke=""black"" stroke-width=""1.5"" fill=""none"" />
    <polygon points = ""755.04,540 760.025216768847,522.2776204026126 750.0547832311529,522.2776204026126"" stroke=""white"" stroke-width=""3"" fill = ""white"" />
    
    </svg>
    </div>
        ","","","","","","","","","","","","stimulus","","","","","","","","","","","","","","","","",""
"html-keyboard-response","60","222433","0.0-60.0","242.5","arrowdown","","
    <div style="" display: block;  position: relative;"">
    
    <svg width=1920 height=1080>
    <circle cx=897 cy=540 r=12.405665718171171 stroke=""black"" stroke-width=""1"" fill=""black"" />
    <circle cx=861.5552408052251 cy=540 r=17.722379597387388 stroke=""none"" stroke-width=""1.5"" fill=""none"" />
    <circle cx=755.04 cy=646.5152408052252 r=17.722379597387388 stroke=""none"" stroke-width=""1.5"" fill=""none"" />
    <circle cx=648.5247591947748 cy=540 r=17.722379597387388 stroke=""none"" stroke-width=""1.5"" fill=""none"" />
    <circle cx=755.04 cy=433.48475919477477 r=17.722379597387388 stroke=""none"" stroke-width=""1.5"" fill=""none"" />
    <polygon points = ""755.04,540 760.025216768847,522.2776204026126 750.0547832311529,522.2776204026126"" stroke=""none"" stroke-width=""3"" fill = ""none"" />
    
    </svg>
    </div>
        ","","","","","","","","","","","","get_response","false","8YKZhmKRXb04sSrZ","","","true","true","true","141.96","4","577.0840000000001","106.51524080522523","3","1","0","","",""
"html-keyboard-response","61","222937","0.0-61.0","null","null","","
    <div style="" display: block;  position: relative;"">
    
    <svg width=1920 height=1080>
    <circle cx=897 cy=540 r=12.405665718171171 stroke=""black"" stroke-width=""1"" fill=""black"" />
    <circle cx=861.5552408052251 cy=540 r=17.722379597387388 stroke=""none"" stroke-width=""1.5"" fill=""none"" />
    <circle cx=755.04 cy=646.5152408052252 r=17.722379597387388 stroke=""none"" stroke-width=""1.5"" fill=""none"" />
    <circle cx=648.5247591947748 cy=540 r=17.722379597387388 stroke=""none"" stroke-width=""1.5"" fill=""none"" />
    <circle cx=755.04 cy=433.48475919477477 r=17.722379597387388 stroke=""none"" stroke-width=""1.5"" fill=""none"" />
    <polygon points = ""755.04,540 760.025216768847,522.2776204026126 750.0547832311529,522.2776204026126"" stroke=""none"" stroke-width=""3"" fill = ""none"" />
    
    </svg>
    </div>
        ","","","","","","","","","","","","","","","","","","","","","","","","","","","","",""
"html-keyboard-response","62","223090","0.0-62.0","null","null","","
    <div style="" display: block;  position: relative;"">
    <svg width=1920 height=1080>
    
    <circle cx=897 cy=540 r=12.405665718171171 stroke=""black"" stroke-width=""1"" fill=""black"" />
    <circle cx=1038.96 cy=540 r=17.722379597387388 stroke=""black"" stroke-width=""1.5"" fill=""none"" />
    <circle cx=1145.4752408052252 cy=540 r=17.722379597387388 stroke=""black"" stroke-width=""1.5"" fill=""none"" />
    <circle cx=1038.96 cy=646.5152408052252 r=17.722379597387388 stroke=""black"" stroke-width=""1.5"" fill=""none"" />
    <circle cx=932.4447591947749 cy=540 r=17.722379597387388 stroke=""black"" stroke-width=""1.5"" fill=""none"" />
    <circle cx=1038.96 cy=433.48475919477477 r=17.722379597387388 stroke=""black"" stroke-width=""1.5"" fill=""none"" />
    <polygon points = ""1038.96,540 1043.945216768847,522.2776204026126 1033.974783231153,522.2776204026126"" stroke=""white"" stroke-width=""3"" fill = ""white"" />
    
    </svg>
    </div>
        ","","","","","","","","","","","","stimulus","","","","","","","","","","","","","","","","",""
"html-keyboard-response","63","223241","0.0-63.0","147.30000001192093","arrowup","","
    <div style="" display: block;  position: relative;"">
    
    <svg width=1920 height=1080>
    <circle cx=897 cy=540 r=12.405665718171171 stroke=""black"" stroke-width=""1"" fill=""black"" />
    <circle cx=1145.4752408052252 cy=540 r=17.722379597387388 stroke=""none"" stroke-width=""1.5"" fill=""none"" />
    <circle cx=1038.96 cy=646.5152408052252 r=17.722379597387388 stroke=""none"" stroke-width=""1.5"" fill=""none"" />
    <circle cx=932.4447591947749 cy=540 r=17.722379597387388 stroke=""none"" stroke-width=""1.5"" fill=""none"" />
    <circle cx=1038.96 cy=433.48475919477477 r=17.722379597387388 stroke=""none"" stroke-width=""1.5"" fill=""none"" />
    <polygon points = ""1038.96,540 1043.945216768847,522.2776204026126 1033.974783231153,522.2776204026126"" stroke=""none"" stroke-width=""3"" fill = ""none"" />
    
    </svg>
    </div>
        ","","","","","","","","","","","","get_response","true","8YKZhmKRXb04sSrZ","","","false","true","true","141.96","4","577.0840000000001","106.51524080522523","3","1","0","","",""
"html-keyboard-response","64","223745","0.0-64.0","null","null","","
    <div style="" display: block;  position: relative;"">
    
    <svg width=1920 height=1080>
    <circle cx=897 cy=540 r=12.405665718171171 stroke=""black"" stroke-width=""1"" fill=""black"" />
    <circle cx=1145.4752408052252 cy=540 r=17.722379597387388 stroke=""none"" stroke-width=""1.5"" fill=""none"" />
    <circle cx=1038.96 cy=646.5152408052252 r=17.722379597387388 stroke=""none"" stroke-width=""1.5"" fill=""none"" />
    <circle cx=932.4447591947749 cy=540 r=17.722379597387388 stroke=""none"" stroke-width=""1.5"" fill=""none"" />
    <circle cx=1038.96 cy=433.48475919477477 r=17.722379597387388 stroke=""none"" stroke-width=""1.5"" fill=""none"" />
    <polygon points = ""1038.96,540 1043.945216768847,522.2776204026126 1033.974783231153,522.2776204026126"" stroke=""none"" stroke-width=""3"" fill = ""none"" />
    
    </svg>
    </div>
        ","","","","","","","","","","","","","","","","","","","","","","","","","","","","",""
"html-keyboard-response","65","223898","0.0-65.0","null","null","","
    <div style="" display: block;  position: relative;"">
    <svg width=1920 height=1080>
    
    <circle cx=897 cy=540 r=12.405665718171171 stroke=""black"" stroke-width=""1"" fill=""black"" />
    <circle cx=755.04 cy=540 r=17.722379597387388 stroke=""black"" stroke-width=""1.5"" fill=""none"" />
    <circle cx=861.5552408052251 cy=540 r=17.722379597387388 stroke=""black"" stroke-width=""1.5"" fill=""none"" />
    <circle cx=755.04 cy=646.5152408052252 r=17.722379597387388 stroke=""black"" stroke-width=""1.5"" fill=""none"" />
    <circle cx=648.5247591947748 cy=540 r=17.722379597387388 stroke=""black"" stroke-width=""1.5"" fill=""none"" />
    <circle cx=755.04 cy=433.48475919477477 r=17.722379597387388 stroke=""black"" stroke-width=""1.5"" fill=""none"" />
    <polygon points = ""755.04,540 760.025216768847,557.7223795973874 750.0547832311529,557.7223795973874"" stroke=""white"" stroke-width=""3"" fill = ""white"" />
    
    </svg>
    </div>
        ","","","","","","","","","","","","stimulus","","","","","","","","","","","","","","","","",""
"html-keyboard-response","66","224106","0.0-66.0","204.70000004768372","arrowdown","","
    <div style="" display: block;  position: relative;"">
    
    <svg width=1920 height=1080>
    <circle cx=897 cy=540 r=12.405665718171171 stroke=""black"" stroke-width=""1"" fill=""black"" />
    <circle cx=861.5552408052251 cy=540 r=17.722379597387388 stroke=""none"" stroke-width=""1.5"" fill=""none"" />
    <circle cx=755.04 cy=646.5152408052252 r=17.722379597387388 stroke=""none"" stroke-width=""1.5"" fill=""none"" />
    <circle cx=648.5247591947748 cy=540 r=17.722379597387388 stroke=""none"" stroke-width=""1.5"" fill=""none"" />
    <circle cx=755.04 cy=433.48475919477477 r=17.722379597387388 stroke=""none"" stroke-width=""1.5"" fill=""none"" />
    <polygon points = ""755.04,540 760.025216768847,557.7223795973874 750.0547832311529,557.7223795973874"" stroke=""none"" stroke-width=""3"" fill = ""none"" />
    
    </svg>
    </div>
        ","","","","","","","","","","","","get_response","true","8YKZhmKRXb04sSrZ","","","true","false","true","141.96","4","577.0840000000001","106.51524080522523","3","1","0","","",""
"html-keyboard-response","67","224610","0.0-67.0","null","null","","
    <div style="" display: block;  position: relative;"">
    
    <svg width=1920 height=1080>
    <circle cx=897 cy=540 r=12.405665718171171 stroke=""black"" stroke-width=""1"" fill=""black"" />
    <circle cx=861.5552408052251 cy=540 r=17.722379597387388 stroke=""none"" stroke-width=""1.5"" fill=""none"" />
    <circle cx=755.04 cy=646.5152408052252 r=17.722379597387388 stroke=""none"" stroke-width=""1.5"" fill=""none"" />
    <circle cx=648.5247591947748 cy=540 r=17.722379597387388 stroke=""none"" stroke-width=""1.5"" fill=""none"" />
    <circle cx=755.04 cy=433.48475919477477 r=17.722379597387388 stroke=""none"" stroke-width=""1.5"" fill=""none"" />
    <polygon points = ""755.04,540 760.025216768847,557.7223795973874 750.0547832311529,557.7223795973874"" stroke=""none"" stroke-width=""3"" fill = ""none"" />
    
    </svg>
    </div>
        ","","","","","","","","","","","","","","","","","","","","","","","","","","","","",""
"html-keyboard-response","68","224764","0.0-68.0","null","null","","
    <div style="" display: block;  position: relative;"">
    <svg width=1920 height=1080>
    
    <circle cx=897 cy=540 r=12.405665718171171 stroke=""black"" stroke-width=""1"" fill=""black"" />
    <circle cx=755.04 cy=540 r=17.722379597387388 stroke=""black"" stroke-width=""1.5"" fill=""none"" />
    <circle cx=861.5552408052251 cy=540 r=17.722379597387388 stroke=""black"" stroke-width=""1.5"" fill=""none"" />
    <circle cx=755.04 cy=646.5152408052252 r=17.722379597387388 stroke=""black"" stroke-width=""1.5"" fill=""none"" />
    <circle cx=648.5247591947748 cy=540 r=17.722379597387388 stroke=""black"" stroke-width=""1.5"" fill=""none"" />
    <circle cx=755.04 cy=433.48475919477477 r=17.722379597387388 stroke=""black"" stroke-width=""1.5"" fill=""none"" />
    <polygon points = ""755.04,540 760.025216768847,557.7223795973874 750.0547832311529,557.7223795973874"" stroke=""white"" stroke-width=""3"" fill = ""white"" />
    
    </svg>
    </div>
        ","","","","","","","","","","","","stimulus","","","","","","","","","","","","","","","","",""
"html-keyboard-response","69","224993","0.0-69.0","225.30000001192093","arrowdown","","
    <div style="" display: block;  position: relative;"">
    
    <svg width=1920 height=1080>
    <circle cx=897 cy=540 r=12.405665718171171 stroke=""black"" stroke-width=""1"" fill=""black"" />
    <circle cx=861.5552408052251 cy=540 r=17.722379597387388 stroke=""none"" stroke-width=""1.5"" fill=""none"" />
    <circle cx=755.04 cy=646.5152408052252 r=17.722379597387388 stroke=""none"" stroke-width=""1.5"" fill=""none"" />
    <circle cx=648.5247591947748 cy=540 r=17.722379597387388 stroke=""none"" stroke-width=""1.5"" fill=""none"" />
    <circle cx=755.04 cy=433.48475919477477 r=17.722379597387388 stroke=""none"" stroke-width=""1.5"" fill=""none"" />
    <polygon points = ""755.04,540 760.025216768847,557.7223795973874 750.0547832311529,557.7223795973874"" stroke=""none"" stroke-width=""3"" fill = ""none"" />
    
    </svg>
    </div>
        ","","","","","","","","","","","","get_response","true","8YKZhmKRXb04sSrZ","","","true","false","true","141.96","4","577.0840000000001","106.51524080522523","3","1","0","","",""
"html-keyboard-response","70","225497","0.0-70.0","null","null","","
    <div style="" display: block;  position: relative;"">
    
    <svg width=1920 height=1080>
    <circle cx=897 cy=540 r=12.405665718171171 stroke=""black"" stroke-width=""1"" fill=""black"" />
    <circle cx=861.5552408052251 cy=540 r=17.722379597387388 stroke=""none"" stroke-width=""1.5"" fill=""none"" />
    <circle cx=755.04 cy=646.5152408052252 r=17.722379597387388 stroke=""none"" stroke-width=""1.5"" fill=""none"" />
    <circle cx=648.5247591947748 cy=540 r=17.722379597387388 stroke=""none"" stroke-width=""1.5"" fill=""none"" />
    <circle cx=755.04 cy=433.48475919477477 r=17.722379597387388 stroke=""none"" stroke-width=""1.5"" fill=""none"" />
    <polygon points = ""755.04,540 760.025216768847,557.7223795973874 750.0547832311529,557.7223795973874"" stroke=""none"" stroke-width=""3"" fill = ""none"" />
    
    </svg>
    </div>
        ","","","","","","","","","","","","","","","","","","","","","","","","","","","","",""
"html-keyboard-response","71","225651","0.0-71.0","null","null","","
    <div style="" display: block;  position: relative;"">
    <svg width=1920 height=1080>
    
    <circle cx=897 cy=540 r=12.405665718171171 stroke=""black"" stroke-width=""1"" fill=""black"" />
    <circle cx=755.04 cy=540 r=17.722379597387388 stroke=""black"" stroke-width=""1.5"" fill=""none"" />
    <circle cx=851.8720370956593 cy=540 r=17.722379597387388 stroke=""black"" stroke-width=""1.5"" fill=""none"" />
    <circle cx=755.04 cy=636.8320370956593 r=17.722379597387388 stroke=""black"" stroke-width=""1.5"" fill=""none"" />
    <circle cx=658.2079629043407 cy=540 r=17.722379597387388 stroke=""black"" stroke-width=""1.5"" fill=""none"" />
    <circle cx=755.04 cy=443.1679629043407 r=17.722379597387388 stroke=""black"" stroke-width=""1.5"" fill=""none"" />
    <polygon points = ""755.04,540 760.025216768847,557.7223795973874 750.0547832311529,557.7223795973874"" stroke=""white"" stroke-width=""3"" fill = ""white"" />
    
    </svg>
    </div>
        ","","","","","","","","","","","","stimulus","","","","","","","","","","","","","","","","",""
"html-keyboard-response","72","225872","0.0-72.0","217.80000001192093","arrowdown","","
    <div style="" display: block;  position: relative;"">
    
    <svg width=1920 height=1080>
    <circle cx=897 cy=540 r=12.405665718171171 stroke=""black"" stroke-width=""1"" fill=""black"" />
    <circle cx=851.8720370956593 cy=540 r=17.722379597387388 stroke=""none"" stroke-width=""1.5"" fill=""none"" />
    <circle cx=755.04 cy=636.8320370956593 r=17.722379597387388 stroke=""none"" stroke-width=""1.5"" fill=""none"" />
    <circle cx=658.2079629043407 cy=540 r=17.722379597387388 stroke=""none"" stroke-width=""1.5"" fill=""none"" />
    <circle cx=755.04 cy=443.1679629043407 r=17.722379597387388 stroke=""none"" stroke-width=""1.5"" fill=""none"" />
    <polygon points = ""755.04,540 760.025216768847,557.7223795973874 750.0547832311529,557.7223795973874"" stroke=""none"" stroke-width=""3"" fill = ""none"" />
    
    </svg>
    </div>
        ","","","","","","","","","","","","get_response","true","8YKZhmKRXb04sSrZ","","","true","false","true","141.96","4","577.0840000000001","96.83203709565929","2.73","1","0","","",""
"html-keyboard-response","73","226376","0.0-73.0","null","null","","
    <div style="" display: block;  position: relative;"">
    
    <svg width=1920 height=1080>
    <circle cx=897 cy=540 r=12.405665718171171 stroke=""black"" stroke-width=""1"" fill=""black"" />
    <circle cx=851.8720370956593 cy=540 r=17.722379597387388 stroke=""none"" stroke-width=""1.5"" fill=""none"" />
    <circle cx=755.04 cy=636.8320370956593 r=17.722379597387388 stroke=""none"" stroke-width=""1.5"" fill=""none"" />
    <circle cx=658.2079629043407 cy=540 r=17.722379597387388 stroke=""none"" stroke-width=""1.5"" fill=""none"" />
    <circle cx=755.04 cy=443.1679629043407 r=17.722379597387388 stroke=""none"" stroke-width=""1.5"" fill=""none"" />
    <polygon points = ""755.04,540 760.025216768847,557.7223795973874 750.0547832311529,557.7223795973874"" stroke=""none"" stroke-width=""3"" fill = ""none"" />
    
    </svg>
    </div>
        ","","","","","","","","","","","","","","","","","","","","","","","","","","","","",""
"html-keyboard-response","74","226531","0.0-74.0","null","null","","
    <div style="" display: block;  position: relative;"">
    <svg width=1920 height=1080>
    
    <circle cx=897 cy=540 r=12.405665718171171 stroke=""black"" stroke-width=""1"" fill=""black"" />
    <circle cx=1038.96 cy=540 r=17.722379597387388 stroke=""black"" stroke-width=""1.5"" fill=""none"" />
    <circle cx=1126.9891246324175 cy=540 r=17.722379597387388 stroke=""black"" stroke-width=""1.5"" fill=""none"" />
    <circle cx=1038.96 cy=628.0291246324175 r=17.722379597387388 stroke=""black"" stroke-width=""1.5"" fill=""none"" />
    <circle cx=950.9308753675825 cy=540 r=17.722379597387388 stroke=""black"" stroke-width=""1.5"" fill=""none"" />
    <circle cx=1038.96 cy=451.9708753675825 r=17.722379597387388 stroke=""black"" stroke-width=""1.5"" fill=""none"" />
    <polygon points = ""1038.96,540 1043.945216768847,522.2776204026126 1033.974783231153,522.2776204026126"" stroke=""white"" stroke-width=""3"" fill = ""white"" />
    
    </svg>
    </div>
        ","","","","","","","","","","","","stimulus","","","","","","","","","","","","","","","","",""
"html-keyboard-response","75","226681","0.0-75.0","146.19999998807907","arrowup","","
    <div style="" display: block;  position: relative;"">
    
    <svg width=1920 height=1080>
    <circle cx=897 cy=540 r=12.405665718171171 stroke=""black"" stroke-width=""1"" fill=""black"" />
    <circle cx=1126.9891246324175 cy=540 r=17.722379597387388 stroke=""none"" stroke-width=""1.5"" fill=""none"" />
    <circle cx=1038.96 cy=628.0291246324175 r=17.722379597387388 stroke=""none"" stroke-width=""1.5"" fill=""none"" />
    <circle cx=950.9308753675825 cy=540 r=17.722379597387388 stroke=""none"" stroke-width=""1.5"" fill=""none"" />
    <circle cx=1038.96 cy=451.9708753675825 r=17.722379597387388 stroke=""none"" stroke-width=""1.5"" fill=""none"" />
    <polygon points = ""1038.96,540 1043.945216768847,522.2776204026126 1033.974783231153,522.2776204026126"" stroke=""none"" stroke-width=""3"" fill = ""none"" />
    
    </svg>
    </div>
        ","","","","","","","","","","","","get_response","true","8YKZhmKRXb04sSrZ","","","false","true","true","141.96","4","577.0840000000001","88.02912463241752","2.48","1","0","","",""
"html-keyboard-response","76","227185","0.0-76.0","null","null","","
    <div style="" display: block;  position: relative;"">
    
    <svg width=1920 height=1080>
    <circle cx=897 cy=540 r=12.405665718171171 stroke=""black"" stroke-width=""1"" fill=""black"" />
    <circle cx=1126.9891246324175 cy=540 r=17.722379597387388 stroke=""none"" stroke-width=""1.5"" fill=""none"" />
    <circle cx=1038.96 cy=628.0291246324175 r=17.722379597387388 stroke=""none"" stroke-width=""1.5"" fill=""none"" />
    <circle cx=950.9308753675825 cy=540 r=17.722379597387388 stroke=""none"" stroke-width=""1.5"" fill=""none"" />
    <circle cx=1038.96 cy=451.9708753675825 r=17.722379597387388 stroke=""none"" stroke-width=""1.5"" fill=""none"" />
    <polygon points = ""1038.96,540 1043.945216768847,522.2776204026126 1033.974783231153,522.2776204026126"" stroke=""none"" stroke-width=""3"" fill = ""none"" />
    
    </svg>
    </div>
        ","","","","","","","","","","","","","","","","","","","","","","","","","","","","",""
"html-keyboard-response","77","227337","0.0-77.0","null","null","","
    <div style="" display: block;  position: relative;"">
    <svg width=1920 height=1080>
    
    <circle cx=897 cy=540 r=12.405665718171171 stroke=""black"" stroke-width=""1"" fill=""black"" />
    <circle cx=755.04 cy=540 r=17.722379597387388 stroke=""black"" stroke-width=""1.5"" fill=""none"" />
    <circle cx=835.0664769385613 cy=540 r=17.722379597387388 stroke=""black"" stroke-width=""1.5"" fill=""none"" />
    <circle cx=755.04 cy=620.0264769385614 r=17.722379597387388 stroke=""black"" stroke-width=""1.5"" fill=""none"" />
    <circle cx=675.0135230614386 cy=540 r=17.722379597387388 stroke=""black"" stroke-width=""1.5"" fill=""none"" />
    <circle cx=755.04 cy=459.97352306143864 r=17.722379597387388 stroke=""black"" stroke-width=""1.5"" fill=""none"" />
    <polygon points = ""755.04,540 760.025216768847,557.7223795973874 750.0547832311529,557.7223795973874"" stroke=""white"" stroke-width=""3"" fill = ""white"" />
    
    </svg>
    </div>
        ","","","","","","","","","","","","stimulus","","","","","","","","","","","","","","","","",""
"html-keyboard-response","78","227569","0.0-78.0","229","arrowdown","","
    <div style="" display: block;  position: relative;"">
    
    <svg width=1920 height=1080>
    <circle cx=897 cy=540 r=12.405665718171171 stroke=""black"" stroke-width=""1"" fill=""black"" />
    <circle cx=835.0664769385613 cy=540 r=17.722379597387388 stroke=""none"" stroke-width=""1.5"" fill=""none"" />
    <circle cx=755.04 cy=620.0264769385614 r=17.722379597387388 stroke=""none"" stroke-width=""1.5"" fill=""none"" />
    <circle cx=675.0135230614386 cy=540 r=17.722379597387388 stroke=""none"" stroke-width=""1.5"" fill=""none"" />
    <circle cx=755.04 cy=459.97352306143864 r=17.722379597387388 stroke=""none"" stroke-width=""1.5"" fill=""none"" />
    <polygon points = ""755.04,540 760.025216768847,557.7223795973874 750.0547832311529,557.7223795973874"" stroke=""none"" stroke-width=""3"" fill = ""none"" />
    
    </svg>
    </div>
        ","","","","","","","","","","","","get_response","true","8YKZhmKRXb04sSrZ","","","true","false","true","141.96","4","577.0840000000001","80.02647693856137","2.25","1","0","","",""
"html-keyboard-response","79","228073","0.0-79.0","null","null","","
    <div style="" display: block;  position: relative;"">
    
    <svg width=1920 height=1080>
    <circle cx=897 cy=540 r=12.405665718171171 stroke=""black"" stroke-width=""1"" fill=""black"" />
    <circle cx=835.0664769385613 cy=540 r=17.722379597387388 stroke=""none"" stroke-width=""1.5"" fill=""none"" />
    <circle cx=755.04 cy=620.0264769385614 r=17.722379597387388 stroke=""none"" stroke-width=""1.5"" fill=""none"" />
    <circle cx=675.0135230614386 cy=540 r=17.722379597387388 stroke=""none"" stroke-width=""1.5"" fill=""none"" />
    <circle cx=755.04 cy=459.97352306143864 r=17.722379597387388 stroke=""none"" stroke-width=""1.5"" fill=""none"" />
    <polygon points = ""755.04,540 760.025216768847,557.7223795973874 750.0547832311529,557.7223795973874"" stroke=""none"" stroke-width=""3"" fill = ""none"" />
    
    </svg>
    </div>
        ","","","","","","","","","","","","","","","","","","","","","","","","","","","","",""
"html-keyboard-response","80","228226","0.0-80.0","null","null","","
    <div style="" display: block;  position: relative;"">
    <svg width=1920 height=1080>
    
    <circle cx=897 cy=540 r=12.405665718171171 stroke=""black"" stroke-width=""1"" fill=""black"" />
    <circle cx=755.04 cy=540 r=17.722379597387388 stroke=""black"" stroke-width=""1.5"" fill=""none"" />
    <circle cx=827.7913426714194 cy=540 r=17.722379597387388 stroke=""black"" stroke-width=""1.5"" fill=""none"" />
    <circle cx=755.04 cy=612.7513426714195 r=17.722379597387388 stroke=""black"" stroke-width=""1.5"" fill=""none"" />
    <circle cx=682.2886573285805 cy=540 r=17.722379597387388 stroke=""black"" stroke-width=""1.5"" fill=""none"" />
    <circle cx=755.04 cy=467.2486573285806 r=17.722379597387388 stroke=""black"" stroke-width=""1.5"" fill=""none"" />
    <polygon points = ""755.04,540 760.025216768847,522.2776204026126 750.0547832311529,522.2776204026126"" stroke=""white"" stroke-width=""3"" fill = ""white"" />
    
    </svg>
    </div>
        ","","","","","","","","","","","","stimulus","","","","","","","","","","","","","","","","",""
"html-keyboard-response","81","228619","0.0-81.0","390.69999998807907","arrowdown","","
    <div style="" display: block;  position: relative;"">
    
    <svg width=1920 height=1080>
    <circle cx=897 cy=540 r=12.405665718171171 stroke=""black"" stroke-width=""1"" fill=""black"" />
    <circle cx=827.7913426714194 cy=540 r=17.722379597387388 stroke=""none"" stroke-width=""1.5"" fill=""none"" />
    <circle cx=755.04 cy=612.7513426714195 r=17.722379597387388 stroke=""none"" stroke-width=""1.5"" fill=""none"" />
    <circle cx=682.2886573285805 cy=540 r=17.722379597387388 stroke=""none"" stroke-width=""1.5"" fill=""none"" />
    <circle cx=755.04 cy=467.2486573285806 r=17.722379597387388 stroke=""none"" stroke-width=""1.5"" fill=""none"" />
    <polygon points = ""755.04,540 760.025216768847,522.2776204026126 750.0547832311529,522.2776204026126"" stroke=""none"" stroke-width=""3"" fill = ""none"" />
    
    </svg>
    </div>
        ","","","","","","","","","","","","get_response","false","8YKZhmKRXb04sSrZ","","","true","true","true","141.96","4","577.0840000000001","72.75134267141942","2.05","1","0","","",""
"html-keyboard-response","82","229123","0.0-82.0","null","null","","
    <div style="" display: block;  position: relative;"">
    
    <svg width=1920 height=1080>
    <circle cx=897 cy=540 r=12.405665718171171 stroke=""black"" stroke-width=""1"" fill=""black"" />
    <circle cx=827.7913426714194 cy=540 r=17.722379597387388 stroke=""none"" stroke-width=""1.5"" fill=""none"" />
    <circle cx=755.04 cy=612.7513426714195 r=17.722379597387388 stroke=""none"" stroke-width=""1.5"" fill=""none"" />
    <circle cx=682.2886573285805 cy=540 r=17.722379597387388 stroke=""none"" stroke-width=""1.5"" fill=""none"" />
    <circle cx=755.04 cy=467.2486573285806 r=17.722379597387388 stroke=""none"" stroke-width=""1.5"" fill=""none"" />
    <polygon points = ""755.04,540 760.025216768847,522.2776204026126 750.0547832311529,522.2776204026126"" stroke=""none"" stroke-width=""3"" fill = ""none"" />
    
    </svg>
    </div>
        ","","","","","","","","","","","","","","","","","","","","","","","","","","","","",""
"html-keyboard-response","83","229275","0.0-83.0","null","null","","
    <div style="" display: block;  position: relative;"">
    <svg width=1920 height=1080>
    
    <circle cx=897 cy=540 r=12.405665718171171 stroke=""black"" stroke-width=""1"" fill=""black"" />
    <circle cx=755.04 cy=540 r=17.722379597387388 stroke=""black"" stroke-width=""1.5"" fill=""none"" />
    <circle cx=849.6167454728452 cy=540 r=17.722379597387388 stroke=""black"" stroke-width=""1.5"" fill=""none"" />
    <circle cx=755.04 cy=634.5767454728452 r=17.722379597387388 stroke=""black"" stroke-width=""1.5"" fill=""none"" />
    <circle cx=660.4632545271547 cy=540 r=17.722379597387388 stroke=""black"" stroke-width=""1.5"" fill=""none"" />
    <circle cx=755.04 cy=445.42325452715477 r=17.722379597387388 stroke=""black"" stroke-width=""1.5"" fill=""none"" />
    <polygon points = ""755.04,540 760.025216768847,557.7223795973874 750.0547832311529,557.7223795973874"" stroke=""white"" stroke-width=""3"" fill = ""white"" />
    
    </svg>
    </div>
        ","","","","","","","","","","","","stimulus","","","","","","","","","","","","","","","","",""
"html-keyboard-response","84","229601","0.0-84.0","322.5999999642372","arrowdown","","
    <div style="" display: block;  position: relative;"">
    
    <svg width=1920 height=1080>
    <circle cx=897 cy=540 r=12.405665718171171 stroke=""black"" stroke-width=""1"" fill=""black"" />
    <circle cx=849.6167454728452 cy=540 r=17.722379597387388 stroke=""none"" stroke-width=""1.5"" fill=""none"" />
    <circle cx=755.04 cy=634.5767454728452 r=17.722379597387388 stroke=""none"" stroke-width=""1.5"" fill=""none"" />
    <circle cx=660.4632545271547 cy=540 r=17.722379597387388 stroke=""none"" stroke-width=""1.5"" fill=""none"" />
    <circle cx=755.04 cy=445.42325452715477 r=17.722379597387388 stroke=""none"" stroke-width=""1.5"" fill=""none"" />
    <polygon points = ""755.04,540 760.025216768847,557.7223795973874 750.0547832311529,557.7223795973874"" stroke=""none"" stroke-width=""3"" fill = ""none"" />
    
    </svg>
    </div>
        ","","","","","","","","","","","","get_response","true","8YKZhmKRXb04sSrZ","","","true","false","true","141.96","4","577.0840000000001","94.57674547284525","2.66","1","0","","",""
"html-keyboard-response","85","230105","0.0-85.0","null","null","","
    <div style="" display: block;  position: relative;"">
    
    <svg width=1920 height=1080>
    <circle cx=897 cy=540 r=12.405665718171171 stroke=""black"" stroke-width=""1"" fill=""black"" />
    <circle cx=849.6167454728452 cy=540 r=17.722379597387388 stroke=""none"" stroke-width=""1.5"" fill=""none"" />
    <circle cx=755.04 cy=634.5767454728452 r=17.722379597387388 stroke=""none"" stroke-width=""1.5"" fill=""none"" />
    <circle cx=660.4632545271547 cy=540 r=17.722379597387388 stroke=""none"" stroke-width=""1.5"" fill=""none"" />
    <circle cx=755.04 cy=445.42325452715477 r=17.722379597387388 stroke=""none"" stroke-width=""1.5"" fill=""none"" />
    <polygon points = ""755.04,540 760.025216768847,557.7223795973874 750.0547832311529,557.7223795973874"" stroke=""none"" stroke-width=""3"" fill = ""none"" />
    
    </svg>
    </div>
        ","","","","","","","","","","","","","","","","","","","","","","","","","","","","",""
"html-keyboard-response","86","230259","0.0-86.0","null","null","","
    <div style="" display: block;  position: relative;"">
    <svg width=1920 height=1080>
    
    <circle cx=897 cy=540 r=12.405665718171171 stroke=""black"" stroke-width=""1"" fill=""black"" />
    <circle cx=1038.96 cy=540 r=17.722379597387388 stroke=""black"" stroke-width=""1.5"" fill=""none"" />
    <circle cx=1133.5367454728453 cy=540 r=17.722379597387388 stroke=""black"" stroke-width=""1.5"" fill=""none"" />
    <circle cx=1038.96 cy=634.5767454728452 r=17.722379597387388 stroke=""black"" stroke-width=""1.5"" fill=""none"" />
    <circle cx=944.3832545271548 cy=540 r=17.722379597387388 stroke=""black"" stroke-width=""1.5"" fill=""none"" />
    <circle cx=1038.96 cy=445.42325452715477 r=17.722379597387388 stroke=""black"" stroke-width=""1.5"" fill=""none"" />
    <polygon points = ""1038.96,540 1043.945216768847,557.7223795973874 1033.974783231153,557.7223795973874"" stroke=""white"" stroke-width=""3"" fill = ""white"" />
    
    </svg>
    </div>
        ","","","","","","","","","","","","stimulus","","","","","","","","","","","","","","","","",""
"html-keyboard-response","87","230425","0.0-87.0","162.5","arrowup","","
    <div style="" display: block;  position: relative;"">
    
    <svg width=1920 height=1080>
    <circle cx=897 cy=540 r=12.405665718171171 stroke=""black"" stroke-width=""1"" fill=""black"" />
    <circle cx=1133.5367454728453 cy=540 r=17.722379597387388 stroke=""none"" stroke-width=""1.5"" fill=""none"" />
    <circle cx=1038.96 cy=634.5767454728452 r=17.722379597387388 stroke=""none"" stroke-width=""1.5"" fill=""none"" />
    <circle cx=944.3832545271548 cy=540 r=17.722379597387388 stroke=""none"" stroke-width=""1.5"" fill=""none"" />
    <circle cx=1038.96 cy=445.42325452715477 r=17.722379597387388 stroke=""none"" stroke-width=""1.5"" fill=""none"" />
    <polygon points = ""1038.96,540 1043.945216768847,557.7223795973874 1033.974783231153,557.7223795973874"" stroke=""none"" stroke-width=""3"" fill = ""none"" />
    
    </svg>
    </div>
        ","","","","","","","","","","","","get_response","false","8YKZhmKRXb04sSrZ","","","false","false","true","141.96","4","577.0840000000001","94.57674547284525","2.66","1","0","","",""
"html-keyboard-response","88","230928","0.0-88.0","null","null","","
    <div style="" display: block;  position: relative;"">
    
    <svg width=1920 height=1080>
    <circle cx=897 cy=540 r=12.405665718171171 stroke=""black"" stroke-width=""1"" fill=""black"" />
    <circle cx=1133.5367454728453 cy=540 r=17.722379597387388 stroke=""none"" stroke-width=""1.5"" fill=""none"" />
    <circle cx=1038.96 cy=634.5767454728452 r=17.722379597387388 stroke=""none"" stroke-width=""1.5"" fill=""none"" />
    <circle cx=944.3832545271548 cy=540 r=17.722379597387388 stroke=""none"" stroke-width=""1.5"" fill=""none"" />
    <circle cx=1038.96 cy=445.42325452715477 r=17.722379597387388 stroke=""none"" stroke-width=""1.5"" fill=""none"" />
    <polygon points = ""1038.96,540 1043.945216768847,557.7223795973874 1033.974783231153,557.7223795973874"" stroke=""none"" stroke-width=""3"" fill = ""none"" />
    
    </svg>
    </div>
        ","","","","","","","","","","","","","","","","","","","","","","","","","","","","",""
"html-keyboard-response","89","231081","0.0-89.0","null","null","","
    <div style="" display: block;  position: relative;"">
    <svg width=1920 height=1080>
    
    <circle cx=897 cy=540 r=12.405665718171171 stroke=""black"" stroke-width=""1"" fill=""black"" />
    <circle cx=1038.96 cy=540 r=17.722379597387388 stroke=""black"" stroke-width=""1.5"" fill=""none"" />
    <circle cx=1145.4752408052252 cy=540 r=17.722379597387388 stroke=""black"" stroke-width=""1.5"" fill=""none"" />
    <circle cx=1038.96 cy=646.5152408052252 r=17.722379597387388 stroke=""black"" stroke-width=""1.5"" fill=""none"" />
    <circle cx=932.4447591947749 cy=540 r=17.722379597387388 stroke=""black"" stroke-width=""1.5"" fill=""none"" />
    <circle cx=1038.96 cy=433.48475919477477 r=17.722379597387388 stroke=""black"" stroke-width=""1.5"" fill=""none"" />
    <polygon points = ""1038.96,540 1043.945216768847,557.7223795973874 1033.974783231153,557.7223795973874"" stroke=""white"" stroke-width=""3"" fill = ""white"" />
    
    </svg>
    </div>
        ","","","","","","","","","","","","stimulus","","","","","","","","","","","","","","","","",""
"html-keyboard-response","90","231543","0.0-90.0","458.89999997615814","arrowup","","
    <div style="" display: block;  position: relative;"">
    
    <svg width=1920 height=1080>
    <circle cx=897 cy=540 r=12.405665718171171 stroke=""black"" stroke-width=""1"" fill=""black"" />
    <circle cx=1145.4752408052252 cy=540 r=17.722379597387388 stroke=""none"" stroke-width=""1.5"" fill=""none"" />
    <circle cx=1038.96 cy=646.5152408052252 r=17.722379597387388 stroke=""none"" stroke-width=""1.5"" fill=""none"" />
    <circle cx=932.4447591947749 cy=540 r=17.722379597387388 stroke=""none"" stroke-width=""1.5"" fill=""none"" />
    <circle cx=1038.96 cy=433.48475919477477 r=17.722379597387388 stroke=""none"" stroke-width=""1.5"" fill=""none"" />
    <polygon points = ""1038.96,540 1043.945216768847,557.7223795973874 1033.974783231153,557.7223795973874"" stroke=""none"" stroke-width=""3"" fill = ""none"" />
    
    </svg>
    </div>
        ","","","","","","","","","","","","get_response","false","8YKZhmKRXb04sSrZ","","","false","false","true","141.96","4","577.0840000000001","106.51524080522523","3","1","0","","",""
"html-keyboard-response","91","232047","0.0-91.0","null","null","","
    <div style="" display: block;  position: relative;"">
    
    <svg width=1920 height=1080>
    <circle cx=897 cy=540 r=12.405665718171171 stroke=""black"" stroke-width=""1"" fill=""black"" />
    <circle cx=1145.4752408052252 cy=540 r=17.722379597387388 stroke=""none"" stroke-width=""1.5"" fill=""none"" />
    <circle cx=1038.96 cy=646.5152408052252 r=17.722379597387388 stroke=""none"" stroke-width=""1.5"" fill=""none"" />
    <circle cx=932.4447591947749 cy=540 r=17.722379597387388 stroke=""none"" stroke-width=""1.5"" fill=""none"" />
    <circle cx=1038.96 cy=433.48475919477477 r=17.722379597387388 stroke=""none"" stroke-width=""1.5"" fill=""none"" />
    <polygon points = ""1038.96,540 1043.945216768847,557.7223795973874 1033.974783231153,557.7223795973874"" stroke=""none"" stroke-width=""3"" fill = ""none"" />
    
    </svg>
    </div>
        ","","","","","","","","","","","","","","","","","","","","","","","","","","","","",""
"html-keyboard-response","92","232200","0.0-92.0","null","null","","
    <div style="" display: block;  position: relative;"">
    <svg width=1920 height=1080>
    
    <circle cx=897 cy=540 r=12.405665718171171 stroke=""black"" stroke-width=""1"" fill=""black"" />
    <circle cx=755.04 cy=540 r=17.722379597387388 stroke=""black"" stroke-width=""1.5"" fill=""none"" />
    <circle cx=861.5552408052251 cy=540 r=17.722379597387388 stroke=""black"" stroke-width=""1.5"" fill=""none"" />
    <circle cx=755.04 cy=646.5152408052252 r=17.722379597387388 stroke=""black"" stroke-width=""1.5"" fill=""none"" />
    <circle cx=648.5247591947748 cy=540 r=17.722379597387388 stroke=""black"" stroke-width=""1.5"" fill=""none"" />
    <circle cx=755.04 cy=433.48475919477477 r=17.722379597387388 stroke=""black"" stroke-width=""1.5"" fill=""none"" />
    <polygon points = ""755.04,540 760.025216768847,522.2776204026126 750.0547832311529,522.2776204026126"" stroke=""white"" stroke-width=""3"" fill = ""white"" />
    
    </svg>
    </div>
        ","","","","","","","","","","","","stimulus","","","","","","","","","","","","","","","","",""
"html-keyboard-response","93","232361","0.0-93.0","157.10000002384186","arrowdown","","
    <div style="" display: block;  position: relative;"">
    
    <svg width=1920 height=1080>
    <circle cx=897 cy=540 r=12.405665718171171 stroke=""black"" stroke-width=""1"" fill=""black"" />
    <circle cx=861.5552408052251 cy=540 r=17.722379597387388 stroke=""none"" stroke-width=""1.5"" fill=""none"" />
    <circle cx=755.04 cy=646.5152408052252 r=17.722379597387388 stroke=""none"" stroke-width=""1.5"" fill=""none"" />
    <circle cx=648.5247591947748 cy=540 r=17.722379597387388 stroke=""none"" stroke-width=""1.5"" fill=""none"" />
    <circle cx=755.04 cy=433.48475919477477 r=17.722379597387388 stroke=""none"" stroke-width=""1.5"" fill=""none"" />
    <polygon points = ""755.04,540 760.025216768847,522.2776204026126 750.0547832311529,522.2776204026126"" stroke=""none"" stroke-width=""3"" fill = ""none"" />
    
    </svg>
    </div>
        ","","","","","","","","","","","","get_response","false","8YKZhmKRXb04sSrZ","","","true","true","true","141.96","4","577.0840000000001","106.51524080522523","3","1","0","","",""
"html-keyboard-response","94","232864","0.0-94.0","null","null","","
    <div style="" display: block;  position: relative;"">
    
    <svg width=1920 height=1080>
    <circle cx=897 cy=540 r=12.405665718171171 stroke=""black"" stroke-width=""1"" fill=""black"" />
    <circle cx=861.5552408052251 cy=540 r=17.722379597387388 stroke=""none"" stroke-width=""1.5"" fill=""none"" />
    <circle cx=755.04 cy=646.5152408052252 r=17.722379597387388 stroke=""none"" stroke-width=""1.5"" fill=""none"" />
    <circle cx=648.5247591947748 cy=540 r=17.722379597387388 stroke=""none"" stroke-width=""1.5"" fill=""none"" />
    <circle cx=755.04 cy=433.48475919477477 r=17.722379597387388 stroke=""none"" stroke-width=""1.5"" fill=""none"" />
    <polygon points = ""755.04,540 760.025216768847,522.2776204026126 750.0547832311529,522.2776204026126"" stroke=""none"" stroke-width=""3"" fill = ""none"" />
    
    </svg>
    </div>
        ","","","","","","","","","","","","","","","","","","","","","","","","","","","","",""
"html-keyboard-response","95","233018","0.0-95.0","null","null","","
    <div style="" display: block;  position: relative;"">
    <svg width=1920 height=1080>
    
    <circle cx=897 cy=540 r=12.405665718171171 stroke=""black"" stroke-width=""1"" fill=""black"" />
    <circle cx=1038.96 cy=540 r=17.722379597387388 stroke=""black"" stroke-width=""1.5"" fill=""none"" />
    <circle cx=1145.4752408052252 cy=540 r=17.722379597387388 stroke=""black"" stroke-width=""1.5"" fill=""none"" />
    <circle cx=1038.96 cy=646.5152408052252 r=17.722379597387388 stroke=""black"" stroke-width=""1.5"" fill=""none"" />
    <circle cx=932.4447591947749 cy=540 r=17.722379597387388 stroke=""black"" stroke-width=""1.5"" fill=""none"" />
    <circle cx=1038.96 cy=433.48475919477477 r=17.722379597387388 stroke=""black"" stroke-width=""1.5"" fill=""none"" />
    <polygon points = ""1038.96,540 1043.945216768847,522.2776204026126 1033.974783231153,522.2776204026126"" stroke=""white"" stroke-width=""3"" fill = ""white"" />
    
    </svg>
    </div>
        ","","","","","","","","","","","","stimulus","","","","","","","","","","","","","","","","",""
"html-keyboard-response","96","233367","0.0-96.0","346.39999997615814","arrowup","","
    <div style="" display: block;  position: relative;"">
    
    <svg width=1920 height=1080>
    <circle cx=897 cy=540 r=12.405665718171171 stroke=""black"" stroke-width=""1"" fill=""black"" />
    <circle cx=1145.4752408052252 cy=540 r=17.722379597387388 stroke=""none"" stroke-width=""1.5"" fill=""none"" />
    <circle cx=1038.96 cy=646.5152408052252 r=17.722379597387388 stroke=""none"" stroke-width=""1.5"" fill=""none"" />
