"trial_type","trial_index","time_elapsed","internal_node_id","rt","response","success","stimulus","start_time","start_time_unix","item_width_mm","item_height_mm","item_width_px","px2mm","view_dist_mm","item_width_deg","px2deg","win_width_deg","win_height_deg","trialType","correct","participantID","criticalSpacing","criticalSpacing_deg","isLeft","isUp","isEccen4","eccentricity","eccentricity_deg","viewingDistanceMean","critical_spacing","critical_spacing_deg","crowding_session","correctRate","viewDistance_1","viewDistance_2","viewDistance_3"
"pavlovia","0","13","0.0-0.0","","","","","","","","","","","","","","","","","","","","","","","","","","","","","","","","",""
"survey-text","1","6726","0.0-1.0","6685.899999976158","{""Q0"":""""}","","","","","","","","","","","","","","","","","","","","","","","","","","","","","","",""
"fullscreen","2","11684","0.0-2.0","","","true","","","","","","","","","","","","","","","","","","","","","","","","","","","","","",""
"html-keyboard-response","3","15653","0.0-3.0","3965.3000000715256"," ","","<h1>Consent Form</h1>
       <p>By answering the following questions, you are participating in a study being performed by cognitive scientists in the Stanford Department of Psychology. If you have questions about this research, please contact us at stanfordpsych251@gmail.com. You must be at least 18 years old to participate. Your participation in this research is voluntary. You may decline to answer any or all of the following questions. You may decline further participation by closing the window, at any time, without adverse consequences. Your anonymity is assured; the researchers who have requested your participation will not receive any personal information about you.</p>
       <p>Press <b>any key</b> to start the experiment!</p>","","","","","","","","","","","","","","","","","","","","","","","","","","","","",""
"html-keyboard-response","4","18233","0.0-4.0","2577.5"," ","","<h1>Welcome to the Visual Crowding Experiment!</h1>
       <p>This test will take <b>10-12</b> minutes to complete.</p>
       <p>Press any key to start the experiment!</p>","1/12/2021 1:17:21","1638343041695","","","","","","","","","","","","","","","","","","","","","","","","","","",""
"html-keyboard-response","5","32657","0.0-5.0","14420.099999904633","arrowdown","","<div> 
<p> Before you begin this study, let&#39;s quickly test how far away you are sitting. You might know that vision tests at a doctor&#39;s practice often involve chinrests, the doctor basically asks you to sit away from a screen in a specific distance. We do this here with a <b>virtual chinrest</b>. </p>
<p> Please press the <b>down</b> arrow to continue.
</p>
</div>","","","","","","","","","","","","","","","","","","","","","","","","","","","","",""
"virtual-chinrest","6","155890","0.0-6.0","123229.60000002384","","","","","","85.6","53.98","441","5.15","501.32","9.759543825689118","45.18653821085343","35.40877578481313","19.917436378957383","","","","","","","","","","","","","","","","","",""
"html-keyboard-response","7","194361","0.0-7.0","38465","arrowdown","","
	<h2 class=""bolded-blue"">Now, you will take a peripheral vision test!</h2>
<p> 
	<b>
		<font size=""140%"">1. </font>
	</b>
	<em><b>Please use both eyes for the following task.</b></em> First, you will see a screen (like the one in the image below) showing a <b>black dot</b> in the middle of the screen, with a group of circles displayed on either the <span class=""bolded-blue"">left</span> or <span class=""bolded-blue"">right</span> of the black dot for 150 ms. <span class=""bolded-blue"">Please make sure to focus on the black dot all the time!</span>

	<div>
		<img src=""example.png"" alt=""example"" style=""border: 2px solid black"" width=""600""/> 
	</div>
	
	<b>
		<font size=""140%"">2. </font>
	</b>
	Your task is to identify whether the opening of the <b class=""bolded-blue"">center circle</b> is upward by pressing UP or downward by pressing DOWN on your keyboard. The opening of the circle will only be upward or downward, not towards left or right.

	<div>
		<img src=""arrow_keys+.png"" alt=""arrows"" style=""border: 2px solid black"" width=""600""/>
	</div>
	<br>

<p>Please press the <b>down</b> arrow key to start the <span class=""bolded-blue"">practice task</span> (this first practice task will not count toward your final results).</p>
</p>
","","","","","","","","","","","","","","","","","","","","","","","","","","","","",""
"html-keyboard-response","8","194880","0.0-8.0","null","null","","
    <div style="" display: block;  position: relative;"">
    
    <svg width=1600 height=900>
    <circle cx=737 cy=450 r=16.051246154233176 stroke=""black"" stroke-width=""1"" fill=""black"" />
    <circle cx=NaN cy=450 r=22.93035164890454 stroke=""none"" stroke-width=""1.5"" fill=""none"" />
    <circle cx=553.3199999999999 cy=NaN r=22.93035164890454 stroke=""none"" stroke-width=""1.5"" fill=""none"" />
    <circle cx=NaN cy=450 r=22.93035164890454 stroke=""none"" stroke-width=""1.5"" fill=""none"" />
    <circle cx=553.3199999999999 cy=NaN r=22.93035164890454 stroke=""none"" stroke-width=""1.5"" fill=""none"" />
    <polygon points = ""553.3199999999999,450 559.7701932670785,472.93035164890455 546.8698067329213,472.93035164890455"" stroke=""none"" stroke-width=""3"" fill = ""none"" />
    
    </svg>
    </div>
        ","","","","","","","","","","","","","","","","","","","","","","","","","","","","",""
"html-keyboard-response","9","195040","0.0-9.0","null","null","","
    <div style="" display: block;  position: relative;"">
    <svg width=1600 height=900>
    
    <circle cx=737 cy=450 r=16.051246154233176 stroke=""black"" stroke-width=""1"" fill=""black"" />
    <circle cx=920.6800000000001 cy=450 r=22.93035164890454 stroke=""black"" stroke-width=""1.5"" fill=""none"" />
    <circle cx=1040.0720000000001 cy=450 r=22.93035164890454 stroke=""black"" stroke-width=""1.5"" fill=""none"" />
    <circle cx=920.6800000000001 cy=569.392 r=22.93035164890454 stroke=""black"" stroke-width=""1.5"" fill=""none"" />
    <circle cx=801.288 cy=450 r=22.93035164890454 stroke=""black"" stroke-width=""1.5"" fill=""none"" />
    <circle cx=920.6800000000001 cy=330.608 r=22.93035164890454 stroke=""black"" stroke-width=""1.5"" fill=""none"" />
    <polygon points = ""920.6800000000001,450 927.1301932670787,427.06964835109545 914.2298067329215,427.06964835109545"" stroke=""white"" stroke-width=""3"" fill = ""white"" />
    
    </svg>
    </div>
        ","","","","","","","","","","","","stimulus","","","","","","","","","","","","","","","","",""
"html-keyboard-response","10","197956","0.0-10.0","2912.2999999523163","arrowup","","
    <div style="" display: block;  position: relative;"">
    
    <svg width=1600 height=900>
    <circle cx=737 cy=450 r=16.051246154233176 stroke=""black"" stroke-width=""1"" fill=""black"" />
    <circle cx=1040.0720000000001 cy=450 r=22.93035164890454 stroke=""none"" stroke-width=""1.5"" fill=""none"" />
    <circle cx=920.6800000000001 cy=569.392 r=22.93035164890454 stroke=""none"" stroke-width=""1.5"" fill=""none"" />
    <circle cx=801.288 cy=450 r=22.93035164890454 stroke=""none"" stroke-width=""1.5"" fill=""none"" />
    <circle cx=920.6800000000001 cy=330.608 r=22.93035164890454 stroke=""none"" stroke-width=""1.5"" fill=""none"" />
    <polygon points = ""920.6800000000001,450 927.1301932670787,427.06964835109545 914.2298067329215,427.06964835109545"" stroke=""none"" stroke-width=""3"" fill = ""none"" />
    
    </svg>
    </div>
        ","","","","","","","","","","","","practice_get_response","true","0gNiuF7EVawxfZ79","119.39200000000001","2.6","false","true","false","183.68","4","511.79400000000004","","","","","","",""
"html-keyboard-response","11","198464","0.0-11.0","null","null","","
    <div style="" display: block;  position: relative;"">
    
    <svg width=1600 height=900>
    <circle cx=737 cy=450 r=16.051246154233176 stroke=""black"" stroke-width=""1"" fill=""black"" />
    <circle cx=1040.0720000000001 cy=450 r=22.93035164890454 stroke=""none"" stroke-width=""1.5"" fill=""none"" />
    <circle cx=920.6800000000001 cy=569.392 r=22.93035164890454 stroke=""none"" stroke-width=""1.5"" fill=""none"" />
    <circle cx=801.288 cy=450 r=22.93035164890454 stroke=""none"" stroke-width=""1.5"" fill=""none"" />
    <circle cx=920.6800000000001 cy=330.608 r=22.93035164890454 stroke=""none"" stroke-width=""1.5"" fill=""none"" />
    <polygon points = ""920.6800000000001,450 927.1301932670787,427.06964835109545 914.2298067329215,427.06964835109545"" stroke=""none"" stroke-width=""3"" fill = ""none"" />
    
    </svg>
    </div>
        ","","","","","","","","","","","","","","","","","","","","","","","","","","","","",""
"html-keyboard-response","12","198623","0.0-12.0","null","null","","
    <div style="" display: block;  position: relative;"">
    <svg width=1600 height=900>
    
    <circle cx=737 cy=450 r=16.051246154233176 stroke=""black"" stroke-width=""1"" fill=""black"" />
    <circle cx=920.6800000000001 cy=450 r=22.93035164890454 stroke=""black"" stroke-width=""1.5"" fill=""none"" />
    <circle cx=1040.0720000000001 cy=450 r=22.93035164890454 stroke=""black"" stroke-width=""1.5"" fill=""none"" />
    <circle cx=920.6800000000001 cy=569.392 r=22.93035164890454 stroke=""black"" stroke-width=""1.5"" fill=""none"" />
    <circle cx=801.288 cy=450 r=22.93035164890454 stroke=""black"" stroke-width=""1.5"" fill=""none"" />
    <circle cx=920.6800000000001 cy=330.608 r=22.93035164890454 stroke=""black"" stroke-width=""1.5"" fill=""none"" />
    <polygon points = ""920.6800000000001,450 927.1301932670787,472.93035164890455 914.2298067329215,472.93035164890455"" stroke=""white"" stroke-width=""3"" fill = ""white"" />
    
    </svg>
    </div>
        ","","","","","","","","","","","","stimulus","","","","","","","","","","","","","","","","",""
"html-keyboard-response","13","199434","0.0-13.0","806.1999999284744","arrowdown","","
    <div style="" display: block;  position: relative;"">
    
    <svg width=1600 height=900>
    <circle cx=737 cy=450 r=16.051246154233176 stroke=""black"" stroke-width=""1"" fill=""black"" />
    <circle cx=1040.0720000000001 cy=450 r=22.93035164890454 stroke=""none"" stroke-width=""1.5"" fill=""none"" />
    <circle cx=920.6800000000001 cy=569.392 r=22.93035164890454 stroke=""none"" stroke-width=""1.5"" fill=""none"" />
    <circle cx=801.288 cy=450 r=22.93035164890454 stroke=""none"" stroke-width=""1.5"" fill=""none"" />
    <circle cx=920.6800000000001 cy=330.608 r=22.93035164890454 stroke=""none"" stroke-width=""1.5"" fill=""none"" />
    <polygon points = ""920.6800000000001,450 927.1301932670787,472.93035164890455 914.2298067329215,472.93035164890455"" stroke=""none"" stroke-width=""3"" fill = ""none"" />
    
    </svg>
    </div>
        ","","","","","","","","","","","","practice_get_response","true","0gNiuF7EVawxfZ79","119.39200000000001","2.6","false","false","false","183.68","4","511.79400000000004","","","","","","",""
"html-keyboard-response","14","199946","0.0-14.0","null","null","","
    <div style="" display: block;  position: relative;"">
    
    <svg width=1600 height=900>
    <circle cx=737 cy=450 r=16.051246154233176 stroke=""black"" stroke-width=""1"" fill=""black"" />
    <circle cx=1040.0720000000001 cy=450 r=22.93035164890454 stroke=""none"" stroke-width=""1.5"" fill=""none"" />
    <circle cx=920.6800000000001 cy=569.392 r=22.93035164890454 stroke=""none"" stroke-width=""1.5"" fill=""none"" />
    <circle cx=801.288 cy=450 r=22.93035164890454 stroke=""none"" stroke-width=""1.5"" fill=""none"" />
    <circle cx=920.6800000000001 cy=330.608 r=22.93035164890454 stroke=""none"" stroke-width=""1.5"" fill=""none"" />
    <polygon points = ""920.6800000000001,450 927.1301932670787,472.93035164890455 914.2298067329215,472.93035164890455"" stroke=""none"" stroke-width=""3"" fill = ""none"" />
    
    </svg>
    </div>
        ","","","","","","","","","","","","","","","","","","","","","","","","","","","","",""
"html-keyboard-response","15","200108","0.0-15.0","null","null","","
    <div style="" display: block;  position: relative;"">
    <svg width=1600 height=900>
    
    <circle cx=737 cy=450 r=16.051246154233176 stroke=""black"" stroke-width=""1"" fill=""black"" />
    <circle cx=920.6800000000001 cy=450 r=22.93035164890454 stroke=""black"" stroke-width=""1.5"" fill=""none"" />
    <circle cx=1040.0720000000001 cy=450 r=22.93035164890454 stroke=""black"" stroke-width=""1.5"" fill=""none"" />
    <circle cx=920.6800000000001 cy=569.392 r=22.93035164890454 stroke=""black"" stroke-width=""1.5"" fill=""none"" />
    <circle cx=801.288 cy=450 r=22.93035164890454 stroke=""black"" stroke-width=""1.5"" fill=""none"" />
    <circle cx=920.6800000000001 cy=330.608 r=22.93035164890454 stroke=""black"" stroke-width=""1.5"" fill=""none"" />
    <polygon points = ""920.6800000000001,450 927.1301932670787,427.06964835109545 914.2298067329215,427.06964835109545"" stroke=""white"" stroke-width=""3"" fill = ""white"" />
    
    </svg>
    </div>
        ","","","","","","","","","","","","stimulus","","","","","","","","","","","","","","","","",""
"html-keyboard-response","16","200533","0.0-16.0","420.3000000715256","arrowup","","
    <div style="" display: block;  position: relative;"">
    
    <svg width=1600 height=900>
    <circle cx=737 cy=450 r=16.051246154233176 stroke=""black"" stroke-width=""1"" fill=""black"" />
    <circle cx=1040.0720000000001 cy=450 r=22.93035164890454 stroke=""none"" stroke-width=""1.5"" fill=""none"" />
    <circle cx=920.6800000000001 cy=569.392 r=22.93035164890454 stroke=""none"" stroke-width=""1.5"" fill=""none"" />
    <circle cx=801.288 cy=450 r=22.93035164890454 stroke=""none"" stroke-width=""1.5"" fill=""none"" />
    <circle cx=920.6800000000001 cy=330.608 r=22.93035164890454 stroke=""none"" stroke-width=""1.5"" fill=""none"" />
    <polygon points = ""920.6800000000001,450 927.1301932670787,427.06964835109545 914.2298067329215,427.06964835109545"" stroke=""none"" stroke-width=""3"" fill = ""none"" />
    
    </svg>
    </div>
        ","","","","","","","","","","","","practice_get_response","true","0gNiuF7EVawxfZ79","119.39200000000001","2.6","false","true","false","183.68","4","511.79400000000004","","","","","","",""
"html-keyboard-response","17","201045","0.0-17.0","null","null","","
    <div style="" display: block;  position: relative;"">
    
    <svg width=1600 height=900>
    <circle cx=737 cy=450 r=16.051246154233176 stroke=""black"" stroke-width=""1"" fill=""black"" />
    <circle cx=1040.0720000000001 cy=450 r=22.93035164890454 stroke=""none"" stroke-width=""1.5"" fill=""none"" />
    <circle cx=920.6800000000001 cy=569.392 r=22.93035164890454 stroke=""none"" stroke-width=""1.5"" fill=""none"" />
    <circle cx=801.288 cy=450 r=22.93035164890454 stroke=""none"" stroke-width=""1.5"" fill=""none"" />
    <circle cx=920.6800000000001 cy=330.608 r=22.93035164890454 stroke=""none"" stroke-width=""1.5"" fill=""none"" />
    <polygon points = ""920.6800000000001,450 927.1301932670787,427.06964835109545 914.2298067329215,427.06964835109545"" stroke=""none"" stroke-width=""3"" fill = ""none"" />
    
    </svg>
    </div>
        ","","","","","","","","","","","","","","","","","","","","","","","","","","","","",""
"html-keyboard-response","18","201206","0.0-18.0","null","null","","
    <div style="" display: block;  position: relative;"">
    <svg width=1600 height=900>
    
    <circle cx=737 cy=450 r=16.051246154233176 stroke=""black"" stroke-width=""1"" fill=""black"" />
    <circle cx=920.6800000000001 cy=450 r=22.93035164890454 stroke=""black"" stroke-width=""1.5"" fill=""none"" />
    <circle cx=1029.2181818181818 cy=450 r=22.93035164890454 stroke=""black"" stroke-width=""1.5"" fill=""none"" />
    <circle cx=920.6800000000001 cy=558.5381818181818 r=22.93035164890454 stroke=""black"" stroke-width=""1.5"" fill=""none"" />
    <circle cx=812.1418181818183 cy=450 r=22.93035164890454 stroke=""black"" stroke-width=""1.5"" fill=""none"" />
    <circle cx=920.6800000000001 cy=341.4618181818182 r=22.93035164890454 stroke=""black"" stroke-width=""1.5"" fill=""none"" />
    <polygon points = ""920.6800000000001,450 927.1301932670787,427.06964835109545 914.2298067329215,427.06964835109545"" stroke=""white"" stroke-width=""3"" fill = ""white"" />
    
    </svg>
    </div>
        ","","","","","","","","","","","","stimulus","","","","","","","","","","","","","","","","",""
"html-keyboard-response","19","201661","0.0-19.0","450.6999999284744","arrowup","","
    <div style="" display: block;  position: relative;"">
    
    <svg width=1600 height=900>
    <circle cx=737 cy=450 r=16.051246154233176 stroke=""black"" stroke-width=""1"" fill=""black"" />
    <circle cx=1029.2181818181818 cy=450 r=22.93035164890454 stroke=""none"" stroke-width=""1.5"" fill=""none"" />
    <circle cx=920.6800000000001 cy=558.5381818181818 r=22.93035164890454 stroke=""none"" stroke-width=""1.5"" fill=""none"" />
    <circle cx=812.1418181818183 cy=450 r=22.93035164890454 stroke=""none"" stroke-width=""1.5"" fill=""none"" />
    <circle cx=920.6800000000001 cy=341.4618181818182 r=22.93035164890454 stroke=""none"" stroke-width=""1.5"" fill=""none"" />
    <polygon points = ""920.6800000000001,450 927.1301932670787,427.06964835109545 914.2298067329215,427.06964835109545"" stroke=""none"" stroke-width=""3"" fill = ""none"" />
    
    </svg>
    </div>
        ","","","","","","","","","","","","practice_get_response","true","0gNiuF7EVawxfZ79","108.53818181818181","2.36","false","true","false","183.68","4","511.79400000000004","","","","","","",""
"html-keyboard-response","20","202169","0.0-20.0","null","null","","
    <div style="" display: block;  position: relative;"">
    
    <svg width=1600 height=900>
    <circle cx=737 cy=450 r=16.051246154233176 stroke=""black"" stroke-width=""1"" fill=""black"" />
    <circle cx=1029.2181818181818 cy=450 r=22.93035164890454 stroke=""none"" stroke-width=""1.5"" fill=""none"" />
    <circle cx=920.6800000000001 cy=558.5381818181818 r=22.93035164890454 stroke=""none"" stroke-width=""1.5"" fill=""none"" />
    <circle cx=812.1418181818183 cy=450 r=22.93035164890454 stroke=""none"" stroke-width=""1.5"" fill=""none"" />
    <circle cx=920.6800000000001 cy=341.4618181818182 r=22.93035164890454 stroke=""none"" stroke-width=""1.5"" fill=""none"" />
    <polygon points = ""920.6800000000001,450 927.1301932670787,427.06964835109545 914.2298067329215,427.06964835109545"" stroke=""none"" stroke-width=""3"" fill = ""none"" />
    
    </svg>
    </div>
        ","","","","","","","","","","","","","","","","","","","","","","","","","","","","",""
"html-keyboard-response","21","202337","0.0-21.0","null","null","","
    <div style="" display: block;  position: relative;"">
    <svg width=1600 height=900>
    
    <circle cx=737 cy=450 r=16.051246154233176 stroke=""black"" stroke-width=""1"" fill=""black"" />
    <circle cx=553.3199999999999 cy=450 r=22.93035164890454 stroke=""black"" stroke-width=""1.5"" fill=""none"" />
    <circle cx=651.9910743801652 cy=450 r=22.93035164890454 stroke=""black"" stroke-width=""1.5"" fill=""none"" />
    <circle cx=553.3199999999999 cy=548.6710743801652 r=22.93035164890454 stroke=""black"" stroke-width=""1.5"" fill=""none"" />
    <circle cx=454.64892561983464 cy=450 r=22.93035164890454 stroke=""black"" stroke-width=""1.5"" fill=""none"" />
    <circle cx=553.3199999999999 cy=351.3289256198347 r=22.93035164890454 stroke=""black"" stroke-width=""1.5"" fill=""none"" />
    <polygon points = ""553.3199999999999,450 559.7701932670785,472.93035164890455 546.8698067329213,472.93035164890455"" stroke=""white"" stroke-width=""3"" fill = ""white"" />
    
    </svg>
    </div>
        ","","","","","","","","","","","","stimulus","","","","","","","","","","","","","","","","",""
"html-keyboard-response","22","203553","0.0-22.0","1212.2999999523163","arrowdown","","
    <div style="" display: block;  position: relative;"">
    
    <svg width=1600 height=900>
    <circle cx=737 cy=450 r=16.051246154233176 stroke=""black"" stroke-width=""1"" fill=""black"" />
    <circle cx=651.9910743801652 cy=450 r=22.93035164890454 stroke=""none"" stroke-width=""1.5"" fill=""none"" />
    <circle cx=553.3199999999999 cy=548.6710743801652 r=22.93035164890454 stroke=""none"" stroke-width=""1.5"" fill=""none"" />
    <circle cx=454.64892561983464 cy=450 r=22.93035164890454 stroke=""none"" stroke-width=""1.5"" fill=""none"" />
    <circle cx=553.3199999999999 cy=351.3289256198347 r=22.93035164890454 stroke=""none"" stroke-width=""1.5"" fill=""none"" />
    <polygon points = ""553.3199999999999,450 559.7701932670785,472.93035164890455 546.8698067329213,472.93035164890455"" stroke=""none"" stroke-width=""3"" fill = ""none"" />
    
    </svg>
    </div>
        ","","","","","","","","","","","","practice_get_response","true","0gNiuF7EVawxfZ79","98.67107438016528","2.15","true","false","false","183.68","4","511.79400000000004","","","","","","",""
"html-keyboard-response","23","209952","0.0-23.0","6396.099999904633","arrowdown","","<div> 
<h2 class=""bolded-blue"">Well done!</h2>
<p> Now that you have the hang of it, we&#39;ll start the study. This session has 25 trials and takes about 2 minute to complete. </p> 
<p>If you are ready for the real deal, please press the <b>down</b> arrow to continue.
</p>
</div>","","","","","","","","","","","","","","","","","","","","","","","","","","","","",""
"html-keyboard-response","24","219392","0.0-24.0","9436.299999952316","arrowdown","","<div id=""continue""> 
<p>Again, please keep the <b>full screen</b> mode for the best experience.</p>
<p>Please do not move around and keep your eye on the black dot. Click <b>up</b> or <b>down</b> key on your keyboard to indicate the opening of the center circle. Make your best guess!</p>
<p>Please press the <b>down</b> arrow key to start the session 1. </p>
</div>","","","","","","","","","","","","","","","","","","","","","","","","","","","","",""
"html-keyboard-response","25","219908","0.0-25.0","null","null","","
    <div style="" display: block;  position: relative;"">
    
    <svg width=1600 height=900>
    <circle cx=737 cy=450 r=16.051246154233176 stroke=""black"" stroke-width=""1"" fill=""black"" />
    <circle cx=651.9910743801652 cy=450 r=22.93035164890454 stroke=""none"" stroke-width=""1.5"" fill=""none"" />
    <circle cx=553.3199999999999 cy=548.6710743801652 r=22.93035164890454 stroke=""none"" stroke-width=""1.5"" fill=""none"" />
    <circle cx=454.64892561983464 cy=450 r=22.93035164890454 stroke=""none"" stroke-width=""1.5"" fill=""none"" />
    <circle cx=553.3199999999999 cy=351.3289256198347 r=22.93035164890454 stroke=""none"" stroke-width=""1.5"" fill=""none"" />
    <polygon points = ""553.3199999999999,450 559.7701932670785,472.93035164890455 546.8698067329213,472.93035164890455"" stroke=""none"" stroke-width=""3"" fill = ""none"" />
    
    </svg>
    </div>
        ","","","","","","","","","","","","","","","","","","","","","","","","","","","","",""
"html-keyboard-response","26","220066","0.0-26.0","null","null","","
    <div style="" display: block;  position: relative;"">
    <svg width=1600 height=900>
    
    <circle cx=737 cy=450 r=16.051246154233176 stroke=""black"" stroke-width=""1"" fill=""black"" />
    <circle cx=553.3199999999999 cy=450 r=22.93035164890454 stroke=""black"" stroke-width=""1.5"" fill=""none"" />
    <circle cx=672.712 cy=450 r=22.93035164890454 stroke=""black"" stroke-width=""1.5"" fill=""none"" />
    <circle cx=553.3199999999999 cy=569.392 r=22.93035164890454 stroke=""black"" stroke-width=""1.5"" fill=""none"" />
    <circle cx=433.92799999999994 cy=450 r=22.93035164890454 stroke=""black"" stroke-width=""1.5"" fill=""none"" />
    <circle cx=553.3199999999999 cy=330.608 r=22.93035164890454 stroke=""black"" stroke-width=""1.5"" fill=""none"" />
    <polygon points = ""553.3199999999999,450 559.7701932670785,472.93035164890455 546.8698067329213,472.93035164890455"" stroke=""white"" stroke-width=""3"" fill = ""white"" />
    
    </svg>
    </div>
        ","","","","","","","","","","","","stimulus","","","","","","","","","","","","","","","","",""
"html-keyboard-response","27","220578","0.0-27.0","508.39999997615814","arrowdown","","
    <div style="" display: block;  position: relative;"">
    
    <svg width=1600 height=900>
    <circle cx=737 cy=450 r=16.051246154233176 stroke=""black"" stroke-width=""1"" fill=""black"" />
    <circle cx=672.712 cy=450 r=22.93035164890454 stroke=""none"" stroke-width=""1.5"" fill=""none"" />
    <circle cx=553.3199999999999 cy=569.392 r=22.93035164890454 stroke=""none"" stroke-width=""1.5"" fill=""none"" />
    <circle cx=433.92799999999994 cy=450 r=22.93035164890454 stroke=""none"" stroke-width=""1.5"" fill=""none"" />
    <circle cx=553.3199999999999 cy=330.608 r=22.93035164890454 stroke=""none"" stroke-width=""1.5"" fill=""none"" />
    <polygon points = ""553.3199999999999,450 559.7701932670785,472.93035164890455 546.8698067329213,472.93035164890455"" stroke=""none"" stroke-width=""3"" fill = ""none"" />
    
    </svg>
    </div>
        ","","","","","","","","","","","","get_response","true","0gNiuF7EVawxfZ79","","","true","false","false","183.68","4","511.79400000000004","119.39200000000001","2.6","1","0","","",""
"html-keyboard-response","28","221097","0.0-28.0","null","null","","
    <div style="" display: block;  position: relative;"">
    
    <svg width=1600 height=900>
    <circle cx=737 cy=450 r=16.051246154233176 stroke=""black"" stroke-width=""1"" fill=""black"" />
    <circle cx=672.712 cy=450 r=22.93035164890454 stroke=""none"" stroke-width=""1.5"" fill=""none"" />
    <circle cx=553.3199999999999 cy=569.392 r=22.93035164890454 stroke=""none"" stroke-width=""1.5"" fill=""none"" />
    <circle cx=433.92799999999994 cy=450 r=22.93035164890454 stroke=""none"" stroke-width=""1.5"" fill=""none"" />
    <circle cx=553.3199999999999 cy=330.608 r=22.93035164890454 stroke=""none"" stroke-width=""1.5"" fill=""none"" />
    <polygon points = ""553.3199999999999,450 559.7701932670785,472.93035164890455 546.8698067329213,472.93035164890455"" stroke=""none"" stroke-width=""3"" fill = ""none"" />
    
    </svg>
    </div>
        ","","","","","","","","","","","","","","","","","","","","","","","","","","","","",""
"html-keyboard-response","29","221264","0.0-29.0","null","null","","
    <div style="" display: block;  position: relative;"">
    <svg width=1600 height=900>
    
    <circle cx=737 cy=450 r=16.051246154233176 stroke=""black"" stroke-width=""1"" fill=""black"" />
    <circle cx=553.3199999999999 cy=450 r=22.93035164890454 stroke=""black"" stroke-width=""1.5"" fill=""none"" />
    <circle cx=672.712 cy=450 r=22.93035164890454 stroke=""black"" stroke-width=""1.5"" fill=""none"" />
    <circle cx=553.3199999999999 cy=569.392 r=22.93035164890454 stroke=""black"" stroke-width=""1.5"" fill=""none"" />
    <circle cx=433.92799999999994 cy=450 r=22.93035164890454 stroke=""black"" stroke-width=""1.5"" fill=""none"" />
    <circle cx=553.3199999999999 cy=330.608 r=22.93035164890454 stroke=""black"" stroke-width=""1.5"" fill=""none"" />
    <polygon points = ""553.3199999999999,450 559.7701932670785,427.06964835109545 546.8698067329213,427.06964835109545"" stroke=""white"" stroke-width=""3"" fill = ""white"" />
    
    </svg>
    </div>
        ","","","","","","","","","","","","stimulus","","","","","","","","","","","","","","","","",""
"html-keyboard-response","30","221969","0.0-30.0","701","arrowup","","
    <div style="" display: block;  position: relative;"">
    
    <svg width=1600 height=900>
    <circle cx=737 cy=450 r=16.051246154233176 stroke=""black"" stroke-width=""1"" fill=""black"" />
    <circle cx=672.712 cy=450 r=22.93035164890454 stroke=""none"" stroke-width=""1.5"" fill=""none"" />
    <circle cx=553.3199999999999 cy=569.392 r=22.93035164890454 stroke=""none"" stroke-width=""1.5"" fill=""none"" />
    <circle cx=433.92799999999994 cy=450 r=22.93035164890454 stroke=""none"" stroke-width=""1.5"" fill=""none"" />
    <circle cx=553.3199999999999 cy=330.608 r=22.93035164890454 stroke=""none"" stroke-width=""1.5"" fill=""none"" />
    <polygon points = ""553.3199999999999,450 559.7701932670785,427.06964835109545 546.8698067329213,427.06964835109545"" stroke=""none"" stroke-width=""3"" fill = ""none"" />
    
    </svg>
    </div>
        ","","","","","","","","","","","","get_response","true","0gNiuF7EVawxfZ79","","","true","true","false","183.68","4","511.79400000000004","119.39200000000001","2.6","1","0","","",""
"html-keyboard-response","31","222476","0.0-31.0","null","null","","
    <div style="" display: block;  position: relative;"">
    
    <svg width=1600 height=900>
    <circle cx=737 cy=450 r=16.051246154233176 stroke=""black"" stroke-width=""1"" fill=""black"" />
    <circle cx=672.712 cy=450 r=22.93035164890454 stroke=""none"" stroke-width=""1.5"" fill=""none"" />
    <circle cx=553.3199999999999 cy=569.392 r=22.93035164890454 stroke=""none"" stroke-width=""1.5"" fill=""none"" />
    <circle cx=433.92799999999994 cy=450 r=22.93035164890454 stroke=""none"" stroke-width=""1.5"" fill=""none"" />
    <circle cx=553.3199999999999 cy=330.608 r=22.93035164890454 stroke=""none"" stroke-width=""1.5"" fill=""none"" />
    <polygon points = ""553.3199999999999,450 559.7701932670785,427.06964835109545 546.8698067329213,427.06964835109545"" stroke=""none"" stroke-width=""3"" fill = ""none"" />
    
    </svg>
    </div>
        ","","","","","","","","","","","","","","","","","","","","","","","","","","","","",""
"html-keyboard-response","32","222633","0.0-32.0","null","null","","
    <div style="" display: block;  position: relative;"">
    <svg width=1600 height=900>
    
    <circle cx=737 cy=450 r=16.051246154233176 stroke=""black"" stroke-width=""1"" fill=""black"" />
    <circle cx=553.3199999999999 cy=450 r=22.93035164890454 stroke=""black"" stroke-width=""1.5"" fill=""none"" />
    <circle cx=672.712 cy=450 r=22.93035164890454 stroke=""black"" stroke-width=""1.5"" fill=""none"" />
    <circle cx=553.3199999999999 cy=569.392 r=22.93035164890454 stroke=""black"" stroke-width=""1.5"" fill=""none"" />
    <circle cx=433.92799999999994 cy=450 r=22.93035164890454 stroke=""black"" stroke-width=""1.5"" fill=""none"" />
    <circle cx=553.3199999999999 cy=330.608 r=22.93035164890454 stroke=""black"" stroke-width=""1.5"" fill=""none"" />
    <polygon points = ""553.3199999999999,450 559.7701932670785,472.93035164890455 546.8698067329213,472.93035164890455"" stroke=""white"" stroke-width=""3"" fill = ""white"" />
    
    </svg>
    </div>
        ","","","","","","","","","","","","stimulus","","","","","","","","","","","","","","","","",""
"html-keyboard-response","33","223251","0.0-33.0","614.1000000238419","arrowdown","","
    <div style="" display: block;  position: relative;"">
    
    <svg width=1600 height=900>
    <circle cx=737 cy=450 r=16.051246154233176 stroke=""black"" stroke-width=""1"" fill=""black"" />
    <circle cx=672.712 cy=450 r=22.93035164890454 stroke=""none"" stroke-width=""1.5"" fill=""none"" />
    <circle cx=553.3199999999999 cy=569.392 r=22.93035164890454 stroke=""none"" stroke-width=""1.5"" fill=""none"" />
    <circle cx=433.92799999999994 cy=450 r=22.93035164890454 stroke=""none"" stroke-width=""1.5"" fill=""none"" />
    <circle cx=553.3199999999999 cy=330.608 r=22.93035164890454 stroke=""none"" stroke-width=""1.5"" fill=""none"" />
    <polygon points = ""553.3199999999999,450 559.7701932670785,472.93035164890455 546.8698067329213,472.93035164890455"" stroke=""none"" stroke-width=""3"" fill = ""none"" />
    
    </svg>
    </div>
        ","","","","","","","","","","","","get_response","true","0gNiuF7EVawxfZ79","","","true","false","false","183.68","4","511.79400000000004","119.39200000000001","2.6","1","0","","",""
"html-keyboard-response","34","223763","0.0-34.0","null","null","","
    <div style="" display: block;  position: relative;"">
    
    <svg width=1600 height=900>
    <circle cx=737 cy=450 r=16.051246154233176 stroke=""black"" stroke-width=""1"" fill=""black"" />
    <circle cx=672.712 cy=450 r=22.93035164890454 stroke=""none"" stroke-width=""1.5"" fill=""none"" />
    <circle cx=553.3199999999999 cy=569.392 r=22.93035164890454 stroke=""none"" stroke-width=""1.5"" fill=""none"" />
    <circle cx=433.92799999999994 cy=450 r=22.93035164890454 stroke=""none"" stroke-width=""1.5"" fill=""none"" />
    <circle cx=553.3199999999999 cy=330.608 r=22.93035164890454 stroke=""none"" stroke-width=""1.5"" fill=""none"" />
    <polygon points = ""553.3199999999999,450 559.7701932670785,472.93035164890455 546.8698067329213,472.93035164890455"" stroke=""none"" stroke-width=""3"" fill = ""none"" />
    
    </svg>
    </div>
        ","","","","","","","","","","","","","","","","","","","","","","","","","","","","",""
"html-keyboard-response","35","223929","0.0-35.0","null","null","","
    <div style="" display: block;  position: relative;"">
    <svg width=1600 height=900>
    
    <circle cx=737 cy=450 r=16.051246154233176 stroke=""black"" stroke-width=""1"" fill=""black"" />
    <circle cx=553.3199999999999 cy=450 r=22.93035164890454 stroke=""black"" stroke-width=""1.5"" fill=""none"" />
    <circle cx=661.8581818181817 cy=450 r=22.93035164890454 stroke=""black"" stroke-width=""1.5"" fill=""none"" />
    <circle cx=553.3199999999999 cy=558.5381818181818 r=22.93035164890454 stroke=""black"" stroke-width=""1.5"" fill=""none"" />
    <circle cx=444.78181818181815 cy=450 r=22.93035164890454 stroke=""black"" stroke-width=""1.5"" fill=""none"" />
    <circle cx=553.3199999999999 cy=341.4618181818182 r=22.93035164890454 stroke=""black"" stroke-width=""1.5"" fill=""none"" />
    <polygon points = ""553.3199999999999,450 559.7701932670785,472.93035164890455 546.8698067329213,472.93035164890455"" stroke=""white"" stroke-width=""3"" fill = ""white"" />
    
    </svg>
    </div>
        ","","","","","","","","","","","","stimulus","","","","","","","","","","","","","","","","",""
"html-keyboard-response","36","224324","0.0-36.0","392.5","arrowdown","","
    <div style="" display: block;  position: relative;"">
    
    <svg width=1600 height=900>
    <circle cx=737 cy=450 r=16.051246154233176 stroke=""black"" stroke-width=""1"" fill=""black"" />
    <circle cx=661.8581818181817 cy=450 r=22.93035164890454 stroke=""none"" stroke-width=""1.5"" fill=""none"" />
    <circle cx=553.3199999999999 cy=558.5381818181818 r=22.93035164890454 stroke=""none"" stroke-width=""1.5"" fill=""none"" />
    <circle cx=444.78181818181815 cy=450 r=22.93035164890454 stroke=""none"" stroke-width=""1.5"" fill=""none"" />
    <circle cx=553.3199999999999 cy=341.4618181818182 r=22.93035164890454 stroke=""none"" stroke-width=""1.5"" fill=""none"" />
    <polygon points = ""553.3199999999999,450 559.7701932670785,472.93035164890455 546.8698067329213,472.93035164890455"" stroke=""none"" stroke-width=""3"" fill = ""none"" />
    
    </svg>
    </div>
        ","","","","","","","","","","","","get_response","true","0gNiuF7EVawxfZ79","","","true","false","false","183.68","4","511.79400000000004","108.53818181818181","2.36","1","0","","",""
"html-keyboard-response","37","224838","0.0-37.0","null","null","","
    <div style="" display: block;  position: relative;"">
    
    <svg width=1600 height=900>
    <circle cx=737 cy=450 r=16.051246154233176 stroke=""black"" stroke-width=""1"" fill=""black"" />
    <circle cx=661.8581818181817 cy=450 r=22.93035164890454 stroke=""none"" stroke-width=""1.5"" fill=""none"" />
    <circle cx=553.3199999999999 cy=558.5381818181818 r=22.93035164890454 stroke=""none"" stroke-width=""1.5"" fill=""none"" />
    <circle cx=444.78181818181815 cy=450 r=22.93035164890454 stroke=""none"" stroke-width=""1.5"" fill=""none"" />
    <circle cx=553.3199999999999 cy=341.4618181818182 r=22.93035164890454 stroke=""none"" stroke-width=""1.5"" fill=""none"" />
    <polygon points = ""553.3199999999999,450 559.7701932670785,472.93035164890455 546.8698067329213,472.93035164890455"" stroke=""none"" stroke-width=""3"" fill = ""none"" />
    
    </svg>
    </div>
        ","","","","","","","","","","","","","","","","","","","","","","","","","","","","",""
"html-keyboard-response","38","224996","0.0-38.0","null","null","","
    <div style="" display: block;  position: relative;"">
    <svg width=1600 height=900>
    
    <circle cx=737 cy=450 r=16.051246154233176 stroke=""black"" stroke-width=""1"" fill=""black"" />
    <circle cx=920.6800000000001 cy=450 r=22.93035164890454 stroke=""black"" stroke-width=""1.5"" fill=""none"" />
    <circle cx=1019.3510743801653 cy=450 r=22.93035164890454 stroke=""black"" stroke-width=""1.5"" fill=""none"" />
    <circle cx=920.6800000000001 cy=548.6710743801652 r=22.93035164890454 stroke=""black"" stroke-width=""1.5"" fill=""none"" />
    <circle cx=822.0089256198348 cy=450 r=22.93035164890454 stroke=""black"" stroke-width=""1.5"" fill=""none"" />
    <circle cx=920.6800000000001 cy=351.3289256198347 r=22.93035164890454 stroke=""black"" stroke-width=""1.5"" fill=""none"" />
    <polygon points = ""920.6800000000001,450 927.1301932670787,427.06964835109545 914.2298067329215,427.06964835109545"" stroke=""white"" stroke-width=""3"" fill = ""white"" />
    
    </svg>
    </div>
        ","","","","","","","","","","","","stimulus","","","","","","","","","","","","","","","","",""
"html-keyboard-response","39","226439","0.0-39.0","1441.2000000476837","arrowdown","","
    <div style="" display: block;  position: relative;"">
    
    <svg width=1600 height=900>
    <circle cx=737 cy=450 r=16.051246154233176 stroke=""black"" stroke-width=""1"" fill=""black"" />
    <circle cx=1019.3510743801653 cy=450 r=22.93035164890454 stroke=""none"" stroke-width=""1.5"" fill=""none"" />
    <circle cx=920.6800000000001 cy=548.6710743801652 r=22.93035164890454 stroke=""none"" stroke-width=""1.5"" fill=""none"" />
    <circle cx=822.0089256198348 cy=450 r=22.93035164890454 stroke=""none"" stroke-width=""1.5"" fill=""none"" />
    <circle cx=920.6800000000001 cy=351.3289256198347 r=22.93035164890454 stroke=""none"" stroke-width=""1.5"" fill=""none"" />
    <polygon points = ""920.6800000000001,450 927.1301932670787,427.06964835109545 914.2298067329215,427.06964835109545"" stroke=""none"" stroke-width=""3"" fill = ""none"" />
    
    </svg>
    </div>
        ","","","","","","","","","","","","get_response","false","0gNiuF7EVawxfZ79","","","false","true","false","183.68","4","511.79400000000004","98.67107438016528","2.15","1","0","","",""
"html-keyboard-response","40","226950","0.0-40.0","null","null","","
    <div style="" display: block;  position: relative;"">
    
    <svg width=1600 height=900>
    <circle cx=737 cy=450 r=16.051246154233176 stroke=""black"" stroke-width=""1"" fill=""black"" />
    <circle cx=1019.3510743801653 cy=450 r=22.93035164890454 stroke=""none"" stroke-width=""1.5"" fill=""none"" />
    <circle cx=920.6800000000001 cy=548.6710743801652 r=22.93035164890454 stroke=""none"" stroke-width=""1.5"" fill=""none"" />
    <circle cx=822.0089256198348 cy=450 r=22.93035164890454 stroke=""none"" stroke-width=""1.5"" fill=""none"" />
    <circle cx=920.6800000000001 cy=351.3289256198347 r=22.93035164890454 stroke=""none"" stroke-width=""1.5"" fill=""none"" />
    <polygon points = ""920.6800000000001,450 927.1301932670787,427.06964835109545 914.2298067329215,427.06964835109545"" stroke=""none"" stroke-width=""3"" fill = ""none"" />
    
    </svg>
    </div>
        ","","","","","","","","","","","","","","","","","","","","","","","","","","","","",""
"html-keyboard-response","41","227164","0.0-41.0","null","null","","
    <div style="" display: block;  position: relative;"">
    <svg width=1600 height=900>
    
    <circle cx=737 cy=450 r=16.051246154233176 stroke=""black"" stroke-width=""1"" fill=""black"" />
    <circle cx=553.3199999999999 cy=450 r=22.93035164890454 stroke=""black"" stroke-width=""1.5"" fill=""none"" />
    <circle cx=681.5923966942148 cy=450 r=22.93035164890454 stroke=""black"" stroke-width=""1.5"" fill=""none"" />
    <circle cx=553.3199999999999 cy=578.2723966942149 r=22.93035164890454 stroke=""black"" stroke-width=""1.5"" fill=""none"" />
    <circle cx=425.04760330578506 cy=450 r=22.93035164890454 stroke=""black"" stroke-width=""1.5"" fill=""none"" />
    <circle cx=553.3199999999999 cy=321.7276033057851 r=22.93035164890454 stroke=""black"" stroke-width=""1.5"" fill=""none"" />
    <polygon points = ""553.3199999999999,450 559.7701932670785,427.06964835109545 546.8698067329213,427.06964835109545"" stroke=""white"" stroke-width=""3"" fill = ""white"" />
    
    </svg>
    </div>
        ","","","","","","","","","","","","stimulus","","","","","","","","","","","","","","","","",""
"html-keyboard-response","42","227556","0.0-42.0","389.6999999284744","arrowup","","
    <div style="" display: block;  position: relative;"">
    
    <svg width=1600 height=900>
    <circle cx=737 cy=450 r=16.051246154233176 stroke=""black"" stroke-width=""1"" fill=""black"" />
    <circle cx=681.5923966942148 cy=450 r=22.93035164890454 stroke=""none"" stroke-width=""1.5"" fill=""none"" />
    <circle cx=553.3199999999999 cy=578.2723966942149 r=22.93035164890454 stroke=""none"" stroke-width=""1.5"" fill=""none"" />
    <circle cx=425.04760330578506 cy=450 r=22.93035164890454 stroke=""none"" stroke-width=""1.5"" fill=""none"" />
    <circle cx=553.3199999999999 cy=321.7276033057851 r=22.93035164890454 stroke=""none"" stroke-width=""1.5"" fill=""none"" />
    <polygon points = ""553.3199999999999,450 559.7701932670785,427.06964835109545 546.8698067329213,427.06964835109545"" stroke=""none"" stroke-width=""3"" fill = ""none"" />
    
    </svg>
    </div>
        ","","","","","","","","","","","","get_response","true","0gNiuF7EVawxfZ79","","","true","true","false","183.68","4","511.79400000000004","128.27239669421488","2.79","1","0","","",""
"html-keyboard-response","43","228071","0.0-43.0","null","null","","
    <div style="" display: block;  position: relative;"">
    
    <svg width=1600 height=900>
    <circle cx=737 cy=450 r=16.051246154233176 stroke=""black"" stroke-width=""1"" fill=""black"" />
    <circle cx=681.5923966942148 cy=450 r=22.93035164890454 stroke=""none"" stroke-width=""1.5"" fill=""none"" />
    <circle cx=553.3199999999999 cy=578.2723966942149 r=22.93035164890454 stroke=""none"" stroke-width=""1.5"" fill=""none"" />
    <circle cx=425.04760330578506 cy=450 r=22.93035164890454 stroke=""none"" stroke-width=""1.5"" fill=""none"" />
    <circle cx=553.3199999999999 cy=321.7276033057851 r=22.93035164890454 stroke=""none"" stroke-width=""1.5"" fill=""none"" />
    <polygon points = ""553.3199999999999,450 559.7701932670785,427.06964835109545 546.8698067329213,427.06964835109545"" stroke=""none"" stroke-width=""3"" fill = ""none"" />
    
    </svg>
    </div>
        ","","","","","","","","","","","","","","","","","","","","","","","","","","","","",""
"html-keyboard-response","44","228230","0.0-44.0","null","null","","
    <div style="" display: block;  position: relative;"">
    <svg width=1600 height=900>
    
    <circle cx=737 cy=450 r=16.051246154233176 stroke=""black"" stroke-width=""1"" fill=""black"" />
    <circle cx=920.6800000000001 cy=450 r=22.93035164890454 stroke=""black"" stroke-width=""1.5"" fill=""none"" />
    <circle cx=1048.952396694215 cy=450 r=22.93035164890454 stroke=""black"" stroke-width=""1.5"" fill=""none"" />
    <circle cx=920.6800000000001 cy=578.2723966942149 r=22.93035164890454 stroke=""black"" stroke-width=""1.5"" fill=""none"" />
    <circle cx=792.4076033057852 cy=450 r=22.93035164890454 stroke=""black"" stroke-width=""1.5"" fill=""none"" />
    <circle cx=920.6800000000001 cy=321.7276033057851 r=22.93035164890454 stroke=""black"" stroke-width=""1.5"" fill=""none"" />
    <polygon points = ""920.6800000000001,450 927.1301932670787,427.06964835109545 914.2298067329215,427.06964835109545"" stroke=""white"" stroke-width=""3"" fill = ""white"" />
    
    </svg>
    </div>
        ","","","","","","","","","","","","stimulus","","","","","","","","","","","","","","","","",""
"html-keyboard-response","45","228644","0.0-45.0","410.10000002384186","arrowup","","
    <div style="" display: block;  position: relative;"">
    
    <svg width=1600 height=900>
    <circle cx=737 cy=450 r=16.051246154233176 stroke=""black"" stroke-width=""1"" fill=""black"" />
    <circle cx=1048.952396694215 cy=450 r=22.93035164890454 stroke=""none"" stroke-width=""1.5"" fill=""none"" />
    <circle cx=920.6800000000001 cy=578.2723966942149 r=22.93035164890454 stroke=""none"" stroke-width=""1.5"" fill=""none"" />
    <circle cx=792.4076033057852 cy=450 r=22.93035164890454 stroke=""none"" stroke-width=""1.5"" fill=""none"" />
    <circle cx=920.6800000000001 cy=321.7276033057851 r=22.93035164890454 stroke=""none"" stroke-width=""1.5"" fill=""none"" />
    <polygon points = ""920.6800000000001,450 927.1301932670787,427.06964835109545 914.2298067329215,427.06964835109545"" stroke=""none"" stroke-width=""3"" fill = ""none"" />
    
    </svg>
    </div>
        ","","","","","","","","","","","","get_response","true","0gNiuF7EVawxfZ79","","","false","true","false","183.68","4","511.79400000000004","128.27239669421488","2.79","1","0","","",""
"html-keyboard-response","46","229155","0.0-46.0","null","null","","
    <div style="" display: block;  position: relative;"">
    
    <svg width=1600 height=900>
    <circle cx=737 cy=450 r=16.051246154233176 stroke=""black"" stroke-width=""1"" fill=""black"" />
    <circle cx=1048.952396694215 cy=450 r=22.93035164890454 stroke=""none"" stroke-width=""1.5"" fill=""none"" />
    <circle cx=920.6800000000001 cy=578.2723966942149 r=22.93035164890454 stroke=""none"" stroke-width=""1.5"" fill=""none"" />
    <circle cx=792.4076033057852 cy=450 r=22.93035164890454 stroke=""none"" stroke-width=""1.5"" fill=""none"" />
    <circle cx=920.6800000000001 cy=321.7276033057851 r=22.93035164890454 stroke=""none"" stroke-width=""1.5"" fill=""none"" />
    <polygon points = ""920.6800000000001,450 927.1301932670787,427.06964835109545 914.2298067329215,427.06964835109545"" stroke=""none"" stroke-width=""3"" fill = ""none"" />
    
    </svg>
    </div>
        ","","","","","","","","","","","","","","","","","","","","","","","","","","","","",""
"html-keyboard-response","47","229314","0.0-47.0","null","null","","
    <div style="" display: block;  position: relative;"">
    <svg width=1600 height=900>
    
    <circle cx=737 cy=450 r=16.051246154233176 stroke=""black"" stroke-width=""1"" fill=""black"" />
    <circle cx=920.6800000000001 cy=450 r=22.93035164890454 stroke=""black"" stroke-width=""1.5"" fill=""none"" />
    <circle cx=1048.952396694215 cy=450 r=22.93035164890454 stroke=""black"" stroke-width=""1.5"" fill=""none"" />
    <circle cx=920.6800000000001 cy=578.2723966942149 r=22.93035164890454 stroke=""black"" stroke-width=""1.5"" fill=""none"" />
    <circle cx=792.4076033057852 cy=450 r=22.93035164890454 stroke=""black"" stroke-width=""1.5"" fill=""none"" />
    <circle cx=920.6800000000001 cy=321.7276033057851 r=22.93035164890454 stroke=""black"" stroke-width=""1.5"" fill=""none"" />
    <polygon points = ""920.6800000000001,450 927.1301932670787,472.93035164890455 914.2298067329215,472.93035164890455"" stroke=""white"" stroke-width=""3"" fill = ""white"" />
    
    </svg>
    </div>
        ","","","","","","","","","","","","stimulus","","","","","","","","","","","","","","","","",""
"html-keyboard-response","48","229787","0.0-48.0","468.3000000715256","arrowdown","","
    <div style="" display: block;  position: relative;"">
    
    <svg width=1600 height=900>
    <circle cx=737 cy=450 r=16.051246154233176 stroke=""black"" stroke-width=""1"" fill=""black"" />
    <circle cx=1048.952396694215 cy=450 r=22.93035164890454 stroke=""none"" stroke-width=""1.5"" fill=""none"" />
    <circle cx=920.6800000000001 cy=578.2723966942149 r=22.93035164890454 stroke=""none"" stroke-width=""1.5"" fill=""none"" />
    <circle cx=792.4076033057852 cy=450 r=22.93035164890454 stroke=""none"" stroke-width=""1.5"" fill=""none"" />
    <circle cx=920.6800000000001 cy=321.7276033057851 r=22.93035164890454 stroke=""none"" stroke-width=""1.5"" fill=""none"" />
    <polygon points = ""920.6800000000001,450 927.1301932670787,472.93035164890455 914.2298067329215,472.93035164890455"" stroke=""none"" stroke-width=""3"" fill = ""none"" />
    
    </svg>
    </div>
        ","","","","","","","","","","","","get_response","true","0gNiuF7EVawxfZ79","","","false","false","false","183.68","4","511.79400000000004","128.27239669421488","2.79","1","0","","",""
"html-keyboard-response","49","230304","0.0-49.0","null","null","","
    <div style="" display: block;  position: relative;"">
    
    <svg width=1600 height=900>
    <circle cx=737 cy=450 r=16.051246154233176 stroke=""black"" stroke-width=""1"" fill=""black"" />
    <circle cx=1048.952396694215 cy=450 r=22.93035164890454 stroke=""none"" stroke-width=""1.5"" fill=""none"" />
    <circle cx=920.6800000000001 cy=578.2723966942149 r=22.93035164890454 stroke=""none"" stroke-width=""1.5"" fill=""none"" />
    <circle cx=792.4076033057852 cy=450 r=22.93035164890454 stroke=""none"" stroke-width=""1.5"" fill=""none"" />
    <circle cx=920.6800000000001 cy=321.7276033057851 r=22.93035164890454 stroke=""none"" stroke-width=""1.5"" fill=""none"" />
    <polygon points = ""920.6800000000001,450 927.1301932670787,472.93035164890455 914.2298067329215,472.93035164890455"" stroke=""none"" stroke-width=""3"" fill = ""none"" />
    
    </svg>
    </div>
        ","","","","","","","","","","","","","","","","","","","","","","","","","","","","",""
"html-keyboard-response","50","230461","0.0-50.0","null","null","","
    <div style="" display: block;  position: relative;"">
    <svg width=1600 height=900>
    
    <circle cx=737 cy=450 r=16.051246154233176 stroke=""black"" stroke-width=""1"" fill=""black"" />
    <circle cx=553.3199999999999 cy=450 r=22.93035164890454 stroke=""black"" stroke-width=""1.5"" fill=""none"" />
    <circle cx=669.9312697220134 cy=450 r=22.93035164890454 stroke=""black"" stroke-width=""1.5"" fill=""none"" />
    <circle cx=553.3199999999999 cy=566.6112697220135 r=22.93035164890454 stroke=""black"" stroke-width=""1.5"" fill=""none"" />
    <circle cx=436.70873027798643 cy=450 r=22.93035164890454 stroke=""black"" stroke-width=""1.5"" fill=""none"" />
    <circle cx=553.3199999999999 cy=333.3887302779865 r=22.93035164890454 stroke=""black"" stroke-width=""1.5"" fill=""none"" />
    <polygon points = ""553.3199999999999,450 559.7701932670785,472.93035164890455 546.8698067329213,472.93035164890455"" stroke=""white"" stroke-width=""3"" fill = ""white"" />
    
    </svg>
    </div>
        ","","","","","","","","","","","","stimulus","","","","","","","","","","","","","","","","",""
"html-keyboard-response","51","231298","0.0-51.0","834.3000000715256","arrowdown","","
    <div style="" display: block;  position: relative;"">
    
    <svg width=1600 height=900>
    <circle cx=737 cy=450 r=16.051246154233176 stroke=""black"" stroke-width=""1"" fill=""black"" />
    <circle cx=669.9312697220134 cy=450 r=22.93035164890454 stroke=""none"" stroke-width=""1.5"" fill=""none"" />
    <circle cx=553.3199999999999 cy=566.6112697220135 r=22.93035164890454 stroke=""none"" stroke-width=""1.5"" fill=""none"" />
    <circle cx=436.70873027798643 cy=450 r=22.93035164890454 stroke=""none"" stroke-width=""1.5"" fill=""none"" />
    <circle cx=553.3199999999999 cy=333.3887302779865 r=22.93035164890454 stroke=""none"" stroke-width=""1.5"" fill=""none"" />
    <polygon points = ""553.3199999999999,450 559.7701932670785,472.93035164890455 546.8698067329213,472.93035164890455"" stroke=""none"" stroke-width=""3"" fill = ""none"" />
    
    </svg>
    </div>
        ","","","","","","","","","","","","get_response","true","0gNiuF7EVawxfZ79","","","true","false","false","183.68","4","511.79400000000004","116.61126972201352","2.54","1","0","","",""
"html-keyboard-response","52","231812","0.0-52.0","null","null","","
    <div style="" display: block;  position: relative;"">
    
    <svg width=1600 height=900>
    <circle cx=737 cy=450 r=16.051246154233176 stroke=""black"" stroke-width=""1"" fill=""black"" />
    <circle cx=669.9312697220134 cy=450 r=22.93035164890454 stroke=""none"" stroke-width=""1.5"" fill=""none"" />
    <circle cx=553.3199999999999 cy=566.6112697220135 r=22.93035164890454 stroke=""none"" stroke-width=""1.5"" fill=""none"" />
    <circle cx=436.70873027798643 cy=450 r=22.93035164890454 stroke=""none"" stroke-width=""1.5"" fill=""none"" />
    <circle cx=553.3199999999999 cy=333.3887302779865 r=22.93035164890454 stroke=""none"" stroke-width=""1.5"" fill=""none"" />
    <polygon points = ""553.3199999999999,450 559.7701932670785,472.93035164890455 546.8698067329213,472.93035164890455"" stroke=""none"" stroke-width=""3"" fill = ""none"" />
    
    </svg>
    </div>
        ","","","","","","","","","","","","","","","","","","","","","","","","","","","","",""
"html-keyboard-response","53","231980","0.0-53.0","null","null","","
    <div style="" display: block;  position: relative;"">
    <svg width=1600 height=900>
    
    <circle cx=737 cy=450 r=16.051246154233176 stroke=""black"" stroke-width=""1"" fill=""black"" />
    <circle cx=553.3199999999999 cy=450 r=22.93035164890454 stroke=""black"" stroke-width=""1.5"" fill=""none"" />
    <circle cx=659.3302452018304 cy=450 r=22.93035164890454 stroke=""black"" stroke-width=""1.5"" fill=""none"" />
    <circle cx=553.3199999999999 cy=556.0102452018305 r=22.93035164890454 stroke=""black"" stroke-width=""1.5"" fill=""none"" />
    <circle cx=447.3097547981695 cy=450 r=22.93035164890454 stroke=""black"" stroke-width=""1.5"" fill=""none"" />
    <circle cx=553.3199999999999 cy=343.98975479816954 r=22.93035164890454 stroke=""black"" stroke-width=""1.5"" fill=""none"" />
    <polygon points = ""553.3199999999999,450 559.7701932670785,472.93035164890455 546.8698067329213,472.93035164890455"" stroke=""white"" stroke-width=""3"" fill = ""white"" />
    
    </svg>
    </div>
        ","","","","","","","","","","","","stimulus","","","","","","","","","","","","","","","","",""
"html-keyboard-response","54","232394","0.0-54.0","410.6999999284744","arrowdown","","
    <div style="" display: block;  position: relative;"">
    
    <svg width=1600 height=900>
    <circle cx=737 cy=450 r=16.051246154233176 stroke=""black"" stroke-width=""1"" fill=""black"" />
    <circle cx=659.3302452018304 cy=450 r=22.93035164890454 stroke=""none"" stroke-width=""1.5"" fill=""none"" />
    <circle cx=553.3199999999999 cy=556.0102452018305 r=22.93035164890454 stroke=""none"" stroke-width=""1.5"" fill=""none"" />
    <circle cx=447.3097547981695 cy=450 r=22.93035164890454 stroke=""none"" stroke-width=""1.5"" fill=""none"" />
    <circle cx=553.3199999999999 cy=343.98975479816954 r=22.93035164890454 stroke=""none"" stroke-width=""1.5"" fill=""none"" />
    <polygon points = ""553.3199999999999,450 559.7701932670785,472.93035164890455 546.8698067329213,472.93035164890455"" stroke=""none"" stroke-width=""3"" fill = ""none"" />
    
    </svg>
    </div>
        ","","","","","","","","","","","","get_response","true","0gNiuF7EVawxfZ79","","","true","false","false","183.68","4","511.79400000000004","106.01024520183046","2.31","1","0","","",""
"html-keyboard-response","55","232904","0.0-55.0","null","null","","
    <div style="" display: block;  position: relative;"">
    
    <svg width=1600 height=900>
    <circle cx=737 cy=450 r=16.051246154233176 stroke=""black"" stroke-width=""1"" fill=""black"" />
    <circle cx=659.3302452018304 cy=450 r=22.93035164890454 stroke=""none"" stroke-width=""1.5"" fill=""none"" />
    <circle cx=553.3199999999999 cy=556.0102452018305 r=22.93035164890454 stroke=""none"" stroke-width=""1.5"" fill=""none"" />
    <circle cx=447.3097547981695 cy=450 r=22.93035164890454 stroke=""none"" stroke-width=""1.5"" fill=""none"" />
    <circle cx=553.3199999999999 cy=343.98975479816954 r=22.93035164890454 stroke=""none"" stroke-width=""1.5"" fill=""none"" />
    <polygon points = ""553.3199999999999,450 559.7701932670785,472.93035164890455 546.8698067329213,472.93035164890455"" stroke=""none"" stroke-width=""3"" fill = ""none"" />
    
    </svg>
    </div>
        ","","","","","","","","","","","","","","","","","","","","","","","","","","","","",""
"html-keyboard-response","56","233062","0.0-56.0","null","null","","
    <div style="" display: block;  position: relative;"">
    <svg width=1600 height=900>
    
    <circle cx=737 cy=450 r=16.051246154233176 stroke=""black"" stroke-width=""1"" fill=""black"" />
    <circle cx=920.6800000000001 cy=450 r=22.93035164890454 stroke=""black"" stroke-width=""1.5"" fill=""none"" />
    <circle cx=1017.0529501834823 cy=450 r=22.93035164890454 stroke=""black"" stroke-width=""1.5"" fill=""none"" />
    <circle cx=920.6800000000001 cy=546.3729501834822 r=22.93035164890454 stroke=""black"" stroke-width=""1.5"" fill=""none"" />
    <circle cx=824.3070498165179 cy=450 r=22.93035164890454 stroke=""black"" stroke-width=""1.5"" fill=""none"" />
    <circle cx=920.6800000000001 cy=353.6270498165178 r=22.93035164890454 stroke=""black"" stroke-width=""1.5"" fill=""none"" />
    <polygon points = ""920.6800000000001,450 927.1301932670787,427.06964835109545 914.2298067329215,427.06964835109545"" stroke=""white"" stroke-width=""3"" fill = ""white"" />
    
    </svg>
    </div>
        ","","","","","","","","","","","","stimulus","","","","","","","","","","","","","","","","",""
"html-keyboard-response","57","234031","0.0-57.0","966","arrowdown","","
    <div style="" display: block;  position: relative;"">
    
    <svg width=1600 height=900>
    <circle cx=737 cy=450 r=16.051246154233176 stroke=""black"" stroke-width=""1"" fill=""black"" />
    <circle cx=1017.0529501834823 cy=450 r=22.93035164890454 stroke=""none"" stroke-width=""1.5"" fill=""none"" />
    <circle cx=920.6800000000001 cy=546.3729501834822 r=22.93035164890454 stroke=""none"" stroke-width=""1.5"" fill=""none"" />
    <circle cx=824.3070498165179 cy=450 r=22.93035164890454 stroke=""none"" stroke-width=""1.5"" fill=""none"" />
    <circle cx=920.6800000000001 cy=353.6270498165178 r=22.93035164890454 stroke=""none"" stroke-width=""1.5"" fill=""none"" />
    <polygon points = ""920.6800000000001,450 927.1301932670787,427.06964835109545 914.2298067329215,427.06964835109545"" stroke=""none"" stroke-width=""3"" fill = ""none"" />
    
    </svg>
    </div>
        ","","","","","","","","","","","","get_response","false","0gNiuF7EVawxfZ79","","","false","true","false","183.68","4","511.79400000000004","96.37295018348223","2.1","1","0","","",""
"html-keyboard-response","58","234537","0.0-58.0","null","null","","
    <div style="" display: block;  position: relative;"">
    
    <svg width=1600 height=900>
    <circle cx=737 cy=450 r=16.051246154233176 stroke=""black"" stroke-width=""1"" fill=""black"" />
    <circle cx=1017.0529501834823 cy=450 r=22.93035164890454 stroke=""none"" stroke-width=""1.5"" fill=""none"" />
    <circle cx=920.6800000000001 cy=546.3729501834822 r=22.93035164890454 stroke=""none"" stroke-width=""1.5"" fill=""none"" />
    <circle cx=824.3070498165179 cy=450 r=22.93035164890454 stroke=""none"" stroke-width=""1.5"" fill=""none"" />
    <circle cx=920.6800000000001 cy=353.6270498165178 r=22.93035164890454 stroke=""none"" stroke-width=""1.5"" fill=""none"" />
    <polygon points = ""920.6800000000001,450 927.1301932670787,427.06964835109545 914.2298067329215,427.06964835109545"" stroke=""none"" stroke-width=""3"" fill = ""none"" />
    
    </svg>
    </div>
        ","","","","","","","","","","","","","","","","","","","","","","","","","","","","",""
"html-keyboard-response","59","234695","0.0-59.0","null","null","","
    <div style="" display: block;  position: relative;"">
    <svg width=1600 height=900>
    
    <circle cx=737 cy=450 r=16.051246154233176 stroke=""black"" stroke-width=""1"" fill=""black"" />
    <circle cx=920.6800000000001 cy=450 r=22.93035164890454 stroke=""black"" stroke-width=""1.5"" fill=""none"" />
    <circle cx=1045.964835238527 cy=450 r=22.93035164890454 stroke=""black"" stroke-width=""1.5"" fill=""none"" />
    <circle cx=920.6800000000001 cy=575.284835238527 r=22.93035164890454 stroke=""black"" stroke-width=""1.5"" fill=""none"" />
    <circle cx=795.3951647614731 cy=450 r=22.93035164890454 stroke=""black"" stroke-width=""1.5"" fill=""none"" />
    <circle cx=920.6800000000001 cy=324.7151647614731 r=22.93035164890454 stroke=""black"" stroke-width=""1.5"" fill=""none"" />
    <polygon points = ""920.6800000000001,450 927.1301932670787,427.06964835109545 914.2298067329215,427.06964835109545"" stroke=""white"" stroke-width=""3"" fill = ""white"" />
    
    </svg>
    </div>
        ","","","","","","","","","","","","stimulus","","","","","","","","","","","","","","","","",""
"html-keyboard-response","60","235124","0.0-60.0","425.1999999284744","arrowup","","
    <div style="" display: block;  position: relative;"">
    
    <svg width=1600 height=900>
    <circle cx=737 cy=450 r=16.051246154233176 stroke=""black"" stroke-width=""1"" fill=""black"" />
    <circle cx=1045.964835238527 cy=450 r=22.93035164890454 stroke=""none"" stroke-width=""1.5"" fill=""none"" />
    <circle cx=920.6800000000001 cy=575.284835238527 r=22.93035164890454 stroke=""none"" stroke-width=""1.5"" fill=""none"" />
    <circle cx=795.3951647614731 cy=450 r=22.93035164890454 stroke=""none"" stroke-width=""1.5"" fill=""none"" />
    <circle cx=920.6800000000001 cy=324.7151647614731 r=22.93035164890454 stroke=""none"" stroke-width=""1.5"" fill=""none"" />
    <polygon points = ""920.6800000000001,450 927.1301932670787,427.06964835109545 914.2298067329215,427.06964835109545"" stroke=""none"" stroke-width=""3"" fill = ""none"" />
    
    </svg>
    </div>
        ","","","","","","","","","","","","get_response","true","0gNiuF7EVawxfZ79","","","false","true","false","183.68","4","511.79400000000004","125.28483523852691","2.73","1","0","","",""
"html-keyboard-response","61","235637","0.0-61.0","null","null","","
    <div style="" display: block;  position: relative;"">
    
    <svg width=1600 height=900>
    <circle cx=737 cy=450 r=16.051246154233176 stroke=""black"" stroke-width=""1"" fill=""black"" />
    <circle cx=1045.964835238527 cy=450 r=22.93035164890454 stroke=""none"" stroke-width=""1.5"" fill=""none"" />
    <circle cx=920.6800000000001 cy=575.284835238527 r=22.93035164890454 stroke=""none"" stroke-width=""1.5"" fill=""none"" />
    <circle cx=795.3951647614731 cy=450 r=22.93035164890454 stroke=""none"" stroke-width=""1.5"" fill=""none"" />
    <circle cx=920.6800000000001 cy=324.7151647614731 r=22.93035164890454 stroke=""none"" stroke-width=""1.5"" fill=""none"" />
    <polygon points = ""920.6800000000001,450 927.1301932670787,427.06964835109545 914.2298067329215,427.06964835109545"" stroke=""none"" stroke-width=""3"" fill = ""none"" />
    
    </svg>
    </div>
        ","","","","","","","","","","","","","","","","","","","","","","","","","","","","",""
"html-keyboard-response","62","235795","0.0-62.0","null","null","","
    <div style="" display: block;  position: relative;"">
    <svg width=1600 height=900>
    
    <circle cx=737 cy=450 r=16.051246154233176 stroke=""black"" stroke-width=""1"" fill=""black"" />
    <circle cx=920.6800000000001 cy=450 r=22.93035164890454 stroke=""black"" stroke-width=""1.5"" fill=""none"" />
    <circle cx=1045.964835238527 cy=450 r=22.93035164890454 stroke=""black"" stroke-width=""1.5"" fill=""none"" />
    <circle cx=920.6800000000001 cy=575.284835238527 r=22.93035164890454 stroke=""black"" stroke-width=""1.5"" fill=""none"" />
    <circle cx=795.3951647614731 cy=450 r=22.93035164890454 stroke=""black"" stroke-width=""1.5"" fill=""none"" />
    <circle cx=920.6800000000001 cy=324.7151647614731 r=22.93035164890454 stroke=""black"" stroke-width=""1.5"" fill=""none"" />
    <polygon points = ""920.6800000000001,450 927.1301932670787,472.93035164890455 914.2298067329215,472.93035164890455"" stroke=""white"" stroke-width=""3"" fill = ""white"" />
    
    </svg>
    </div>
        ","","","","","","","","","","","","stimulus","","","","","","","","","","","","","","","","",""
"html-keyboard-response","63","236218","0.0-63.0","420.10000002384186","arrowdown","","
    <div style="" display: block;  position: relative;"">
    
    <svg width=1600 height=900>
    <circle cx=737 cy=450 r=16.051246154233176 stroke=""black"" stroke-width=""1"" fill=""black"" />
    <circle cx=1045.964835238527 cy=450 r=22.93035164890454 stroke=""none"" stroke-width=""1.5"" fill=""none"" />
    <circle cx=920.6800000000001 cy=575.284835238527 r=22.93035164890454 stroke=""none"" stroke-width=""1.5"" fill=""none"" />
    <circle cx=795.3951647614731 cy=450 r=22.93035164890454 stroke=""none"" stroke-width=""1.5"" fill=""none"" />
    <circle cx=920.6800000000001 cy=324.7151647614731 r=22.93035164890454 stroke=""none"" stroke-width=""1.5"" fill=""none"" />
    <polygon points = ""920.6800000000001,450 927.1301932670787,472.93035164890455 914.2298067329215,472.93035164890455"" stroke=""none"" stroke-width=""3"" fill = ""none"" />
    
    </svg>
    </div>
        ","","","","","","","","","","","","get_response","true","0gNiuF7EVawxfZ79","","","false","false","false","183.68","4","511.79400000000004","125.28483523852691","2.73","1","0","","",""
"html-keyboard-response","64","236726","0.0-64.0","null","null","","
    <div style="" display: block;  position: relative;"">
    
    <svg width=1600 height=900>
    <circle cx=737 cy=450 r=16.051246154233176 stroke=""black"" stroke-width=""1"" fill=""black"" />
    <circle cx=1045.964835238527 cy=450 r=22.93035164890454 stroke=""none"" stroke-width=""1.5"" fill=""none"" />
    <circle cx=920.6800000000001 cy=575.284835238527 r=22.93035164890454 stroke=""none"" stroke-width=""1.5"" fill=""none"" />
    <circle cx=795.3951647614731 cy=450 r=22.93035164890454 stroke=""none"" stroke-width=""1.5"" fill=""none"" />
    <circle cx=920.6800000000001 cy=324.7151647614731 r=22.93035164890454 stroke=""none"" stroke-width=""1.5"" fill=""none"" />
    <polygon points = ""920.6800000000001,450 927.1301932670787,472.93035164890455 914.2298067329215,472.93035164890455"" stroke=""none"" stroke-width=""3"" fill = ""none"" />
    
    </svg>
    </div>
        ","","","","","","","","","","","","","","","","","","","","","","","","","","","","",""
"html-keyboard-response","65","236894","0.0-65.0","null","null","","
    <div style="" display: block;  position: relative;"">
    <svg width=1600 height=900>
    
    <circle cx=737 cy=450 r=16.051246154233176 stroke=""black"" stroke-width=""1"" fill=""black"" />
    <circle cx=553.3199999999999 cy=450 r=22.93035164890454 stroke=""black"" stroke-width=""1.5"" fill=""none"" />
    <circle cx=678.6048352385269 cy=450 r=22.93035164890454 stroke=""black"" stroke-width=""1.5"" fill=""none"" />
    <circle cx=553.3199999999999 cy=575.284835238527 r=22.93035164890454 stroke=""black"" stroke-width=""1.5"" fill=""none"" />
    <circle cx=428.035164761473 cy=450 r=22.93035164890454 stroke=""black"" stroke-width=""1.5"" fill=""none"" />
    <circle cx=553.3199999999999 cy=324.7151647614731 r=22.93035164890454 stroke=""black"" stroke-width=""1.5"" fill=""none"" />
    <polygon points = ""553.3199999999999,450 559.7701932670785,472.93035164890455 546.8698067329213,472.93035164890455"" stroke=""white"" stroke-width=""3"" fill = ""white"" />
    
    </svg>
    </div>
        ","","","","","","","","","","","","stimulus","","","","","","","","","","","","","","","","",""
"html-keyboard-response","66","237401","0.0-66.0","502.7999999523163","arrowdown","","
    <div style="" display: block;  position: relative;"">
    
    <svg width=1600 height=900>
    <circle cx=737 cy=450 r=16.051246154233176 stroke=""black"" stroke-width=""1"" fill=""black"" />
    <circle cx=678.6048352385269 cy=450 r=22.93035164890454 stroke=""none"" stroke-width=""1.5"" fill=""none"" />
    <circle cx=553.3199999999999 cy=575.284835238527 r=22.93035164890454 stroke=""none"" stroke-width=""1.5"" fill=""none"" />
    <circle cx=428.035164761473 cy=450 r=22.93035164890454 stroke=""none"" stroke-width=""1.5"" fill=""none"" />
    <circle cx=553.3199999999999 cy=324.7151647614731 r=22.93035164890454 stroke=""none"" stroke-width=""1.5"" fill=""none"" />
    <polygon points = ""553.3199999999999,450 559.7701932670785,472.93035164890455 546.8698067329213,472.93035164890455"" stroke=""none"" stroke-width=""3"" fill = ""none"" />
    
    </svg>
    </div>
        ","","","","","","","","","","","","get_response","true","0gNiuF7EVawxfZ79","","","true","false","false","183.68","4","511.79400000000004","125.28483523852691","2.73","1","0","","",""
"html-keyboard-response","67","237918","0.0-67.0","null","null","","
    <div style="" display: block;  position: relative;"">
    
    <svg width=1600 height=900>
    <circle cx=737 cy=450 r=16.051246154233176 stroke=""black"" stroke-width=""1"" fill=""black"" />
    <circle cx=678.6048352385269 cy=450 r=22.93035164890454 stroke=""none"" stroke-width=""1.5"" fill=""none"" />
    <circle cx=553.3199999999999 cy=575.284835238527 r=22.93035164890454 stroke=""none"" stroke-width=""1.5"" fill=""none"" />
    <circle cx=428.035164761473 cy=450 r=22.93035164890454 stroke=""none"" stroke-width=""1.5"" fill=""none"" />
    <circle cx=553.3199999999999 cy=324.7151647614731 r=22.93035164890454 stroke=""none"" stroke-width=""1.5"" fill=""none"" />
    <polygon points = ""553.3199999999999,450 559.7701932670785,472.93035164890455 546.8698067329213,472.93035164890455"" stroke=""none"" stroke-width=""3"" fill = ""none"" />
    
    </svg>
    </div>
        ","","","","","","","","","","","","","","","","","","","","","","","","","","","","",""
"html-keyboard-response","68","238078","0.0-68.0","null","null","","
    <div style="" display: block;  position: relative;"">
    <svg width=1600 height=900>
    
    <circle cx=737 cy=450 r=16.051246154233176 stroke=""black"" stroke-width=""1"" fill=""black"" />
    <circle cx=920.6800000000001 cy=450 r=22.93035164890454 stroke=""black"" stroke-width=""1.5"" fill=""none"" />
    <circle cx=1034.5753047622973 cy=450 r=22.93035164890454 stroke=""black"" stroke-width=""1.5"" fill=""none"" />
    <circle cx=920.6800000000001 cy=563.8953047622972 r=22.93035164890454 stroke=""black"" stroke-width=""1.5"" fill=""none"" />
    <circle cx=806.7846952377029 cy=450 r=22.93035164890454 stroke=""black"" stroke-width=""1.5"" fill=""none"" />
    <circle cx=920.6800000000001 cy=336.1046952377028 r=22.93035164890454 stroke=""black"" stroke-width=""1.5"" fill=""none"" />
    <polygon points = ""920.6800000000001,450 927.1301932670787,472.93035164890455 914.2298067329215,472.93035164890455"" stroke=""white"" stroke-width=""3"" fill = ""white"" />
    
    </svg>
    </div>
        ","","","","","","","","","","","","stimulus","","","","","","","","","","","","","","","","",""
"html-keyboard-response","69","238573","0.0-69.0","492.59999990463257","arrowdown","","
    <div style="" display: block;  position: relative;"">
    
    <svg width=1600 height=900>
    <circle cx=737 cy=450 r=16.051246154233176 stroke=""black"" stroke-width=""1"" fill=""black"" />
    <circle cx=1034.5753047622973 cy=450 r=22.93035164890454 stroke=""none"" stroke-width=""1.5"" fill=""none"" />
    <circle cx=920.6800000000001 cy=563.8953047622972 r=22.93035164890454 stroke=""none"" stroke-width=""1.5"" fill=""none"" />
    <circle cx=806.7846952377029 cy=450 r=22.93035164890454 stroke=""none"" stroke-width=""1.5"" fill=""none"" />
    <circle cx=920.6800000000001 cy=336.1046952377028 r=22.93035164890454 stroke=""none"" stroke-width=""1.5"" fill=""none"" />
    <polygon points = ""920.6800000000001,450 927.1301932670787,472.93035164890455 914.2298067329215,472.93035164890455"" stroke=""none"" stroke-width=""3"" fill = ""none"" />
    
    </svg>
    </div>
        ","","","","","","","","","","","","get_response","true","0gNiuF7EVawxfZ79","","","false","false","false","183.68","4","511.79400000000004","113.89530476229719","2.48","1","0","","",""
"html-keyboard-response","70","239087","0.0-70.0","null","null","","
    <div style="" display: block;  position: relative;"">
    
    <svg width=1600 height=900>
    <circle cx=737 cy=450 r=16.051246154233176 stroke=""black"" stroke-width=""1"" fill=""black"" />
    <circle cx=1034.5753047622973 cy=450 r=22.93035164890454 stroke=""none"" stroke-width=""1.5"" fill=""none"" />
    <circle cx=920.6800000000001 cy=563.8953047622972 r=22.93035164890454 stroke=""none"" stroke-width=""1.5"" fill=""none"" />
    <circle cx=806.7846952377029 cy=450 r=22.93035164890454 stroke=""none"" stroke-width=""1.5"" fill=""none"" />
    <circle cx=920.6800000000001 cy=336.1046952377028 r=22.93035164890454 stroke=""none"" stroke-width=""1.5"" fill=""none"" />
    <polygon points = ""920.6800000000001,450 927.1301932670787,472.93035164890455 914.2298067329215,472.93035164890455"" stroke=""none"" stroke-width=""3"" fill = ""none"" />
    
    </svg>
    </div>
        ","","","","","","","","","","","","","","","","","","","","","","","","","","","","",""
"html-keyboard-response","71","239260","0.0-71.0","null","null","","
    <div style="" display: block;  position: relative;"">
    <svg width=1600 height=900>
    
    <circle cx=737 cy=450 r=16.051246154233176 stroke=""black"" stroke-width=""1"" fill=""black"" />
    <circle cx=553.3199999999999 cy=450 r=22.93035164890454 stroke=""black"" stroke-width=""1.5"" fill=""none"" />
    <circle cx=656.8611861475429 cy=450 r=22.93035164890454 stroke=""black"" stroke-width=""1.5"" fill=""none"" />
    <circle cx=553.3199999999999 cy=553.5411861475429 r=22.93035164890454 stroke=""black"" stroke-width=""1.5"" fill=""none"" />
    <circle cx=449.77881385245706 cy=450 r=22.93035164890454 stroke=""black"" stroke-width=""1.5"" fill=""none"" />
    <circle cx=553.3199999999999 cy=346.4588138524571 r=22.93035164890454 stroke=""black"" stroke-width=""1.5"" fill=""none"" />
    <polygon points = ""553.3199999999999,450 559.7701932670785,472.93035164890455 546.8698067329213,472.93035164890455"" stroke=""white"" stroke-width=""3"" fill = ""white"" />
    
    </svg>
    </div>
        ","","","","","","","","","","","","stimulus","","","","","","","","","","","","","","","","",""
"html-keyboard-response","72","239693","0.0-72.0","429.3000000715256","arrowdown","","
    <div style="" display: block;  position: relative;"">
    
    <svg width=1600 height=900>
    <circle cx=737 cy=450 r=16.051246154233176 stroke=""black"" stroke-width=""1"" fill=""black"" />
    <circle cx=656.8611861475429 cy=450 r=22.93035164890454 stroke=""none"" stroke-width=""1.5"" fill=""none"" />
    <circle cx=553.3199999999999 cy=553.5411861475429 r=22.93035164890454 stroke=""none"" stroke-width=""1.5"" fill=""none"" />
    <circle cx=449.77881385245706 cy=450 r=22.93035164890454 stroke=""none"" stroke-width=""1.5"" fill=""none"" />
    <circle cx=553.3199999999999 cy=346.4588138524571 r=22.93035164890454 stroke=""none"" stroke-width=""1.5"" fill=""none"" />
    <polygon points = ""553.3199999999999,450 559.7701932670785,472.93035164890455 546.8698067329213,472.93035164890455"" stroke=""none"" stroke-width=""3"" fill = ""none"" />
    
    </svg>
    </div>
        ","","","","","","","","","","","","get_response","true","0gNiuF7EVawxfZ79","","","true","false","false","183.68","4","511.79400000000004","103.54118614754289","2.25","1","0","","",""
"html-keyboard-response","73","240207","0.0-73.0","null","null","","
    <div style="" display: block;  position: relative;"">
    
    <svg width=1600 height=900>
    <circle cx=737 cy=450 r=16.051246154233176 stroke=""black"" stroke-width=""1"" fill=""black"" />
    <circle cx=656.8611861475429 cy=450 r=22.93035164890454 stroke=""none"" stroke-width=""1.5"" fill=""none"" />
    <circle cx=553.3199999999999 cy=553.5411861475429 r=22.93035164890454 stroke=""none"" stroke-width=""1.5"" fill=""none"" />
    <circle cx=449.77881385245706 cy=450 r=22.93035164890454 stroke=""none"" stroke-width=""1.5"" fill=""none"" />
    <circle cx=553.3199999999999 cy=346.4588138524571 r=22.93035164890454 stroke=""none"" stroke-width=""1.5"" fill=""none"" />
    <polygon points = ""553.3199999999999,450 559.7701932670785,472.93035164890455 546.8698067329213,472.93035164890455"" stroke=""none"" stroke-width=""3"" fill = ""none"" />
    
    </svg>
    </div>
        ","","","","","","","","","","","","","","","","","","","","","","","","","","","","",""
"html-keyboard-response","74","240381","0.0-74.0","null","null","","
    <div style="" display: block;  position: relative;"">
    <svg width=1600 height=900>
    
    <circle cx=737 cy=450 r=16.051246154233176 stroke=""black"" stroke-width=""1"" fill=""black"" />
    <circle cx=553.3199999999999 cy=450 r=22.93035164890454 stroke=""black"" stroke-width=""1.5"" fill=""none"" />
    <circle cx=647.4483510432208 cy=450 r=22.93035164890454 stroke=""black"" stroke-width=""1.5"" fill=""none"" />
    <circle cx=553.3199999999999 cy=544.1283510432208 r=22.93035164890454 stroke=""black"" stroke-width=""1.5"" fill=""none"" />
    <circle cx=459.19164895677915 cy=450 r=22.93035164890454 stroke=""black"" stroke-width=""1.5"" fill=""none"" />
    <circle cx=553.3199999999999 cy=355.8716489567792 r=22.93035164890454 stroke=""black"" stroke-width=""1.5"" fill=""none"" />
    <polygon points = ""553.3199999999999,450 559.7701932670785,427.06964835109545 546.8698067329213,427.06964835109545"" stroke=""white"" stroke-width=""3"" fill = ""white"" />
    
    </svg>
    </div>
        ","","","","","","","","","","","","stimulus","","","","","","","","","","","","","","","","",""
"html-keyboard-response","75","240826","0.0-75.0","443.2999999523163","arrowup","","
    <div style="" display: block;  position: relative;"">
    
    <svg width=1600 height=900>
    <circle cx=737 cy=450 r=16.051246154233176 stroke=""black"" stroke-width=""1"" fill=""black"" />
    <circle cx=647.4483510432208 cy=450 r=22.93035164890454 stroke=""none"" stroke-width=""1.5"" fill=""none"" />
    <circle cx=553.3199999999999 cy=544.1283510432208 r=22.93035164890454 stroke=""none"" stroke-width=""1.5"" fill=""none"" />
    <circle cx=459.19164895677915 cy=450 r=22.93035164890454 stroke=""none"" stroke-width=""1.5"" fill=""none"" />
    <circle cx=553.3199999999999 cy=355.8716489567792 r=22.93035164890454 stroke=""none"" stroke-width=""1.5"" fill=""none"" />
    <polygon points = ""553.3199999999999,450 559.7701932670785,427.06964835109545 546.8698067329213,427.06964835109545"" stroke=""none"" stroke-width=""3"" fill = ""none"" />
    
    </svg>
    </div>
        ","","","","","","","","","","","","get_response","true","0gNiuF7EVawxfZ79","","","true","true","false","183.68","4","511.79400000000004","94.1283510432208","2.05","1","0","","",""
"html-keyboard-response","76","241343","0.0-76.0","null","null","","
    <div style="" display: block;  position: relative;"">
    
    <svg width=1600 height=900>
    <circle cx=737 cy=450 r=16.051246154233176 stroke=""black"" stroke-width=""1"" fill=""black"" />
    <circle cx=647.4483510432208 cy=450 r=22.93035164890454 stroke=""none"" stroke-width=""1.5"" fill=""none"" />
    <circle cx=553.3199999999999 cy=544.1283510432208 r=22.93035164890454 stroke=""none"" stroke-width=""1.5"" fill=""none"" />
    <circle cx=459.19164895677915 cy=450 r=22.93035164890454 stroke=""none"" stroke-width=""1.5"" fill=""none"" />
    <circle cx=553.3199999999999 cy=355.8716489567792 r=22.93035164890454 stroke=""none"" stroke-width=""1.5"" fill=""none"" />
    <polygon points = ""553.3199999999999,450 559.7701932670785,427.06964835109545 546.8698067329213,427.06964835109545"" stroke=""none"" stroke-width=""3"" fill = ""none"" />
    
    </svg>
    </div>
        ","","","","","","","","","","","","","","","","","","","","","","","","","","","","",""
"html-keyboard-response","77","241508","0.0-77.0","null","null","","
    <div style="" display: block;  position: relative;"">
    <svg width=1600 height=900>
    
    <circle cx=737 cy=450 r=16.051246154233176 stroke=""black"" stroke-width=""1"" fill=""black"" />
    <circle cx=553.3199999999999 cy=450 r=22.93035164890454 stroke=""black"" stroke-width=""1.5"" fill=""none"" />
    <circle cx=638.8912282211097 cy=450 r=22.93035164890454 stroke=""black"" stroke-width=""1.5"" fill=""none"" />
    <circle cx=553.3199999999999 cy=535.5712282211098 r=22.93035164890454 stroke=""black"" stroke-width=""1.5"" fill=""none"" />
    <circle cx=467.7487717788901 cy=450 r=22.93035164890454 stroke=""black"" stroke-width=""1.5"" fill=""none"" />
    <circle cx=553.3199999999999 cy=364.42877177889017 r=22.93035164890454 stroke=""black"" stroke-width=""1.5"" fill=""none"" />
    <polygon points = ""553.3199999999999,450 559.7701932670785,472.93035164890455 546.8698067329213,472.93035164890455"" stroke=""white"" stroke-width=""3"" fill = ""white"" />
    
    </svg>
    </div>
        ","","","","","","","","","","","","stimulus","","","","","","","","","","","","","","","","",""
"html-keyboard-response","78","242319","0.0-78.0","808.3000000715256","arrowdown","","
    <div style="" display: block;  position: relative;"">
    
    <svg width=1600 height=900>
    <circle cx=737 cy=450 r=16.051246154233176 stroke=""black"" stroke-width=""1"" fill=""black"" />
    <circle cx=638.8912282211097 cy=450 r=22.93035164890454 stroke=""none"" stroke-width=""1.5"" fill=""none"" />
    <circle cx=553.3199999999999 cy=535.5712282211098 r=22.93035164890454 stroke=""none"" stroke-width=""1.5"" fill=""none"" />
    <circle cx=467.7487717788901 cy=450 r=22.93035164890454 stroke=""none"" stroke-width=""1.5"" fill=""none"" />
    <circle cx=553.3199999999999 cy=364.42877177889017 r=22.93035164890454 stroke=""none"" stroke-width=""1.5"" fill=""none"" />
    <polygon points = ""553.3199999999999,450 559.7701932670785,472.93035164890455 546.8698067329213,472.93035164890455"" stroke=""none"" stroke-width=""3"" fill = ""none"" />
    
    </svg>
    </div>
        ","","","","","","","","","","","","get_response","true","0gNiuF7EVawxfZ79","","","true","false","false","183.68","4","511.79400000000004","85.57122822110982","1.86","1","0","","",""
"html-keyboard-response","79","242834","0.0-79.0","null","null","","
    <div style="" display: block;  position: relative;"">
    
    <svg width=1600 height=900>
    <circle cx=737 cy=450 r=16.051246154233176 stroke=""black"" stroke-width=""1"" fill=""black"" />
    <circle cx=638.8912282211097 cy=450 r=22.93035164890454 stroke=""none"" stroke-width=""1.5"" fill=""none"" />
    <circle cx=553.3199999999999 cy=535.5712282211098 r=22.93035164890454 stroke=""none"" stroke-width=""1.5"" fill=""none"" />
    <circle cx=467.7487717788901 cy=450 r=22.93035164890454 stroke=""none"" stroke-width=""1.5"" fill=""none"" />
    <circle cx=553.3199999999999 cy=364.42877177889017 r=22.93035164890454 stroke=""none"" stroke-width=""1.5"" fill=""none"" />
    <polygon points = ""553.3199999999999,450 559.7701932670785,472.93035164890455 546.8698067329213,472.93035164890455"" stroke=""none"" stroke-width=""3"" fill = ""none"" />
    
    </svg>
    </div>
        ","","","","","","","","","","","","","","","","","","","","","","","","","","","","",""
"html-keyboard-response","80","242992","0.0-80.0","null","null","","
    <div style="" display: block;  position: relative;"">
    <svg width=1600 height=900>
    
    <circle cx=737 cy=450 r=16.051246154233176 stroke=""black"" stroke-width=""1"" fill=""black"" />
    <circle cx=553.3199999999999 cy=450 r=22.93035164890454 stroke=""black"" stroke-width=""1.5"" fill=""none"" />
    <circle cx=631.1120256555544 cy=450 r=22.93035164890454 stroke=""black"" stroke-width=""1.5"" fill=""none"" />
    <circle cx=553.3199999999999 cy=527.7920256555544 r=22.93035164890454 stroke=""black"" stroke-width=""1.5"" fill=""none"" />
    <circle cx=475.52797434444557 cy=450 r=22.93035164890454 stroke=""black"" stroke-width=""1.5"" fill=""none"" />
    <circle cx=553.3199999999999 cy=372.20797434444563 r=22.93035164890454 stroke=""black"" stroke-width=""1.5"" fill=""none"" />
    <polygon points = ""553.3199999999999,450 559.7701932670785,472.93035164890455 546.8698067329213,472.93035164890455"" stroke=""white"" stroke-width=""3"" fill = ""white"" />
    
    </svg>
    </div>
        ","","","","","","","","","","","","stimulus","","","","","","","","","","","","","","","","",""
"html-keyboard-response","81","243469","0.0-81.0","472.5","arrowdown","","
    <div style="" display: block;  position: relative;"">
    
    <svg width=1600 height=900>
    <circle cx=737 cy=450 r=16.051246154233176 stroke=""black"" stroke-width=""1"" fill=""black"" />
    <circle cx=631.1120256555544 cy=450 r=22.93035164890454 stroke=""none"" stroke-width=""1.5"" fill=""none"" />
    <circle cx=553.3199999999999 cy=527.7920256555544 r=22.93035164890454 stroke=""none"" stroke-width=""1.5"" fill=""none"" />
    <circle cx=475.52797434444557 cy=450 r=22.93035164890454 stroke=""none"" stroke-width=""1.5"" fill=""none"" />
    <circle cx=553.3199999999999 cy=372.20797434444563 r=22.93035164890454 stroke=""none"" stroke-width=""1.5"" fill=""none"" />
    <polygon points = ""553.3199999999999,450 559.7701932670785,472.93035164890455 546.8698067329213,472.93035164890455"" stroke=""none"" stroke-width=""3"" fill = ""none"" />
    
    </svg>
    </div>
        ","","","","","","","","","","","","get_response","true","0gNiuF7EVawxfZ79","","","true","false","false","183.68","4","511.79400000000004","77.79202565555437","1.69","1","0","","",""
"html-keyboard-response","82","243983","0.0-82.0","null","null","","
    <div style="" display: block;  position: relative;"">
    
    <svg width=1600 height=900>
    <circle cx=737 cy=450 r=16.051246154233176 stroke=""black"" stroke-width=""1"" fill=""black"" />
    <circle cx=631.1120256555544 cy=450 r=22.93035164890454 stroke=""none"" stroke-width=""1.5"" fill=""none"" />
    <circle cx=553.3199999999999 cy=527.7920256555544 r=22.93035164890454 stroke=""none"" stroke-width=""1.5"" fill=""none"" />
    <circle cx=475.52797434444557 cy=450 r=22.93035164890454 stroke=""none"" stroke-width=""1.5"" fill=""none"" />
    <circle cx=553.3199999999999 cy=372.20797434444563 r=22.93035164890454 stroke=""none"" stroke-width=""1.5"" fill=""none"" />
    <polygon points = ""553.3199999999999,450 559.7701932670785,472.93035164890455 546.8698067329213,472.93035164890455"" stroke=""none"" stroke-width=""3"" fill = ""none"" />
    
    </svg>
    </div>
        ","","","","","","","","","","","","","","","","","","","","","","","","","","","","",""
"html-keyboard-response","83","244143","0.0-83.0","null","null","","
    <div style="" display: block;  position: relative;"">
    <svg width=1600 height=900>
    
    <circle cx=737 cy=450 r=16.051246154233176 stroke=""black"" stroke-width=""1"" fill=""black"" />
    <circle cx=553.3199999999999 cy=450 r=22.93035164890454 stroke=""black"" stroke-width=""1.5"" fill=""none"" />
    <circle cx=624.0400233232311 cy=450 r=22.93035164890454 stroke=""black"" stroke-width=""1.5"" fill=""none"" />
    <circle cx=553.3199999999999 cy=520.7200233232312 r=22.93035164890454 stroke=""black"" stroke-width=""1.5"" fill=""none"" />
    <circle cx=482.5999766767687 cy=450 r=22.93035164890454 stroke=""black"" stroke-width=""1.5"" fill=""none"" />
    <circle cx=553.3199999999999 cy=379.27997667676874 r=22.93035164890454 stroke=""black"" stroke-width=""1.5"" fill=""none"" />
    <polygon points = ""553.3199999999999,450 559.7701932670785,472.93035164890455 546.8698067329213,472.93035164890455"" stroke=""white"" stroke-width=""3"" fill = ""white"" />
    
    </svg>
    </div>
        ","","","","","","","","","","","","stimulus","","","","","","","","","","","","","","","","",""
"html-keyboard-response","84","244490","0.0-84.0","343.5","arrowdown","","
    <div style="" display: block;  position: relative;"">
    
    <svg width=1600 height=900>
    <circle cx=737 cy=450 r=16.051246154233176 stroke=""black"" stroke-width=""1"" fill=""black"" />
    <circle cx=624.0400233232311 cy=450 r=22.93035164890454 stroke=""none"" stroke-width=""1.5"" fill=""none"" />
    <circle cx=553.3199999999999 cy=520.7200233232312 r=22.93035164890454 stroke=""none"" stroke-width=""1.5"" fill=""none"" />
    <circle cx=482.5999766767687 cy=450 r=22.93035164890454 stroke=""none"" stroke-width=""1.5"" fill=""none"" />
    <circle cx=553.3199999999999 cy=379.27997667676874 r=22.93035164890454 stroke=""none"" stroke-width=""1.5"" fill=""none"" />
    <polygon points = ""553.3199999999999,450 559.7701932670785,472.93035164890455 546.8698067329213,472.93035164890455"" stroke=""none"" stroke-width=""3"" fill = ""none"" />
    
    </svg>
    </div>
        ","","","","","","","","","","","","get_response","true","0gNiuF7EVawxfZ79","","","true","false","false","183.68","4","511.79400000000004","70.72002332323125","1.54","1","0","","",""
"html-keyboard-response","85","244992","0.0-85.0","null","null","","
    <div style="" display: block;  position: relative;"">
    
    <svg width=1600 height=900>
    <circle cx=737 cy=450 r=16.051246154233176 stroke=""black"" stroke-width=""1"" fill=""black"" />
    <circle cx=624.0400233232311 cy=450 r=22.93035164890454 stroke=""none"" stroke-width=""1.5"" fill=""none"" />
    <circle cx=553.3199999999999 cy=520.7200233232312 r=22.93035164890454 stroke=""none"" stroke-width=""1.5"" fill=""none"" />
    <circle cx=482.5999766767687 cy=450 r=22.93035164890454 stroke=""none"" stroke-width=""1.5"" fill=""none"" />
    <circle cx=553.3199999999999 cy=379.27997667676874 r=22.93035164890454 stroke=""none"" stroke-width=""1.5"" fill=""none"" />
    <polygon points = ""553.3199999999999,450 559.7701932670785,472.93035164890455 546.8698067329213,472.93035164890455"" stroke=""none"" stroke-width=""3"" fill = ""none"" />
    
    </svg>
    </div>
        ","","","","","","","","","","","","","","","","","","","","","","","","","","","","",""
"html-keyboard-response","86","245160","0.0-86.0","null","null","","
    <div style="" display: block;  position: relative;"">
    <svg width=1600 height=900>
    
    <circle cx=737 cy=450 r=16.051246154233176 stroke=""black"" stroke-width=""1"" fill=""black"" />
    <circle cx=553.3199999999999 cy=450 r=22.93035164890454 stroke=""black"" stroke-width=""1.5"" fill=""none"" />
    <circle cx=617.6109302938465 cy=450 r=22.93035164890454 stroke=""black"" stroke-width=""1.5"" fill=""none"" />
    <circle cx=553.3199999999999 cy=514.2909302938466 r=22.93035164890454 stroke=""black"" stroke-width=""1.5"" fill=""none"" />
    <circle cx=489.02906970615334 cy=450 r=22.93035164890454 stroke=""black"" stroke-width=""1.5"" fill=""none"" />
    <circle cx=553.3199999999999 cy=385.7090697061534 r=22.93035164890454 stroke=""black"" stroke-width=""1.5"" fill=""none"" />
    <polygon points = ""553.3199999999999,450 559.7701932670785,472.93035164890455 546.8698067329213,472.93035164890455"" stroke=""white"" stroke-width=""3"" fill = ""white"" />
    
    </svg>
    </div>
        ","","","","","","","","","","","","stimulus","","","","","","","","","","","","","","","","",""
"html-keyboard-response","87","245413","0.0-87.0","249.80000007152557","arrowdown","","
    <div style="" display: block;  position: relative;"">
    
    <svg width=1600 height=900>
    <circle cx=737 cy=450 r=16.051246154233176 stroke=""black"" stroke-width=""1"" fill=""black"" />
    <circle cx=617.6109302938465 cy=450 r=22.93035164890454 stroke=""none"" stroke-width=""1.5"" fill=""none"" />
    <circle cx=553.3199999999999 cy=514.2909302938466 r=22.93035164890454 stroke=""none"" stroke-width=""1.5"" fill=""none"" />
    <circle cx=489.02906970615334 cy=450 r=22.93035164890454 stroke=""none"" stroke-width=""1.5"" fill=""none"" />
    <circle cx=553.3199999999999 cy=385.7090697061534 r=22.93035164890454 stroke=""none"" stroke-width=""1.5"" fill=""none"" />
    <polygon points = ""553.3199999999999,450 559.7701932670785,472.93035164890455 546.8698067329213,472.93035164890455"" stroke=""none"" stroke-width=""3"" fill = ""none"" />
    
    </svg>
    </div>
        ","","","","","","","","","","","","get_response","true","0gNiuF7EVawxfZ79","","","true","false","false","183.68","4","511.79400000000004","64.29093029384659","1.4","1","0","","",""
"html-keyboard-response","88","245925","0.0-88.0","null","null","","
    <div style="" display: block;  position: relative;"">
    
    <svg width=1600 height=900>
    <circle cx=737 cy=450 r=16.051246154233176 stroke=""black"" stroke-width=""1"" fill=""black"" />
    <circle cx=617.6109302938465 cy=450 r=22.93035164890454 stroke=""none"" stroke-width=""1.5"" fill=""none"" />
    <circle cx=553.3199999999999 cy=514.2909302938466 r=22.93035164890454 stroke=""none"" stroke-width=""1.5"" fill=""none"" />
    <circle cx=489.02906970615334 cy=450 r=22.93035164890454 stroke=""none"" stroke-width=""1.5"" fill=""none"" />
    <circle cx=553.3199999999999 cy=385.7090697061534 r=22.93035164890454 stroke=""none"" stroke-width=""1.5"" fill=""none"" />
    <polygon points = ""553.3199999999999,450 559.7701932670785,472.93035164890455 546.8698067329213,472.93035164890455"" stroke=""none"" stroke-width=""3"" fill = ""none"" />
    
    </svg>
    </div>
        ","","","","","","","","","","","","","","","","","","","","","","","","","","","","",""
"html-keyboard-response","89","246091","0.0-89.0","null","null","","
    <div style="" display: block;  position: relative;"">
    <svg width=1600 height=900>
    
    <circle cx=737 cy=450 r=16.051246154233176 stroke=""black"" stroke-width=""1"" fill=""black"" />
    <circle cx=920.6800000000001 cy=450 r=22.93035164890454 stroke=""black"" stroke-width=""1.5"" fill=""none"" />
    <circle cx=979.1263002671333 cy=450 r=22.93035164890454 stroke=""black"" stroke-width=""1.5"" fill=""none"" />
    <circle cx=920.6800000000001 cy=508.44630026713327 r=22.93035164890454 stroke=""black"" stroke-width=""1.5"" fill=""none"" />
    <circle cx=862.2336997328669 cy=450 r=22.93035164890454 stroke=""black"" stroke-width=""1.5"" fill=""none"" />
    <circle cx=920.6800000000001 cy=391.55369973286673 r=22.93035164890454 stroke=""black"" stroke-width=""1.5"" fill=""none"" />
    <polygon points = ""920.6800000000001,450 927.1301932670787,472.93035164890455 914.2298067329215,472.93035164890455"" stroke=""white"" stroke-width=""3"" fill = ""white"" />
    
    </svg>
    </div>
        ","","","","","","","","","","","","stimulus","","","","","","","","","","","","","","","","",""
"html-keyboard-response","90","246578","0.0-90.0","483.7000000476837","arrowdown","","
    <div style="" display: block;  position: relative;"">
    
    <svg width=1600 height=900>
    <circle cx=737 cy=450 r=16.051246154233176 stroke=""black"" stroke-width=""1"" fill=""black"" />
    <circle cx=979.1263002671333 cy=450 r=22.93035164890454 stroke=""none"" stroke-width=""1.5"" fill=""none"" />
    <circle cx=920.6800000000001 cy=508.44630026713327 r=22.93035164890454 stroke=""none"" stroke-width=""1.5"" fill=""none"" />
    <circle cx=862.2336997328669 cy=450 r=22.93035164890454 stroke=""none"" stroke-width=""1.5"" fill=""none"" />
    <circle cx=920.6800000000001 cy=391.55369973286673 r=22.93035164890454 stroke=""none"" stroke-width=""1.5"" fill=""none"" />
    <polygon points = ""920.6800000000001,450 927.1301932670787,472.93035164890455 914.2298067329215,472.93035164890455"" stroke=""none"" stroke-width=""3"" fill = ""none"" />
    
    </svg>
    </div>
        ","","","","","","","","","","","","get_response","true","0gNiuF7EVawxfZ79","","","false","false","false","183.68","4","511.79400000000004","58.44630026713325","1.27","1","0","","",""
"html-keyboard-response","91","247084","0.0-91.0","null","null","","
    <div style="" display: block;  position: relative;"">
    
    <svg width=1600 height=900>
    <circle cx=737 cy=450 r=16.051246154233176 stroke=""black"" stroke-width=""1"" fill=""black"" />
    <circle cx=979.1263002671333 cy=450 r=22.93035164890454 stroke=""none"" stroke-width=""1.5"" fill=""none"" />
    <circle cx=920.6800000000001 cy=508.44630026713327 r=22.93035164890454 stroke=""none"" stroke-width=""1.5"" fill=""none"" />
    <circle cx=862.2336997328669 cy=450 r=22.93035164890454 stroke=""none"" stroke-width=""1.5"" fill=""none"" />
    <circle cx=920.6800000000001 cy=391.55369973286673 r=22.93035164890454 stroke=""none"" stroke-width=""1.5"" fill=""none"" />
    <polygon points = ""920.6800000000001,450 927.1301932670787,472.93035164890455 914.2298067329215,472.93035164890455"" stroke=""none"" stroke-width=""3"" fill = ""none"" />
    
    </svg>
    </div>
        ","","","","","","","","","","","","","","","","","","","","","","","","","","","","",""
"html-keyboard-response","92","247241","0.0-92.0","null","null","","
    <div style="" display: block;  position: relative;"">
    <svg width=1600 height=900>
    
    <circle cx=737 cy=450 r=16.051246154233176 stroke=""black"" stroke-width=""1"" fill=""black"" />
    <circle cx=553.3199999999999 cy=450 r=22.93035164890454 stroke=""black"" stroke-width=""1.5"" fill=""none"" />
    <circle cx=606.4530002428484 cy=450 r=22.93035164890454 stroke=""black"" stroke-width=""1.5"" fill=""none"" />
    <circle cx=553.3199999999999 cy=503.1330002428484 r=22.93035164890454 stroke=""black"" stroke-width=""1.5"" fill=""none"" />
    <circle cx=500.1869997571515 cy=450 r=22.93035164890454 stroke=""black"" stroke-width=""1.5"" fill=""none"" />
    <circle cx=553.3199999999999 cy=396.8669997571516 r=22.93035164890454 stroke=""black"" stroke-width=""1.5"" fill=""none"" />
    <polygon points = ""553.3199999999999,450 559.7701932670785,427.06964835109545 546.8698067329213,427.06964835109545"" stroke=""white"" stroke-width=""3"" fill = ""white"" />
    
    </svg>
    </div>
        ","","","","","","","","","","","","stimulus","","","","","","","","","","","","","","","","",""
"html-keyboard-response","93","247654","0.0-93.0","409.5","arrowup","","
    <div style="" display: block;  position: relative;"">
    
    <svg width=1600 height=900>
    <circle cx=737 cy=450 r=16.051246154233176 stroke=""black"" stroke-width=""1"" fill=""black"" />
    <circle cx=606.4530002428484 cy=450 r=22.93035164890454 stroke=""none"" stroke-width=""1.5"" fill=""none"" />
    <circle cx=553.3199999999999 cy=503.1330002428484 r=22.93035164890454 stroke=""none"" stroke-width=""1.5"" fill=""none"" />
    <circle cx=500.1869997571515 cy=450 r=22.93035164890454 stroke=""none"" stroke-width=""1.5"" fill=""none"" />
    <circle cx=553.3199999999999 cy=396.8669997571516 r=22.93035164890454 stroke=""none"" stroke-width=""1.5"" fill=""none"" />
    <polygon points = ""553.3199999999999,450 559.7701932670785,427.06964835109545 546.8698067329213,427.06964835109545"" stroke=""none"" stroke-width=""3"" fill = ""none"" />
    
    </svg>
    </div>
        ","","","","","","","","","","","","get_response","true","0gNiuF7EVawxfZ79","","","true","true","false","183.68","4","511.79400000000004","53.13300024284841","1.16","1","0","","",""
"html-keyboard-response","94","248167","0.0-94.0","null","null","","
    <div style="" display: block;  position: relative;"">
    
