,trial_type,trial_index,time_elapsed,internal_node_id,rt,response,success,stimulus,start_time,start_time_unix,item_width_mm,item_height_mm,item_width_px,px2mm,view_dist_mm,item_width_deg,px2deg,win_width_deg,win_height_deg,trialType,correct,participantID,criticalSpacing,criticalSpacing_deg,isLeft,isUp,isEccen4,eccentricity,eccentricity_deg,viewingDistanceMean,critical_spacing,critical_spacing_deg,crowding_session,correctRate,viewDistance_1,viewDistance_2,viewDistance_3,age
0,pavlovia,0,5,0.0-0.0,,,,,,,,,,,,,,,,,,,,,,,,,,,,,,,,,,21
2,fullscreen,2,18824,0.0-2.0,,,True,,,,,,,,,,,,,,,,,,,,,,,,,,,,,,,21
3,html-keyboard-response,3,35234,0.0-3.0,16406.100000023842, ,,"<h1>Consent Form</h1>
       <p>By answering the following questions, you are participating in a study being performed by cognitive scientists in the Stanford Department of Psychology. If you have questions about this research, please contact us at stanfordpsych251@gmail.com. You must be at least 18 years old to participate. Your participation in this research is voluntary. You may decline to answer any or all of the following questions. You may decline further participation by closing the window, at any time, without adverse consequences. Your anonymity is assured; the researchers who have requested your participation will not receive any personal information about you.</p>
       <p>Press <b>any key</b> to start the experiment!</p>",,,,,,,,,,,,,,,,,,,,,,,,,,,,,,21
4,html-keyboard-response,4,38439,0.0-4.0,3202.399999976158, ,,"<h1>Welcome to the Visual Crowding Experiment!</h1>
       <p>This test will take <b>10-12</b> minutes to complete.</p>
       <p>Press any key to start the experiment!</p>",30/11/2021 23:54:37,1638338077902.0,,,,,,,,,,,,,,,,,,,,,,,,,,,,21
5,html-keyboard-response,5,52280,0.0-5.0,13838.700000047684,arrowdown,,"<div> 
<p> Before you begin this study, let&#39;s quickly test how far away you are sitting. You might know that vision tests at a doctor&#39;s practice often involve chinrests, the doctor basically asks you to sit away from a screen in a specific distance. We do this here with a <b>virtual chinrest</b>. </p>
<p> Please press the <b>down</b> arrow to continue.
</p>
</div>",,,,,,,,,,,,,,,,,,,,,,,,,,,,,,21
6,virtual-chinrest,6,194962,0.0-6.0,142677.80000007153,,,,,,85.6,53.98,640.0,7.48,396.12,12.333549338957852,51.89098307479411,26.32441937033817,14.800259206749423,,,,,,,,,,,,,,,,,,,21
7,html-keyboard-response,7,240950,0.0-7.0,45984.59999990463,arrowdown,,"
	<h2 class=""bolded-blue"">Now, you will take a peripheral vision test!</h2>
<p> 
	<b>
		<font size=""140%"">1. </font>
	</b>
	<em><b>Please use both eyes for the following task.</b></em> First, you will see a screen (like the one in the image below) showing a <b>black dot</b> in the middle of the screen, with a group of circles displayed on either the <span class=""bolded-blue"">left</span> or <span class=""bolded-blue"">right</span> of the black dot for 150 ms. <span class=""bolded-blue"">Please make sure to focus on the black dot all the time!</span>

	<div>
		<img src=""example.png"" alt=""example"" style=""border: 2px solid black"" width=""600""/> 
	</div>
	
	<b>
		<font size=""140%"">2. </font>
	</b>
	Your task is to identify whether the opening of the <b class=""bolded-blue"">center circle</b> is upward by pressing UP or downward by pressing DOWN on your keyboard. The opening of the circle will only be upward or downward, not towards left or right.

	<div>
		<img src=""arrow_keys+.png"" alt=""arrows"" style=""border: 2px solid black"" width=""600""/>
	</div>
	<br>

<p>Please press the <b>down</b> arrow key to start the <span class=""bolded-blue"">practice task</span> (this first practice task will not count toward your final results).</p>
</p>
",,,,,,,,,,,,,,,,,,,,,,,,,,,,,,21
8,html-keyboard-response,8,241464,0.0-8.0,,,,"
    <div style="" display: block;  position: relative;"">
    
    <svg width=1366 height=768>
    <circle cx=620 cy=384 r=18.688822067336 stroke=""black"" stroke-width=""1"" fill=""black"" />
    <circle cx=NaN cy=384 r=26.698317239051434 stroke=""none"" stroke-width=""1.5"" fill=""none"" />
    <circle cx=406.14 cy=NaN r=26.698317239051434 stroke=""none"" stroke-width=""1.5"" fill=""none"" />
    <circle cx=NaN cy=384 r=26.698317239051434 stroke=""none"" stroke-width=""1.5"" fill=""none"" />
    <circle cx=406.14 cy=NaN r=26.698317239051434 stroke=""none"" stroke-width=""1.5"" fill=""none"" />
    <polygon points = ""406.14,384 413.65010314775895,410.69831723905145 398.629896852241,410.69831723905145"" stroke=""none"" stroke-width=""3"" fill = ""none"" />
    
    </svg>
    </div>
        ",,,,,,,,,,,,,,,,,,,,,,,,,,,,,,21
9,html-keyboard-response,9,241635,0.0-9.0,,,,"
    <div style="" display: block;  position: relative;"">
    <svg width=1366 height=768>
    
    <circle cx=620 cy=384 r=18.688822067336 stroke=""black"" stroke-width=""1"" fill=""black"" />
    <circle cx=406.14 cy=384 r=26.698317239051434 stroke=""black"" stroke-width=""1.5"" fill=""none"" />
    <circle cx=545.149 cy=384 r=26.698317239051434 stroke=""black"" stroke-width=""1.5"" fill=""none"" />
    <circle cx=406.14 cy=523.009 r=26.698317239051434 stroke=""black"" stroke-width=""1.5"" fill=""none"" />
    <circle cx=267.131 cy=384 r=26.698317239051434 stroke=""black"" stroke-width=""1.5"" fill=""none"" />
    <circle cx=406.14 cy=244.99099999999999 r=26.698317239051434 stroke=""black"" stroke-width=""1.5"" fill=""none"" />
    <polygon points = ""406.14,384 413.65010314775895,410.69831723905145 398.629896852241,410.69831723905145"" stroke=""white"" stroke-width=""3"" fill = ""white"" />
    
    </svg>
    </div>
        ",,,,,,,,,,,,stimulus,,,,,,,,,,,,,,,,,,21
10,html-keyboard-response,10,246198,0.0-10.0,4560.100000023842,arrowdown,,"
    <div style="" display: block;  position: relative;"">
    
    <svg width=1366 height=768>
    <circle cx=620 cy=384 r=18.688822067336 stroke=""black"" stroke-width=""1"" fill=""black"" />
    <circle cx=545.149 cy=384 r=26.698317239051434 stroke=""none"" stroke-width=""1.5"" fill=""none"" />
    <circle cx=406.14 cy=523.009 r=26.698317239051434 stroke=""none"" stroke-width=""1.5"" fill=""none"" />
    <circle cx=267.131 cy=384 r=26.698317239051434 stroke=""none"" stroke-width=""1.5"" fill=""none"" />
    <circle cx=406.14 cy=244.99099999999999 r=26.698317239051434 stroke=""none"" stroke-width=""1.5"" fill=""none"" />
    <polygon points = ""406.14,384 413.65010314775895,410.69831723905145 398.629896852241,410.69831723905145"" stroke=""none"" stroke-width=""3"" fill = ""none"" />
    
    </svg>
    </div>
        ",,,,,,,,,,,,practice_get_response,True,Yy5NFQ5ygqRfrLZn,139.009,2.6,True,False,True,213.86,4.0,410.274,,,,,,,,21
11,html-keyboard-response,11,246716,0.0-11.0,,,,"
    <div style="" display: block;  position: relative;"">
    
    <svg width=1366 height=768>
    <circle cx=620 cy=384 r=18.688822067336 stroke=""black"" stroke-width=""1"" fill=""black"" />
    <circle cx=545.149 cy=384 r=26.698317239051434 stroke=""none"" stroke-width=""1.5"" fill=""none"" />
    <circle cx=406.14 cy=523.009 r=26.698317239051434 stroke=""none"" stroke-width=""1.5"" fill=""none"" />
    <circle cx=267.131 cy=384 r=26.698317239051434 stroke=""none"" stroke-width=""1.5"" fill=""none"" />
    <circle cx=406.14 cy=244.99099999999999 r=26.698317239051434 stroke=""none"" stroke-width=""1.5"" fill=""none"" />
    <polygon points = ""406.14,384 413.65010314775895,410.69831723905145 398.629896852241,410.69831723905145"" stroke=""none"" stroke-width=""3"" fill = ""none"" />
    
    </svg>
    </div>
        ",,,,,,,,,,,,,,,,,,,,,,,,,,,,,,21
12,html-keyboard-response,12,246869,0.0-12.0,,,,"
    <div style="" display: block;  position: relative;"">
    <svg width=1366 height=768>
    
    <circle cx=620 cy=384 r=18.688822067336 stroke=""black"" stroke-width=""1"" fill=""black"" />
    <circle cx=406.14 cy=384 r=26.698317239051434 stroke=""black"" stroke-width=""1.5"" fill=""none"" />
    <circle cx=545.149 cy=384 r=26.698317239051434 stroke=""black"" stroke-width=""1.5"" fill=""none"" />
    <circle cx=406.14 cy=523.009 r=26.698317239051434 stroke=""black"" stroke-width=""1.5"" fill=""none"" />
    <circle cx=267.131 cy=384 r=26.698317239051434 stroke=""black"" stroke-width=""1.5"" fill=""none"" />
    <circle cx=406.14 cy=244.99099999999999 r=26.698317239051434 stroke=""black"" stroke-width=""1.5"" fill=""none"" />
    <polygon points = ""406.14,384 413.65010314775895,410.69831723905145 398.629896852241,410.69831723905145"" stroke=""white"" stroke-width=""3"" fill = ""white"" />
    
    </svg>
    </div>
        ",,,,,,,,,,,,stimulus,,,,,,,,,,,,,,,,,,21
13,html-keyboard-response,13,248342,0.0-13.0,1470.899999976158,arrowdown,,"
    <div style="" display: block;  position: relative;"">
    
    <svg width=1366 height=768>
    <circle cx=620 cy=384 r=18.688822067336 stroke=""black"" stroke-width=""1"" fill=""black"" />
    <circle cx=545.149 cy=384 r=26.698317239051434 stroke=""none"" stroke-width=""1.5"" fill=""none"" />
    <circle cx=406.14 cy=523.009 r=26.698317239051434 stroke=""none"" stroke-width=""1.5"" fill=""none"" />
    <circle cx=267.131 cy=384 r=26.698317239051434 stroke=""none"" stroke-width=""1.5"" fill=""none"" />
    <circle cx=406.14 cy=244.99099999999999 r=26.698317239051434 stroke=""none"" stroke-width=""1.5"" fill=""none"" />
    <polygon points = ""406.14,384 413.65010314775895,410.69831723905145 398.629896852241,410.69831723905145"" stroke=""none"" stroke-width=""3"" fill = ""none"" />
    
    </svg>
    </div>
        ",,,,,,,,,,,,practice_get_response,True,Yy5NFQ5ygqRfrLZn,139.009,2.6,True,False,True,213.86,4.0,410.274,,,,,,,,21
14,html-keyboard-response,14,248845,0.0-14.0,,,,"
    <div style="" display: block;  position: relative;"">
    
    <svg width=1366 height=768>
    <circle cx=620 cy=384 r=18.688822067336 stroke=""black"" stroke-width=""1"" fill=""black"" />
    <circle cx=545.149 cy=384 r=26.698317239051434 stroke=""none"" stroke-width=""1.5"" fill=""none"" />
    <circle cx=406.14 cy=523.009 r=26.698317239051434 stroke=""none"" stroke-width=""1.5"" fill=""none"" />
    <circle cx=267.131 cy=384 r=26.698317239051434 stroke=""none"" stroke-width=""1.5"" fill=""none"" />
    <circle cx=406.14 cy=244.99099999999999 r=26.698317239051434 stroke=""none"" stroke-width=""1.5"" fill=""none"" />
    <polygon points = ""406.14,384 413.65010314775895,410.69831723905145 398.629896852241,410.69831723905145"" stroke=""none"" stroke-width=""3"" fill = ""none"" />
    
    </svg>
    </div>
        ",,,,,,,,,,,,,,,,,,,,,,,,,,,,,,21
15,html-keyboard-response,15,249008,0.0-15.0,,,,"
    <div style="" display: block;  position: relative;"">
    <svg width=1366 height=768>
    
    <circle cx=620 cy=384 r=18.688822067336 stroke=""black"" stroke-width=""1"" fill=""black"" />
    <circle cx=833.86 cy=384 r=26.698317239051434 stroke=""black"" stroke-width=""1.5"" fill=""none"" />
    <circle cx=972.869 cy=384 r=26.698317239051434 stroke=""black"" stroke-width=""1.5"" fill=""none"" />
    <circle cx=833.86 cy=523.009 r=26.698317239051434 stroke=""black"" stroke-width=""1.5"" fill=""none"" />
    <circle cx=694.851 cy=384 r=26.698317239051434 stroke=""black"" stroke-width=""1.5"" fill=""none"" />
    <circle cx=833.86 cy=244.99099999999999 r=26.698317239051434 stroke=""black"" stroke-width=""1.5"" fill=""none"" />
    <polygon points = ""833.86,384 841.370103147759,357.30168276094855 826.349896852241,357.30168276094855"" stroke=""white"" stroke-width=""3"" fill = ""white"" />
    
    </svg>
    </div>
        ",,,,,,,,,,,,stimulus,,,,,,,,,,,,,,,,,,21
16,html-keyboard-response,16,249542,0.0-16.0,531.7999999523163,arrowup,,"
    <div style="" display: block;  position: relative;"">
    
    <svg width=1366 height=768>
    <circle cx=620 cy=384 r=18.688822067336 stroke=""black"" stroke-width=""1"" fill=""black"" />
    <circle cx=972.869 cy=384 r=26.698317239051434 stroke=""none"" stroke-width=""1.5"" fill=""none"" />
    <circle cx=833.86 cy=523.009 r=26.698317239051434 stroke=""none"" stroke-width=""1.5"" fill=""none"" />
    <circle cx=694.851 cy=384 r=26.698317239051434 stroke=""none"" stroke-width=""1.5"" fill=""none"" />
    <circle cx=833.86 cy=244.99099999999999 r=26.698317239051434 stroke=""none"" stroke-width=""1.5"" fill=""none"" />
    <polygon points = ""833.86,384 841.370103147759,357.30168276094855 826.349896852241,357.30168276094855"" stroke=""none"" stroke-width=""3"" fill = ""none"" />
    
    </svg>
    </div>
        ",,,,,,,,,,,,practice_get_response,True,Yy5NFQ5ygqRfrLZn,139.009,2.6,False,True,True,213.86,4.0,410.274,,,,,,,,21
17,html-keyboard-response,17,250046,0.0-17.0,,,,"
    <div style="" display: block;  position: relative;"">
    
    <svg width=1366 height=768>
    <circle cx=620 cy=384 r=18.688822067336 stroke=""black"" stroke-width=""1"" fill=""black"" />
    <circle cx=972.869 cy=384 r=26.698317239051434 stroke=""none"" stroke-width=""1.5"" fill=""none"" />
    <circle cx=833.86 cy=523.009 r=26.698317239051434 stroke=""none"" stroke-width=""1.5"" fill=""none"" />
    <circle cx=694.851 cy=384 r=26.698317239051434 stroke=""none"" stroke-width=""1.5"" fill=""none"" />
    <circle cx=833.86 cy=244.99099999999999 r=26.698317239051434 stroke=""none"" stroke-width=""1.5"" fill=""none"" />
    <polygon points = ""833.86,384 841.370103147759,357.30168276094855 826.349896852241,357.30168276094855"" stroke=""none"" stroke-width=""3"" fill = ""none"" />
    
    </svg>
    </div>
        ",,,,,,,,,,,,,,,,,,,,,,,,,,,,,,21
18,html-keyboard-response,18,250208,0.0-18.0,,,,"
    <div style="" display: block;  position: relative;"">
    <svg width=1366 height=768>
    
    <circle cx=620 cy=384 r=18.688822067336 stroke=""black"" stroke-width=""1"" fill=""black"" />
    <circle cx=406.14 cy=384 r=26.698317239051434 stroke=""black"" stroke-width=""1.5"" fill=""none"" />
    <circle cx=532.5118181818182 cy=384 r=26.698317239051434 stroke=""black"" stroke-width=""1.5"" fill=""none"" />
    <circle cx=406.14 cy=510.3718181818182 r=26.698317239051434 stroke=""black"" stroke-width=""1.5"" fill=""none"" />
    <circle cx=279.7681818181818 cy=384 r=26.698317239051434 stroke=""black"" stroke-width=""1.5"" fill=""none"" />
    <circle cx=406.14 cy=257.6281818181818 r=26.698317239051434 stroke=""black"" stroke-width=""1.5"" fill=""none"" />
    <polygon points = ""406.14,384 413.65010314775895,357.30168276094855 398.629896852241,357.30168276094855"" stroke=""white"" stroke-width=""3"" fill = ""white"" />
    
    </svg>
    </div>
        ",,,,,,,,,,,,stimulus,,,,,,,,,,,,,,,,,,21
19,html-keyboard-response,19,251253,0.0-19.0,1042.899999976158,arrowup,,"
    <div style="" display: block;  position: relative;"">
    
    <svg width=1366 height=768>
    <circle cx=620 cy=384 r=18.688822067336 stroke=""black"" stroke-width=""1"" fill=""black"" />
    <circle cx=532.5118181818182 cy=384 r=26.698317239051434 stroke=""none"" stroke-width=""1.5"" fill=""none"" />
    <circle cx=406.14 cy=510.3718181818182 r=26.698317239051434 stroke=""none"" stroke-width=""1.5"" fill=""none"" />
    <circle cx=279.7681818181818 cy=384 r=26.698317239051434 stroke=""none"" stroke-width=""1.5"" fill=""none"" />
    <circle cx=406.14 cy=257.6281818181818 r=26.698317239051434 stroke=""none"" stroke-width=""1.5"" fill=""none"" />
    <polygon points = ""406.14,384 413.65010314775895,357.30168276094855 398.629896852241,357.30168276094855"" stroke=""none"" stroke-width=""3"" fill = ""none"" />
    
    </svg>
    </div>
        ",,,,,,,,,,,,practice_get_response,True,Yy5NFQ5ygqRfrLZn,126.37181818181818,2.36,True,True,True,213.86,4.0,410.274,,,,,,,,21
20,html-keyboard-response,20,251768,0.0-20.0,,,,"
    <div style="" display: block;  position: relative;"">
    
    <svg width=1366 height=768>
    <circle cx=620 cy=384 r=18.688822067336 stroke=""black"" stroke-width=""1"" fill=""black"" />
    <circle cx=532.5118181818182 cy=384 r=26.698317239051434 stroke=""none"" stroke-width=""1.5"" fill=""none"" />
    <circle cx=406.14 cy=510.3718181818182 r=26.698317239051434 stroke=""none"" stroke-width=""1.5"" fill=""none"" />
    <circle cx=279.7681818181818 cy=384 r=26.698317239051434 stroke=""none"" stroke-width=""1.5"" fill=""none"" />
    <circle cx=406.14 cy=257.6281818181818 r=26.698317239051434 stroke=""none"" stroke-width=""1.5"" fill=""none"" />
    <polygon points = ""406.14,384 413.65010314775895,357.30168276094855 398.629896852241,357.30168276094855"" stroke=""none"" stroke-width=""3"" fill = ""none"" />
    
    </svg>
    </div>
        ",,,,,,,,,,,,,,,,,,,,,,,,,,,,,,21
21,html-keyboard-response,21,251931,0.0-21.0,,,,"
    <div style="" display: block;  position: relative;"">
    <svg width=1366 height=768>
    
    <circle cx=620 cy=384 r=18.688822067336 stroke=""black"" stroke-width=""1"" fill=""black"" />
    <circle cx=406.14 cy=384 r=26.698317239051434 stroke=""black"" stroke-width=""1.5"" fill=""none"" />
    <circle cx=521.0234710743802 cy=384 r=26.698317239051434 stroke=""black"" stroke-width=""1.5"" fill=""none"" />
    <circle cx=406.14 cy=498.88347107438017 r=26.698317239051434 stroke=""black"" stroke-width=""1.5"" fill=""none"" />
    <circle cx=291.2565289256198 cy=384 r=26.698317239051434 stroke=""black"" stroke-width=""1.5"" fill=""none"" />
    <circle cx=406.14 cy=269.11652892561983 r=26.698317239051434 stroke=""black"" stroke-width=""1.5"" fill=""none"" />
    <polygon points = ""406.14,384 413.65010314775895,410.69831723905145 398.629896852241,410.69831723905145"" stroke=""white"" stroke-width=""3"" fill = ""white"" />
    
    </svg>
    </div>
        ",,,,,,,,,,,,stimulus,,,,,,,,,,,,,,,,,,21
22,html-keyboard-response,22,252438,0.0-22.0,504.2999999523163,arrowdown,,"
    <div style="" display: block;  position: relative;"">
    
    <svg width=1366 height=768>
    <circle cx=620 cy=384 r=18.688822067336 stroke=""black"" stroke-width=""1"" fill=""black"" />
    <circle cx=521.0234710743802 cy=384 r=26.698317239051434 stroke=""none"" stroke-width=""1.5"" fill=""none"" />
    <circle cx=406.14 cy=498.88347107438017 r=26.698317239051434 stroke=""none"" stroke-width=""1.5"" fill=""none"" />
    <circle cx=291.2565289256198 cy=384 r=26.698317239051434 stroke=""none"" stroke-width=""1.5"" fill=""none"" />
    <circle cx=406.14 cy=269.11652892561983 r=26.698317239051434 stroke=""none"" stroke-width=""1.5"" fill=""none"" />
    <polygon points = ""406.14,384 413.65010314775895,410.69831723905145 398.629896852241,410.69831723905145"" stroke=""none"" stroke-width=""3"" fill = ""none"" />
    
    </svg>
    </div>
        ",,,,,,,,,,,,practice_get_response,True,Yy5NFQ5ygqRfrLZn,114.88347107438015,2.15,True,False,True,213.86,4.0,410.274,,,,,,,,21
23,html-keyboard-response,23,258086,0.0-23.0,5646.199999928474,arrowdown,,"<div> 
<h2 class=""bolded-blue"">Well done!</h2>
<p> Now that you have the hang of it, we&#39;ll start the study. This session has 25 trials and takes about 2 minute to complete. </p> 
<p>If you are ready for the real deal, please press the <b>down</b> arrow to continue.
</p>
</div>",,,,,,,,,,,,,,,,,,,,,,,,,,,,,,21
24,html-keyboard-response,24,265758,0.0-24.0,7669.700000047684,arrowdown,,"<div id=""continue""> 
<p>Again, please keep the <b>full screen</b> mode for the best experience.</p>
<p>Please do not move around and keep your eye on the black dot. Click <b>up</b> or <b>down</b> key on your keyboard to indicate the opening of the center circle. Make your best guess!</p>
<p>Please press the <b>down</b> arrow key to start the session 1. </p>
</div>",,,,,,,,,,,,,,,,,,,,,,,,,,,,,,21
25,html-keyboard-response,25,266270,0.0-25.0,,,,"
    <div style="" display: block;  position: relative;"">
    
    <svg width=1366 height=768>
    <circle cx=620 cy=384 r=18.688822067336 stroke=""black"" stroke-width=""1"" fill=""black"" />
    <circle cx=521.0234710743802 cy=384 r=26.698317239051434 stroke=""none"" stroke-width=""1.5"" fill=""none"" />
    <circle cx=406.14 cy=498.88347107438017 r=26.698317239051434 stroke=""none"" stroke-width=""1.5"" fill=""none"" />
    <circle cx=291.2565289256198 cy=384 r=26.698317239051434 stroke=""none"" stroke-width=""1.5"" fill=""none"" />
    <circle cx=406.14 cy=269.11652892561983 r=26.698317239051434 stroke=""none"" stroke-width=""1.5"" fill=""none"" />
    <polygon points = ""406.14,384 413.65010314775895,410.69831723905145 398.629896852241,410.69831723905145"" stroke=""none"" stroke-width=""3"" fill = ""none"" />
    
    </svg>
    </div>
        ",,,,,,,,,,,,,,,,,,,,,,,,,,,,,,21
26,html-keyboard-response,26,266424,0.0-26.0,,,,"
    <div style="" display: block;  position: relative;"">
    <svg width=1366 height=768>
    
    <circle cx=620 cy=384 r=18.688822067336 stroke=""black"" stroke-width=""1"" fill=""black"" />
    <circle cx=406.14 cy=384 r=26.698317239051434 stroke=""black"" stroke-width=""1.5"" fill=""none"" />
    <circle cx=545.149 cy=384 r=26.698317239051434 stroke=""black"" stroke-width=""1.5"" fill=""none"" />
    <circle cx=406.14 cy=523.009 r=26.698317239051434 stroke=""black"" stroke-width=""1.5"" fill=""none"" />
    <circle cx=267.131 cy=384 r=26.698317239051434 stroke=""black"" stroke-width=""1.5"" fill=""none"" />
    <circle cx=406.14 cy=244.99099999999999 r=26.698317239051434 stroke=""black"" stroke-width=""1.5"" fill=""none"" />
    <polygon points = ""406.14,384 413.65010314775895,357.30168276094855 398.629896852241,357.30168276094855"" stroke=""white"" stroke-width=""3"" fill = ""white"" />
    
    </svg>
    </div>
        ",,,,,,,,,,,,stimulus,,,,,,,,,,,,,,,,,,21
27,html-keyboard-response,27,266893,0.0-27.0,467.10000002384186,arrowup,,"
    <div style="" display: block;  position: relative;"">
    
    <svg width=1366 height=768>
    <circle cx=620 cy=384 r=18.688822067336 stroke=""black"" stroke-width=""1"" fill=""black"" />
    <circle cx=545.149 cy=384 r=26.698317239051434 stroke=""none"" stroke-width=""1.5"" fill=""none"" />
    <circle cx=406.14 cy=523.009 r=26.698317239051434 stroke=""none"" stroke-width=""1.5"" fill=""none"" />
    <circle cx=267.131 cy=384 r=26.698317239051434 stroke=""none"" stroke-width=""1.5"" fill=""none"" />
    <circle cx=406.14 cy=244.99099999999999 r=26.698317239051434 stroke=""none"" stroke-width=""1.5"" fill=""none"" />
    <polygon points = ""406.14,384 413.65010314775895,357.30168276094855 398.629896852241,357.30168276094855"" stroke=""none"" stroke-width=""3"" fill = ""none"" />
    
    </svg>
    </div>
        ",,,,,,,,,,,,get_response,True,Yy5NFQ5ygqRfrLZn,,,True,True,True,213.86,4.0,410.274,139.009,2.6,1.0,0.0,,,,21
28,html-keyboard-response,28,267412,0.0-28.0,,,,"
    <div style="" display: block;  position: relative;"">
    
    <svg width=1366 height=768>
    <circle cx=620 cy=384 r=18.688822067336 stroke=""black"" stroke-width=""1"" fill=""black"" />
    <circle cx=545.149 cy=384 r=26.698317239051434 stroke=""none"" stroke-width=""1.5"" fill=""none"" />
    <circle cx=406.14 cy=523.009 r=26.698317239051434 stroke=""none"" stroke-width=""1.5"" fill=""none"" />
    <circle cx=267.131 cy=384 r=26.698317239051434 stroke=""none"" stroke-width=""1.5"" fill=""none"" />
    <circle cx=406.14 cy=244.99099999999999 r=26.698317239051434 stroke=""none"" stroke-width=""1.5"" fill=""none"" />
    <polygon points = ""406.14,384 413.65010314775895,357.30168276094855 398.629896852241,357.30168276094855"" stroke=""none"" stroke-width=""3"" fill = ""none"" />
    
    </svg>
    </div>
        ",,,,,,,,,,,,,,,,,,,,,,,,,,,,,,21
29,html-keyboard-response,29,267575,0.0-29.0,,,,"
    <div style="" display: block;  position: relative;"">
    <svg width=1366 height=768>
    
    <circle cx=620 cy=384 r=18.688822067336 stroke=""black"" stroke-width=""1"" fill=""black"" />
    <circle cx=406.14 cy=384 r=26.698317239051434 stroke=""black"" stroke-width=""1.5"" fill=""none"" />
    <circle cx=545.149 cy=384 r=26.698317239051434 stroke=""black"" stroke-width=""1.5"" fill=""none"" />
    <circle cx=406.14 cy=523.009 r=26.698317239051434 stroke=""black"" stroke-width=""1.5"" fill=""none"" />
    <circle cx=267.131 cy=384 r=26.698317239051434 stroke=""black"" stroke-width=""1.5"" fill=""none"" />
    <circle cx=406.14 cy=244.99099999999999 r=26.698317239051434 stroke=""black"" stroke-width=""1.5"" fill=""none"" />
    <polygon points = ""406.14,384 413.65010314775895,357.30168276094855 398.629896852241,357.30168276094855"" stroke=""white"" stroke-width=""3"" fill = ""white"" />
    
    </svg>
    </div>
        ",,,,,,,,,,,,stimulus,,,,,,,,,,,,,,,,,,21
30,html-keyboard-response,30,268014,0.0-30.0,437.1999999284744,arrowup,,"
    <div style="" display: block;  position: relative;"">
    
    <svg width=1366 height=768>
    <circle cx=620 cy=384 r=18.688822067336 stroke=""black"" stroke-width=""1"" fill=""black"" />
    <circle cx=545.149 cy=384 r=26.698317239051434 stroke=""none"" stroke-width=""1.5"" fill=""none"" />
    <circle cx=406.14 cy=523.009 r=26.698317239051434 stroke=""none"" stroke-width=""1.5"" fill=""none"" />
    <circle cx=267.131 cy=384 r=26.698317239051434 stroke=""none"" stroke-width=""1.5"" fill=""none"" />
    <circle cx=406.14 cy=244.99099999999999 r=26.698317239051434 stroke=""none"" stroke-width=""1.5"" fill=""none"" />
    <polygon points = ""406.14,384 413.65010314775895,357.30168276094855 398.629896852241,357.30168276094855"" stroke=""none"" stroke-width=""3"" fill = ""none"" />
    
    </svg>
    </div>
        ",,,,,,,,,,,,get_response,True,Yy5NFQ5ygqRfrLZn,,,True,True,True,213.86,4.0,410.274,139.009,2.6,1.0,0.0,,,,21
31,html-keyboard-response,31,268530,0.0-31.0,,,,"
    <div style="" display: block;  position: relative;"">
    
    <svg width=1366 height=768>
    <circle cx=620 cy=384 r=18.688822067336 stroke=""black"" stroke-width=""1"" fill=""black"" />
    <circle cx=545.149 cy=384 r=26.698317239051434 stroke=""none"" stroke-width=""1.5"" fill=""none"" />
    <circle cx=406.14 cy=523.009 r=26.698317239051434 stroke=""none"" stroke-width=""1.5"" fill=""none"" />
    <circle cx=267.131 cy=384 r=26.698317239051434 stroke=""none"" stroke-width=""1.5"" fill=""none"" />
    <circle cx=406.14 cy=244.99099999999999 r=26.698317239051434 stroke=""none"" stroke-width=""1.5"" fill=""none"" />
    <polygon points = ""406.14,384 413.65010314775895,357.30168276094855 398.629896852241,357.30168276094855"" stroke=""none"" stroke-width=""3"" fill = ""none"" />
    
    </svg>
    </div>
        ",,,,,,,,,,,,,,,,,,,,,,,,,,,,,,21
32,html-keyboard-response,32,268693,0.0-32.0,,,,"
    <div style="" display: block;  position: relative;"">
    <svg width=1366 height=768>
    
    <circle cx=620 cy=384 r=18.688822067336 stroke=""black"" stroke-width=""1"" fill=""black"" />
    <circle cx=406.14 cy=384 r=26.698317239051434 stroke=""black"" stroke-width=""1.5"" fill=""none"" />
    <circle cx=545.149 cy=384 r=26.698317239051434 stroke=""black"" stroke-width=""1.5"" fill=""none"" />
    <circle cx=406.14 cy=523.009 r=26.698317239051434 stroke=""black"" stroke-width=""1.5"" fill=""none"" />
    <circle cx=267.131 cy=384 r=26.698317239051434 stroke=""black"" stroke-width=""1.5"" fill=""none"" />
    <circle cx=406.14 cy=244.99099999999999 r=26.698317239051434 stroke=""black"" stroke-width=""1.5"" fill=""none"" />
    <polygon points = ""406.14,384 413.65010314775895,357.30168276094855 398.629896852241,357.30168276094855"" stroke=""white"" stroke-width=""3"" fill = ""white"" />
    
    </svg>
    </div>
        ",,,,,,,,,,,,stimulus,,,,,,,,,,,,,,,,,,21
33,html-keyboard-response,33,269173,0.0-33.0,478.2999999523163,arrowup,,"
    <div style="" display: block;  position: relative;"">
    
    <svg width=1366 height=768>
    <circle cx=620 cy=384 r=18.688822067336 stroke=""black"" stroke-width=""1"" fill=""black"" />
    <circle cx=545.149 cy=384 r=26.698317239051434 stroke=""none"" stroke-width=""1.5"" fill=""none"" />
    <circle cx=406.14 cy=523.009 r=26.698317239051434 stroke=""none"" stroke-width=""1.5"" fill=""none"" />
    <circle cx=267.131 cy=384 r=26.698317239051434 stroke=""none"" stroke-width=""1.5"" fill=""none"" />
    <circle cx=406.14 cy=244.99099999999999 r=26.698317239051434 stroke=""none"" stroke-width=""1.5"" fill=""none"" />
    <polygon points = ""406.14,384 413.65010314775895,357.30168276094855 398.629896852241,357.30168276094855"" stroke=""none"" stroke-width=""3"" fill = ""none"" />
    
    </svg>
    </div>
        ",,,,,,,,,,,,get_response,True,Yy5NFQ5ygqRfrLZn,,,True,True,True,213.86,4.0,410.274,139.009,2.6,1.0,0.0,,,,21
34,html-keyboard-response,34,269683,0.0-34.0,,,,"
    <div style="" display: block;  position: relative;"">
    
    <svg width=1366 height=768>
    <circle cx=620 cy=384 r=18.688822067336 stroke=""black"" stroke-width=""1"" fill=""black"" />
    <circle cx=545.149 cy=384 r=26.698317239051434 stroke=""none"" stroke-width=""1.5"" fill=""none"" />
    <circle cx=406.14 cy=523.009 r=26.698317239051434 stroke=""none"" stroke-width=""1.5"" fill=""none"" />
    <circle cx=267.131 cy=384 r=26.698317239051434 stroke=""none"" stroke-width=""1.5"" fill=""none"" />
    <circle cx=406.14 cy=244.99099999999999 r=26.698317239051434 stroke=""none"" stroke-width=""1.5"" fill=""none"" />
    <polygon points = ""406.14,384 413.65010314775895,357.30168276094855 398.629896852241,357.30168276094855"" stroke=""none"" stroke-width=""3"" fill = ""none"" />
    
    </svg>
    </div>
        ",,,,,,,,,,,,,,,,,,,,,,,,,,,,,,21
35,html-keyboard-response,35,269850,0.0-35.0,,,,"
    <div style="" display: block;  position: relative;"">
    <svg width=1366 height=768>
    
    <circle cx=620 cy=384 r=18.688822067336 stroke=""black"" stroke-width=""1"" fill=""black"" />
    <circle cx=833.86 cy=384 r=26.698317239051434 stroke=""black"" stroke-width=""1.5"" fill=""none"" />
    <circle cx=960.2318181818182 cy=384 r=26.698317239051434 stroke=""black"" stroke-width=""1.5"" fill=""none"" />
    <circle cx=833.86 cy=510.3718181818182 r=26.698317239051434 stroke=""black"" stroke-width=""1.5"" fill=""none"" />
    <circle cx=707.4881818181818 cy=384 r=26.698317239051434 stroke=""black"" stroke-width=""1.5"" fill=""none"" />
    <circle cx=833.86 cy=257.6281818181818 r=26.698317239051434 stroke=""black"" stroke-width=""1.5"" fill=""none"" />
    <polygon points = ""833.86,384 841.370103147759,357.30168276094855 826.349896852241,357.30168276094855"" stroke=""white"" stroke-width=""3"" fill = ""white"" />
    
    </svg>
    </div>
        ",,,,,,,,,,,,stimulus,,,,,,,,,,,,,,,,,,21
36,html-keyboard-response,36,270277,0.0-36.0,425.5,arrowup,,"
    <div style="" display: block;  position: relative;"">
    
    <svg width=1366 height=768>
    <circle cx=620 cy=384 r=18.688822067336 stroke=""black"" stroke-width=""1"" fill=""black"" />
    <circle cx=960.2318181818182 cy=384 r=26.698317239051434 stroke=""none"" stroke-width=""1.5"" fill=""none"" />
    <circle cx=833.86 cy=510.3718181818182 r=26.698317239051434 stroke=""none"" stroke-width=""1.5"" fill=""none"" />
    <circle cx=707.4881818181818 cy=384 r=26.698317239051434 stroke=""none"" stroke-width=""1.5"" fill=""none"" />
    <circle cx=833.86 cy=257.6281818181818 r=26.698317239051434 stroke=""none"" stroke-width=""1.5"" fill=""none"" />
    <polygon points = ""833.86,384 841.370103147759,357.30168276094855 826.349896852241,357.30168276094855"" stroke=""none"" stroke-width=""3"" fill = ""none"" />
    
    </svg>
    </div>
        ",,,,,,,,,,,,get_response,True,Yy5NFQ5ygqRfrLZn,,,False,True,True,213.86,4.0,410.274,126.37181818181818,2.36,1.0,0.0,,,,21
37,html-keyboard-response,37,270783,0.0-37.0,,,,"
    <div style="" display: block;  position: relative;"">
    
    <svg width=1366 height=768>
    <circle cx=620 cy=384 r=18.688822067336 stroke=""black"" stroke-width=""1"" fill=""black"" />
    <circle cx=960.2318181818182 cy=384 r=26.698317239051434 stroke=""none"" stroke-width=""1.5"" fill=""none"" />
    <circle cx=833.86 cy=510.3718181818182 r=26.698317239051434 stroke=""none"" stroke-width=""1.5"" fill=""none"" />
    <circle cx=707.4881818181818 cy=384 r=26.698317239051434 stroke=""none"" stroke-width=""1.5"" fill=""none"" />
    <circle cx=833.86 cy=257.6281818181818 r=26.698317239051434 stroke=""none"" stroke-width=""1.5"" fill=""none"" />
    <polygon points = ""833.86,384 841.370103147759,357.30168276094855 826.349896852241,357.30168276094855"" stroke=""none"" stroke-width=""3"" fill = ""none"" />
    
    </svg>
    </div>
        ",,,,,,,,,,,,,,,,,,,,,,,,,,,,,,21
38,html-keyboard-response,38,270937,0.0-38.0,,,,"
    <div style="" display: block;  position: relative;"">
    <svg width=1366 height=768>
    
    <circle cx=620 cy=384 r=18.688822067336 stroke=""black"" stroke-width=""1"" fill=""black"" />
    <circle cx=833.86 cy=384 r=26.698317239051434 stroke=""black"" stroke-width=""1.5"" fill=""none"" />
    <circle cx=948.7434710743802 cy=384 r=26.698317239051434 stroke=""black"" stroke-width=""1.5"" fill=""none"" />
    <circle cx=833.86 cy=498.88347107438017 r=26.698317239051434 stroke=""black"" stroke-width=""1.5"" fill=""none"" />
    <circle cx=718.9765289256198 cy=384 r=26.698317239051434 stroke=""black"" stroke-width=""1.5"" fill=""none"" />
    <circle cx=833.86 cy=269.11652892561983 r=26.698317239051434 stroke=""black"" stroke-width=""1.5"" fill=""none"" />
    <polygon points = ""833.86,384 841.370103147759,357.30168276094855 826.349896852241,357.30168276094855"" stroke=""white"" stroke-width=""3"" fill = ""white"" />
    
    </svg>
    </div>
        ",,,,,,,,,,,,stimulus,,,,,,,,,,,,,,,,,,21
39,html-keyboard-response,39,271269,0.0-39.0,330.5,arrowup,,"
    <div style="" display: block;  position: relative;"">
    
    <svg width=1366 height=768>
    <circle cx=620 cy=384 r=18.688822067336 stroke=""black"" stroke-width=""1"" fill=""black"" />
    <circle cx=948.7434710743802 cy=384 r=26.698317239051434 stroke=""none"" stroke-width=""1.5"" fill=""none"" />
    <circle cx=833.86 cy=498.88347107438017 r=26.698317239051434 stroke=""none"" stroke-width=""1.5"" fill=""none"" />
    <circle cx=718.9765289256198 cy=384 r=26.698317239051434 stroke=""none"" stroke-width=""1.5"" fill=""none"" />
    <circle cx=833.86 cy=269.11652892561983 r=26.698317239051434 stroke=""none"" stroke-width=""1.5"" fill=""none"" />
    <polygon points = ""833.86,384 841.370103147759,357.30168276094855 826.349896852241,357.30168276094855"" stroke=""none"" stroke-width=""3"" fill = ""none"" />
    
    </svg>
    </div>
        ",,,,,,,,,,,,get_response,True,Yy5NFQ5ygqRfrLZn,,,False,True,True,213.86,4.0,410.274,114.88347107438015,2.15,1.0,0.0,,,,21
40,html-keyboard-response,40,271787,0.0-40.0,,,,"
    <div style="" display: block;  position: relative;"">
    
    <svg width=1366 height=768>
    <circle cx=620 cy=384 r=18.688822067336 stroke=""black"" stroke-width=""1"" fill=""black"" />
    <circle cx=948.7434710743802 cy=384 r=26.698317239051434 stroke=""none"" stroke-width=""1.5"" fill=""none"" />
    <circle cx=833.86 cy=498.88347107438017 r=26.698317239051434 stroke=""none"" stroke-width=""1.5"" fill=""none"" />
    <circle cx=718.9765289256198 cy=384 r=26.698317239051434 stroke=""none"" stroke-width=""1.5"" fill=""none"" />
    <circle cx=833.86 cy=269.11652892561983 r=26.698317239051434 stroke=""none"" stroke-width=""1.5"" fill=""none"" />
    <polygon points = ""833.86,384 841.370103147759,357.30168276094855 826.349896852241,357.30168276094855"" stroke=""none"" stroke-width=""3"" fill = ""none"" />
    
    </svg>
    </div>
        ",,,,,,,,,,,,,,,,,,,,,,,,,,,,,,21
41,html-keyboard-response,41,271940,0.0-41.0,,,,"
    <div style="" display: block;  position: relative;"">
    <svg width=1366 height=768>
    
    <circle cx=620 cy=384 r=18.688822067336 stroke=""black"" stroke-width=""1"" fill=""black"" />
    <circle cx=833.86 cy=384 r=26.698317239051434 stroke=""black"" stroke-width=""1.5"" fill=""none"" />
    <circle cx=938.2995191585275 cy=384 r=26.698317239051434 stroke=""black"" stroke-width=""1.5"" fill=""none"" />
    <circle cx=833.86 cy=488.4395191585274 r=26.698317239051434 stroke=""black"" stroke-width=""1.5"" fill=""none"" />
    <circle cx=729.4204808414726 cy=384 r=26.698317239051434 stroke=""black"" stroke-width=""1.5"" fill=""none"" />
    <circle cx=833.86 cy=279.5604808414726 r=26.698317239051434 stroke=""black"" stroke-width=""1.5"" fill=""none"" />
    <polygon points = ""833.86,384 841.370103147759,410.69831723905145 826.349896852241,410.69831723905145"" stroke=""white"" stroke-width=""3"" fill = ""white"" />
    
    </svg>
    </div>
        ",,,,,,,,,,,,stimulus,,,,,,,,,,,,,,,,,,21
42,html-keyboard-response,42,272334,0.0-42.0,391.3999999761581,arrowdown,,"
    <div style="" display: block;  position: relative;"">
    
    <svg width=1366 height=768>
    <circle cx=620 cy=384 r=18.688822067336 stroke=""black"" stroke-width=""1"" fill=""black"" />
    <circle cx=938.2995191585275 cy=384 r=26.698317239051434 stroke=""none"" stroke-width=""1.5"" fill=""none"" />
    <circle cx=833.86 cy=488.4395191585274 r=26.698317239051434 stroke=""none"" stroke-width=""1.5"" fill=""none"" />
    <circle cx=729.4204808414726 cy=384 r=26.698317239051434 stroke=""none"" stroke-width=""1.5"" fill=""none"" />
    <circle cx=833.86 cy=279.5604808414726 r=26.698317239051434 stroke=""none"" stroke-width=""1.5"" fill=""none"" />
    <polygon points = ""833.86,384 841.370103147759,410.69831723905145 826.349896852241,410.69831723905145"" stroke=""none"" stroke-width=""3"" fill = ""none"" />
    
    </svg>
    </div>
        ",,,,,,,,,,,,get_response,True,Yy5NFQ5ygqRfrLZn,,,False,False,True,213.86,4.0,410.274,104.4395191585274,1.95,1.0,0.0,,,,21
43,html-keyboard-response,43,272844,0.0-43.0,,,,"
    <div style="" display: block;  position: relative;"">
    
    <svg width=1366 height=768>
    <circle cx=620 cy=384 r=18.688822067336 stroke=""black"" stroke-width=""1"" fill=""black"" />
    <circle cx=938.2995191585275 cy=384 r=26.698317239051434 stroke=""none"" stroke-width=""1.5"" fill=""none"" />
    <circle cx=833.86 cy=488.4395191585274 r=26.698317239051434 stroke=""none"" stroke-width=""1.5"" fill=""none"" />
    <circle cx=729.4204808414726 cy=384 r=26.698317239051434 stroke=""none"" stroke-width=""1.5"" fill=""none"" />
    <circle cx=833.86 cy=279.5604808414726 r=26.698317239051434 stroke=""none"" stroke-width=""1.5"" fill=""none"" />
    <polygon points = ""833.86,384 841.370103147759,410.69831723905145 826.349896852241,410.69831723905145"" stroke=""none"" stroke-width=""3"" fill = ""none"" />
    
    </svg>
    </div>
        ",,,,,,,,,,,,,,,,,,,,,,,,,,,,,,21
44,html-keyboard-response,44,273006,0.0-44.0,,,,"
    <div style="" display: block;  position: relative;"">
    <svg width=1366 height=768>
    
    <circle cx=620 cy=384 r=18.688822067336 stroke=""black"" stroke-width=""1"" fill=""black"" />
    <circle cx=406.14 cy=384 r=26.698317239051434 stroke=""black"" stroke-width=""1.5"" fill=""none"" />
    <circle cx=501.0850174168431 cy=384 r=26.698317239051434 stroke=""black"" stroke-width=""1.5"" fill=""none"" />
    <circle cx=406.14 cy=478.9450174168431 r=26.698317239051434 stroke=""black"" stroke-width=""1.5"" fill=""none"" />
    <circle cx=311.1949825831569 cy=384 r=26.698317239051434 stroke=""black"" stroke-width=""1.5"" fill=""none"" />
    <circle cx=406.14 cy=289.0549825831569 r=26.698317239051434 stroke=""black"" stroke-width=""1.5"" fill=""none"" />
    <polygon points = ""406.14,384 413.65010314775895,357.30168276094855 398.629896852241,357.30168276094855"" stroke=""white"" stroke-width=""3"" fill = ""white"" />
    
    </svg>
    </div>
        ",,,,,,,,,,,,stimulus,,,,,,,,,,,,,,,,,,21
45,html-keyboard-response,45,273317,0.0-45.0,309.0,arrowup,,"
    <div style="" display: block;  position: relative;"">
    
    <svg width=1366 height=768>
    <circle cx=620 cy=384 r=18.688822067336 stroke=""black"" stroke-width=""1"" fill=""black"" />
    <circle cx=501.0850174168431 cy=384 r=26.698317239051434 stroke=""none"" stroke-width=""1.5"" fill=""none"" />
    <circle cx=406.14 cy=478.9450174168431 r=26.698317239051434 stroke=""none"" stroke-width=""1.5"" fill=""none"" />
    <circle cx=311.1949825831569 cy=384 r=26.698317239051434 stroke=""none"" stroke-width=""1.5"" fill=""none"" />
    <circle cx=406.14 cy=289.0549825831569 r=26.698317239051434 stroke=""none"" stroke-width=""1.5"" fill=""none"" />
    <polygon points = ""406.14,384 413.65010314775895,357.30168276094855 398.629896852241,357.30168276094855"" stroke=""none"" stroke-width=""3"" fill = ""none"" />
    
    </svg>
    </div>
        ",,,,,,,,,,,,get_response,True,Yy5NFQ5ygqRfrLZn,,,True,True,True,213.86,4.0,410.274,94.94501741684309,1.77,1.0,0.0,,,,21
46,html-keyboard-response,46,273832,0.0-46.0,,,,"
    <div style="" display: block;  position: relative;"">
    
    <svg width=1366 height=768>
    <circle cx=620 cy=384 r=18.688822067336 stroke=""black"" stroke-width=""1"" fill=""black"" />
    <circle cx=501.0850174168431 cy=384 r=26.698317239051434 stroke=""none"" stroke-width=""1.5"" fill=""none"" />
    <circle cx=406.14 cy=478.9450174168431 r=26.698317239051434 stroke=""none"" stroke-width=""1.5"" fill=""none"" />
    <circle cx=311.1949825831569 cy=384 r=26.698317239051434 stroke=""none"" stroke-width=""1.5"" fill=""none"" />
    <circle cx=406.14 cy=289.0549825831569 r=26.698317239051434 stroke=""none"" stroke-width=""1.5"" fill=""none"" />
    <polygon points = ""406.14,384 413.65010314775895,357.30168276094855 398.629896852241,357.30168276094855"" stroke=""none"" stroke-width=""3"" fill = ""none"" />
    
    </svg>
    </div>
        ",,,,,,,,,,,,,,,,,,,,,,,,,,,,,,21
47,html-keyboard-response,47,273997,0.0-47.0,,,,"
    <div style="" display: block;  position: relative;"">
    <svg width=1366 height=768>
    
    <circle cx=620 cy=384 r=18.688822067336 stroke=""black"" stroke-width=""1"" fill=""black"" />
    <circle cx=833.86 cy=384 r=26.698317239051434 stroke=""black"" stroke-width=""1.5"" fill=""none"" />
    <circle cx=920.1736521971301 cy=384 r=26.698317239051434 stroke=""black"" stroke-width=""1.5"" fill=""none"" />
    <circle cx=833.86 cy=470.31365219713007 r=26.698317239051434 stroke=""black"" stroke-width=""1.5"" fill=""none"" />
    <circle cx=747.54634780287 cy=384 r=26.698317239051434 stroke=""black"" stroke-width=""1.5"" fill=""none"" />
    <circle cx=833.86 cy=297.68634780286993 r=26.698317239051434 stroke=""black"" stroke-width=""1.5"" fill=""none"" />
    <polygon points = ""833.86,384 841.370103147759,410.69831723905145 826.349896852241,410.69831723905145"" stroke=""white"" stroke-width=""3"" fill = ""white"" />
    
    </svg>
    </div>
        ",,,,,,,,,,,,stimulus,,,,,,,,,,,,,,,,,,21
48,html-keyboard-response,48,274261,0.0-48.0,262.5,arrowdown,,"
    <div style="" display: block;  position: relative;"">
    
    <svg width=1366 height=768>
    <circle cx=620 cy=384 r=18.688822067336 stroke=""black"" stroke-width=""1"" fill=""black"" />
    <circle cx=920.1736521971301 cy=384 r=26.698317239051434 stroke=""none"" stroke-width=""1.5"" fill=""none"" />
    <circle cx=833.86 cy=470.31365219713007 r=26.698317239051434 stroke=""none"" stroke-width=""1.5"" fill=""none"" />
    <circle cx=747.54634780287 cy=384 r=26.698317239051434 stroke=""none"" stroke-width=""1.5"" fill=""none"" />
    <circle cx=833.86 cy=297.68634780286993 r=26.698317239051434 stroke=""none"" stroke-width=""1.5"" fill=""none"" />
    <polygon points = ""833.86,384 841.370103147759,410.69831723905145 826.349896852241,410.69831723905145"" stroke=""none"" stroke-width=""3"" fill = ""none"" />
    
    </svg>
    </div>
        ",,,,,,,,,,,,get_response,True,Yy5NFQ5ygqRfrLZn,,,False,False,True,213.86,4.0,410.274,86.31365219713007,1.61,1.0,0.0,,,,21
49,html-keyboard-response,49,274765,0.0-49.0,,,,"
    <div style="" display: block;  position: relative;"">
    
    <svg width=1366 height=768>
    <circle cx=620 cy=384 r=18.688822067336 stroke=""black"" stroke-width=""1"" fill=""black"" />
    <circle cx=920.1736521971301 cy=384 r=26.698317239051434 stroke=""none"" stroke-width=""1.5"" fill=""none"" />
    <circle cx=833.86 cy=470.31365219713007 r=26.698317239051434 stroke=""none"" stroke-width=""1.5"" fill=""none"" />
    <circle cx=747.54634780287 cy=384 r=26.698317239051434 stroke=""none"" stroke-width=""1.5"" fill=""none"" />
    <circle cx=833.86 cy=297.68634780286993 r=26.698317239051434 stroke=""none"" stroke-width=""1.5"" fill=""none"" />
    <polygon points = ""833.86,384 841.370103147759,410.69831723905145 826.349896852241,410.69831723905145"" stroke=""none"" stroke-width=""3"" fill = ""none"" />
    
    </svg>
    </div>
        ",,,,,,,,,,,,,,,,,,,,,,,,,,,,,,21
50,html-keyboard-response,50,274935,0.0-50.0,,,,"
    <div style="" display: block;  position: relative;"">
    <svg width=1366 height=768>
    
    <circle cx=620 cy=384 r=18.688822067336 stroke=""black"" stroke-width=""1"" fill=""black"" />
    <circle cx=406.14 cy=384 r=26.698317239051434 stroke=""black"" stroke-width=""1.5"" fill=""none"" />
    <circle cx=484.6069565428455 cy=384 r=26.698317239051434 stroke=""black"" stroke-width=""1.5"" fill=""none"" />
    <circle cx=406.14 cy=462.46695654284554 r=26.698317239051434 stroke=""black"" stroke-width=""1.5"" fill=""none"" />
    <circle cx=327.67304345715445 cy=384 r=26.698317239051434 stroke=""black"" stroke-width=""1.5"" fill=""none"" />
    <circle cx=406.14 cy=305.53304345715446 r=26.698317239051434 stroke=""black"" stroke-width=""1.5"" fill=""none"" />
    <polygon points = ""406.14,384 413.65010314775895,357.30168276094855 398.629896852241,357.30168276094855"" stroke=""white"" stroke-width=""3"" fill = ""white"" />
    
    </svg>
    </div>
        ",,,,,,,,,,,,stimulus,,,,,,,,,,,,,,,,,,21
51,html-keyboard-response,51,275230,0.0-51.0,292.5,arrowup,,"
    <div style="" display: block;  position: relative;"">
    
    <svg width=1366 height=768>
    <circle cx=620 cy=384 r=18.688822067336 stroke=""black"" stroke-width=""1"" fill=""black"" />
    <circle cx=484.6069565428455 cy=384 r=26.698317239051434 stroke=""none"" stroke-width=""1.5"" fill=""none"" />
    <circle cx=406.14 cy=462.46695654284554 r=26.698317239051434 stroke=""none"" stroke-width=""1.5"" fill=""none"" />
    <circle cx=327.67304345715445 cy=384 r=26.698317239051434 stroke=""none"" stroke-width=""1.5"" fill=""none"" />
    <circle cx=406.14 cy=305.53304345715446 r=26.698317239051434 stroke=""none"" stroke-width=""1.5"" fill=""none"" />
    <polygon points = ""406.14,384 413.65010314775895,357.30168276094855 398.629896852241,357.30168276094855"" stroke=""none"" stroke-width=""3"" fill = ""none"" />
    
    </svg>
    </div>
        ",,,,,,,,,,,,get_response,True,Yy5NFQ5ygqRfrLZn,,,True,True,True,213.86,4.0,410.274,78.46695654284551,1.47,1.0,0.0,,,,21
52,html-keyboard-response,52,275737,0.0-52.0,,,,"
    <div style="" display: block;  position: relative;"">
    
    <svg width=1366 height=768>
    <circle cx=620 cy=384 r=18.688822067336 stroke=""black"" stroke-width=""1"" fill=""black"" />
    <circle cx=484.6069565428455 cy=384 r=26.698317239051434 stroke=""none"" stroke-width=""1.5"" fill=""none"" />
    <circle cx=406.14 cy=462.46695654284554 r=26.698317239051434 stroke=""none"" stroke-width=""1.5"" fill=""none"" />
    <circle cx=327.67304345715445 cy=384 r=26.698317239051434 stroke=""none"" stroke-width=""1.5"" fill=""none"" />
    <circle cx=406.14 cy=305.53304345715446 r=26.698317239051434 stroke=""none"" stroke-width=""1.5"" fill=""none"" />
    <polygon points = ""406.14,384 413.65010314775895,357.30168276094855 398.629896852241,357.30168276094855"" stroke=""none"" stroke-width=""3"" fill = ""none"" />
    
    </svg>
    </div>
        ",,,,,,,,,,,,,,,,,,,,,,,,,,,,,,21
53,html-keyboard-response,53,275900,0.0-53.0,,,,"
    <div style="" display: block;  position: relative;"">
    <svg width=1366 height=768>
    
    <circle cx=620 cy=384 r=18.688822067336 stroke=""black"" stroke-width=""1"" fill=""black"" />
    <circle cx=406.14 cy=384 r=26.698317239051434 stroke=""black"" stroke-width=""1.5"" fill=""none"" />
    <circle cx=477.4735968571323 cy=384 r=26.698317239051434 stroke=""black"" stroke-width=""1.5"" fill=""none"" />
    <circle cx=406.14 cy=455.3335968571323 r=26.698317239051434 stroke=""black"" stroke-width=""1.5"" fill=""none"" />
    <circle cx=334.8064031428677 cy=384 r=26.698317239051434 stroke=""black"" stroke-width=""1.5"" fill=""none"" />
    <circle cx=406.14 cy=312.6664031428677 r=26.698317239051434 stroke=""black"" stroke-width=""1.5"" fill=""none"" />
    <polygon points = ""406.14,384 413.65010314775895,357.30168276094855 398.629896852241,357.30168276094855"" stroke=""white"" stroke-width=""3"" fill = ""white"" />
    
    </svg>
    </div>
        ",,,,,,,,,,,,stimulus,,,,,,,,,,,,,,,,,,21
54,html-keyboard-response,54,276390,0.0-54.0,487.3999999761581,arrowup,,"
    <div style="" display: block;  position: relative;"">
    
    <svg width=1366 height=768>
    <circle cx=620 cy=384 r=18.688822067336 stroke=""black"" stroke-width=""1"" fill=""black"" />
    <circle cx=477.4735968571323 cy=384 r=26.698317239051434 stroke=""none"" stroke-width=""1.5"" fill=""none"" />
    <circle cx=406.14 cy=455.3335968571323 r=26.698317239051434 stroke=""none"" stroke-width=""1.5"" fill=""none"" />
    <circle cx=334.8064031428677 cy=384 r=26.698317239051434 stroke=""none"" stroke-width=""1.5"" fill=""none"" />
    <circle cx=406.14 cy=312.6664031428677 r=26.698317239051434 stroke=""none"" stroke-width=""1.5"" fill=""none"" />
    <polygon points = ""406.14,384 413.65010314775895,357.30168276094855 398.629896852241,357.30168276094855"" stroke=""none"" stroke-width=""3"" fill = ""none"" />
    
    </svg>
    </div>
        ",,,,,,,,,,,,get_response,True,Yy5NFQ5ygqRfrLZn,,,True,True,True,213.86,4.0,410.274,71.33359685713228,1.33,1.0,0.0,,,,21
55,html-keyboard-response,55,276904,0.0-55.0,,,,"
    <div style="" display: block;  position: relative;"">
    
    <svg width=1366 height=768>
    <circle cx=620 cy=384 r=18.688822067336 stroke=""black"" stroke-width=""1"" fill=""black"" />
    <circle cx=477.4735968571323 cy=384 r=26.698317239051434 stroke=""none"" stroke-width=""1.5"" fill=""none"" />
    <circle cx=406.14 cy=455.3335968571323 r=26.698317239051434 stroke=""none"" stroke-width=""1.5"" fill=""none"" />
    <circle cx=334.8064031428677 cy=384 r=26.698317239051434 stroke=""none"" stroke-width=""1.5"" fill=""none"" />
    <circle cx=406.14 cy=312.6664031428677 r=26.698317239051434 stroke=""none"" stroke-width=""1.5"" fill=""none"" />
    <polygon points = ""406.14,384 413.65010314775895,357.30168276094855 398.629896852241,357.30168276094855"" stroke=""none"" stroke-width=""3"" fill = ""none"" />
    
    </svg>
    </div>
        ",,,,,,,,,,,,,,,,,,,,,,,,,,,,,,21
56,html-keyboard-response,56,277057,0.0-56.0,,,,"
    <div style="" display: block;  position: relative;"">
    <svg width=1366 height=768>
    
    <circle cx=620 cy=384 r=18.688822067336 stroke=""black"" stroke-width=""1"" fill=""black"" />
    <circle cx=833.86 cy=384 r=26.698317239051434 stroke=""black"" stroke-width=""1.5"" fill=""none"" />
    <circle cx=898.7087244155748 cy=384 r=26.698317239051434 stroke=""black"" stroke-width=""1.5"" fill=""none"" />
    <circle cx=833.86 cy=448.8487244155748 r=26.698317239051434 stroke=""black"" stroke-width=""1.5"" fill=""none"" />
    <circle cx=769.0112755844252 cy=384 r=26.698317239051434 stroke=""black"" stroke-width=""1.5"" fill=""none"" />
    <circle cx=833.86 cy=319.1512755844252 r=26.698317239051434 stroke=""black"" stroke-width=""1.5"" fill=""none"" />
    <polygon points = ""833.86,384 841.370103147759,357.30168276094855 826.349896852241,357.30168276094855"" stroke=""white"" stroke-width=""3"" fill = ""white"" />
    
    </svg>
    </div>
        ",,,,,,,,,,,,stimulus,,,,,,,,,,,,,,,,,,21
57,html-keyboard-response,57,277525,0.0-57.0,466.10000002384186,arrowup,,"
    <div style="" display: block;  position: relative;"">
    
    <svg width=1366 height=768>
    <circle cx=620 cy=384 r=18.688822067336 stroke=""black"" stroke-width=""1"" fill=""black"" />
    <circle cx=898.7087244155748 cy=384 r=26.698317239051434 stroke=""none"" stroke-width=""1.5"" fill=""none"" />
    <circle cx=833.86 cy=448.8487244155748 r=26.698317239051434 stroke=""none"" stroke-width=""1.5"" fill=""none"" />
    <circle cx=769.0112755844252 cy=384 r=26.698317239051434 stroke=""none"" stroke-width=""1.5"" fill=""none"" />
    <circle cx=833.86 cy=319.1512755844252 r=26.698317239051434 stroke=""none"" stroke-width=""1.5"" fill=""none"" />
    <polygon points = ""833.86,384 841.370103147759,357.30168276094855 826.349896852241,357.30168276094855"" stroke=""none"" stroke-width=""3"" fill = ""none"" />
    
    </svg>
    </div>
        ",,,,,,,,,,,,get_response,True,Yy5NFQ5ygqRfrLZn,,,False,True,True,213.86,4.0,410.274,64.8487244155748,1.21,1.0,0.0,,,,21
58,html-keyboard-response,58,278046,0.0-58.0,,,,"
    <div style="" display: block;  position: relative;"">
    
    <svg width=1366 height=768>
    <circle cx=620 cy=384 r=18.688822067336 stroke=""black"" stroke-width=""1"" fill=""black"" />
    <circle cx=898.7087244155748 cy=384 r=26.698317239051434 stroke=""none"" stroke-width=""1.5"" fill=""none"" />
    <circle cx=833.86 cy=448.8487244155748 r=26.698317239051434 stroke=""none"" stroke-width=""1.5"" fill=""none"" />
    <circle cx=769.0112755844252 cy=384 r=26.698317239051434 stroke=""none"" stroke-width=""1.5"" fill=""none"" />
    <circle cx=833.86 cy=319.1512755844252 r=26.698317239051434 stroke=""none"" stroke-width=""1.5"" fill=""none"" />
    <polygon points = ""833.86,384 841.370103147759,357.30168276094855 826.349896852241,357.30168276094855"" stroke=""none"" stroke-width=""3"" fill = ""none"" />
    
    </svg>
    </div>
        ",,,,,,,,,,,,,,,,,,,,,,,,,,,,,,21
59,html-keyboard-response,59,278209,0.0-59.0,,,,"
    <div style="" display: block;  position: relative;"">
    <svg width=1366 height=768>
    
    <circle cx=620 cy=384 r=18.688822067336 stroke=""black"" stroke-width=""1"" fill=""black"" />
    <circle cx=833.86 cy=384 r=26.698317239051434 stroke=""black"" stroke-width=""1.5"" fill=""none"" />
    <circle cx=892.8133858323407 cy=384 r=26.698317239051434 stroke=""black"" stroke-width=""1.5"" fill=""none"" />
    <circle cx=833.86 cy=442.9533858323407 r=26.698317239051434 stroke=""black"" stroke-width=""1.5"" fill=""none"" />
    <circle cx=774.9066141676593 cy=384 r=26.698317239051434 stroke=""black"" stroke-width=""1.5"" fill=""none"" />
    <circle cx=833.86 cy=325.0466141676593 r=26.698317239051434 stroke=""black"" stroke-width=""1.5"" fill=""none"" />
    <polygon points = ""833.86,384 841.370103147759,357.30168276094855 826.349896852241,357.30168276094855"" stroke=""white"" stroke-width=""3"" fill = ""white"" />
    
    </svg>
    </div>
        ",,,,,,,,,,,,stimulus,,,,,,,,,,,,,,,,,,21
60,html-keyboard-response,60,278669,0.0-60.0,458.60000002384186,arrowup,,"
    <div style="" display: block;  position: relative;"">
    
    <svg width=1366 height=768>
    <circle cx=620 cy=384 r=18.688822067336 stroke=""black"" stroke-width=""1"" fill=""black"" />
    <circle cx=892.8133858323407 cy=384 r=26.698317239051434 stroke=""none"" stroke-width=""1.5"" fill=""none"" />
    <circle cx=833.86 cy=442.9533858323407 r=26.698317239051434 stroke=""none"" stroke-width=""1.5"" fill=""none"" />
    <circle cx=774.9066141676593 cy=384 r=26.698317239051434 stroke=""none"" stroke-width=""1.5"" fill=""none"" />
    <circle cx=833.86 cy=325.0466141676593 r=26.698317239051434 stroke=""none"" stroke-width=""1.5"" fill=""none"" />
    <polygon points = ""833.86,384 841.370103147759,357.30168276094855 826.349896852241,357.30168276094855"" stroke=""none"" stroke-width=""3"" fill = ""none"" />
    
    </svg>
    </div>
        ",,,,,,,,,,,,get_response,True,Yy5NFQ5ygqRfrLZn,,,False,True,True,213.86,4.0,410.274,58.95338583234072,1.1,1.0,0.0,,,,21
61,html-keyboard-response,61,279179,0.0-61.0,,,,"
    <div style="" display: block;  position: relative;"">
    
    <svg width=1366 height=768>
    <circle cx=620 cy=384 r=18.688822067336 stroke=""black"" stroke-width=""1"" fill=""black"" />
    <circle cx=892.8133858323407 cy=384 r=26.698317239051434 stroke=""none"" stroke-width=""1.5"" fill=""none"" />
    <circle cx=833.86 cy=442.9533858323407 r=26.698317239051434 stroke=""none"" stroke-width=""1.5"" fill=""none"" />
    <circle cx=774.9066141676593 cy=384 r=26.698317239051434 stroke=""none"" stroke-width=""1.5"" fill=""none"" />
    <circle cx=833.86 cy=325.0466141676593 r=26.698317239051434 stroke=""none"" stroke-width=""1.5"" fill=""none"" />
    <polygon points = ""833.86,384 841.370103147759,357.30168276094855 826.349896852241,357.30168276094855"" stroke=""none"" stroke-width=""3"" fill = ""none"" />
    
    </svg>
    </div>
        ",,,,,,,,,,,,,,,,,,,,,,,,,,,,,,21
62,html-keyboard-response,62,279349,0.0-62.0,,,,"
    <div style="" display: block;  position: relative;"">
    <svg width=1366 height=768>
    
    <circle cx=620 cy=384 r=18.688822067336 stroke=""black"" stroke-width=""1"" fill=""black"" />
    <circle cx=406.14 cy=384 r=26.698317239051434 stroke=""black"" stroke-width=""1.5"" fill=""none"" />
    <circle cx=459.73398712030973 cy=384 r=26.698317239051434 stroke=""black"" stroke-width=""1.5"" fill=""none"" />
    <circle cx=406.14 cy=437.59398712030975 r=26.698317239051434 stroke=""black"" stroke-width=""1.5"" fill=""none"" />
    <circle cx=352.54601287969024 cy=384 r=26.698317239051434 stroke=""black"" stroke-width=""1.5"" fill=""none"" />
    <circle cx=406.14 cy=330.40601287969025 r=26.698317239051434 stroke=""black"" stroke-width=""1.5"" fill=""none"" />
    <polygon points = ""406.14,384 413.65010314775895,410.69831723905145 398.629896852241,410.69831723905145"" stroke=""white"" stroke-width=""3"" fill = ""white"" />
    
    </svg>
    </div>
        ",,,,,,,,,,,,stimulus,,,,,,,,,,,,,,,,,,21
63,html-keyboard-response,63,280221,0.0-63.0,870.5,arrowdown,,"
    <div style="" display: block;  position: relative;"">
    
    <svg width=1366 height=768>
    <circle cx=620 cy=384 r=18.688822067336 stroke=""black"" stroke-width=""1"" fill=""black"" />
    <circle cx=459.73398712030973 cy=384 r=26.698317239051434 stroke=""none"" stroke-width=""1.5"" fill=""none"" />
    <circle cx=406.14 cy=437.59398712030975 r=26.698317239051434 stroke=""none"" stroke-width=""1.5"" fill=""none"" />
    <circle cx=352.54601287969024 cy=384 r=26.698317239051434 stroke=""none"" stroke-width=""1.5"" fill=""none"" />
    <circle cx=406.14 cy=330.40601287969025 r=26.698317239051434 stroke=""none"" stroke-width=""1.5"" fill=""none"" />
    <polygon points = ""406.14,384 413.65010314775895,410.69831723905145 398.629896852241,410.69831723905145"" stroke=""none"" stroke-width=""3"" fill = ""none"" />
    
    </svg>
    </div>
        ",,,,,,,,,,,,get_response,True,Yy5NFQ5ygqRfrLZn,,,True,False,True,213.86,4.0,410.274,53.59398712030973,1.0,1.0,0.0,,,,21
64,html-keyboard-response,64,280732,0.0-64.0,,,,"
    <div style="" display: block;  position: relative;"">
    
    <svg width=1366 height=768>
    <circle cx=620 cy=384 r=18.688822067336 stroke=""black"" stroke-width=""1"" fill=""black"" />
    <circle cx=459.73398712030973 cy=384 r=26.698317239051434 stroke=""none"" stroke-width=""1.5"" fill=""none"" />
    <circle cx=406.14 cy=437.59398712030975 r=26.698317239051434 stroke=""none"" stroke-width=""1.5"" fill=""none"" />
    <circle cx=352.54601287969024 cy=384 r=26.698317239051434 stroke=""none"" stroke-width=""1.5"" fill=""none"" />
    <circle cx=406.14 cy=330.40601287969025 r=26.698317239051434 stroke=""none"" stroke-width=""1.5"" fill=""none"" />
    <polygon points = ""406.14,384 413.65010314775895,410.69831723905145 398.629896852241,410.69831723905145"" stroke=""none"" stroke-width=""3"" fill = ""none"" />
    
    </svg>
    </div>
        ",,,,,,,,,,,,,,,,,,,,,,,,,,,,,,21
65,html-keyboard-response,65,280886,0.0-65.0,,,,"
    <div style="" display: block;  position: relative;"">
    <svg width=1366 height=768>
    
    <circle cx=620 cy=384 r=18.688822067336 stroke=""black"" stroke-width=""1"" fill=""black"" />
    <circle cx=406.14 cy=384 r=26.698317239051434 stroke=""black"" stroke-width=""1.5"" fill=""none"" />
    <circle cx=459.5366344781029 cy=384 r=26.698317239051434 stroke=""black"" stroke-width=""1.5"" fill=""none"" />
    <circle cx=406.14 cy=437.3966344781029 r=26.698317239051434 stroke=""black"" stroke-width=""1.5"" fill=""none"" />
    <circle cx=352.7433655218971 cy=384 r=26.698317239051434 stroke=""black"" stroke-width=""1.5"" fill=""none"" />
    <circle cx=406.14 cy=330.6033655218971 r=26.698317239051434 stroke=""black"" stroke-width=""1.5"" fill=""none"" />
    <polygon points = ""406.14,384 413.65010314775895,357.30168276094855 398.629896852241,357.30168276094855"" stroke=""white"" stroke-width=""3"" fill = ""white"" />
    
    </svg>
    </div>
        ",,,,,,,,,,,,stimulus,,,,,,,,,,,,,,,,,,21
66,html-keyboard-response,66,281749,0.0-66.0,861.5,arrowdown,,"
    <div style="" display: block;  position: relative;"">
    
    <svg width=1366 height=768>
    <circle cx=620 cy=384 r=18.688822067336 stroke=""black"" stroke-width=""1"" fill=""black"" />
    <circle cx=459.5366344781029 cy=384 r=26.698317239051434 stroke=""none"" stroke-width=""1.5"" fill=""none"" />
    <circle cx=406.14 cy=437.3966344781029 r=26.698317239051434 stroke=""none"" stroke-width=""1.5"" fill=""none"" />
    <circle cx=352.7433655218971 cy=384 r=26.698317239051434 stroke=""none"" stroke-width=""1.5"" fill=""none"" />
    <circle cx=406.14 cy=330.6033655218971 r=26.698317239051434 stroke=""none"" stroke-width=""1.5"" fill=""none"" />
    <polygon points = ""406.14,384 413.65010314775895,357.30168276094855 398.629896852241,357.30168276094855"" stroke=""none"" stroke-width=""3"" fill = ""none"" />
    
    </svg>
    </div>
        ",,,,,,,,,,,,get_response,False,Yy5NFQ5ygqRfrLZn,,,True,True,True,213.86,4.0,410.274,53.39663447810287,1.0,1.0,0.0,,,,21
67,html-keyboard-response,67,282260,0.0-67.0,,,,"
    <div style="" display: block;  position: relative;"">
    
    <svg width=1366 height=768>
    <circle cx=620 cy=384 r=18.688822067336 stroke=""black"" stroke-width=""1"" fill=""black"" />
    <circle cx=459.5366344781029 cy=384 r=26.698317239051434 stroke=""none"" stroke-width=""1.5"" fill=""none"" />
    <circle cx=406.14 cy=437.3966344781029 r=26.698317239051434 stroke=""none"" stroke-width=""1.5"" fill=""none"" />
    <circle cx=352.7433655218971 cy=384 r=26.698317239051434 stroke=""none"" stroke-width=""1.5"" fill=""none"" />
    <circle cx=406.14 cy=330.6033655218971 r=26.698317239051434 stroke=""none"" stroke-width=""1.5"" fill=""none"" />
    <polygon points = ""406.14,384 413.65010314775895,357.30168276094855 398.629896852241,357.30168276094855"" stroke=""none"" stroke-width=""3"" fill = ""none"" />
    
    </svg>
    </div>
        ",,,,,,,,,,,,,,,,,,,,,,,,,,,,,,21
68,html-keyboard-response,68,282423,0.0-68.0,,,,"
    <div style="" display: block;  position: relative;"">
    <svg width=1366 height=768>
    
    <circle cx=620 cy=384 r=18.688822067336 stroke=""black"" stroke-width=""1"" fill=""black"" />
    <circle cx=406.14 cy=384 r=26.698317239051434 stroke=""black"" stroke-width=""1.5"" fill=""none"" />
    <circle cx=475.5556248215337 cy=384 r=26.698317239051434 stroke=""black"" stroke-width=""1.5"" fill=""none"" />
    <circle cx=406.14 cy=453.4156248215337 r=26.698317239051434 stroke=""black"" stroke-width=""1.5"" fill=""none"" />
    <circle cx=336.7243751784663 cy=384 r=26.698317239051434 stroke=""black"" stroke-width=""1.5"" fill=""none"" />
    <circle cx=406.14 cy=314.5843751784663 r=26.698317239051434 stroke=""black"" stroke-width=""1.5"" fill=""none"" />
    <polygon points = ""406.14,384 413.65010314775895,357.30168276094855 398.629896852241,357.30168276094855"" stroke=""white"" stroke-width=""3"" fill = ""white"" />
    
    </svg>
    </div>
        ",,,,,,,,,,,,stimulus,,,,,,,,,,,,,,,,,,21
69,html-keyboard-response,69,282989,0.0-69.0,564.4000000953674,arrowup,,"
    <div style="" display: block;  position: relative;"">
    
    <svg width=1366 height=768>
    <circle cx=620 cy=384 r=18.688822067336 stroke=""black"" stroke-width=""1"" fill=""black"" />
    <circle cx=475.5556248215337 cy=384 r=26.698317239051434 stroke=""none"" stroke-width=""1.5"" fill=""none"" />
    <circle cx=406.14 cy=453.4156248215337 r=26.698317239051434 stroke=""none"" stroke-width=""1.5"" fill=""none"" />
    <circle cx=336.7243751784663 cy=384 r=26.698317239051434 stroke=""none"" stroke-width=""1.5"" fill=""none"" />
    <circle cx=406.14 cy=314.5843751784663 r=26.698317239051434 stroke=""none"" stroke-width=""1.5"" fill=""none"" />
    <polygon points = ""406.14,384 413.65010314775895,357.30168276094855 398.629896852241,357.30168276094855"" stroke=""none"" stroke-width=""3"" fill = ""none"" />
    
    </svg>
    </div>
        ",,,,,,,,,,,,get_response,True,Yy5NFQ5ygqRfrLZn,,,True,True,True,213.86,4.0,410.274,69.41562482153373,1.3,1.0,0.0,,,,21
70,html-keyboard-response,70,283494,0.0-70.0,,,,"
    <div style="" display: block;  position: relative;"">
    
    <svg width=1366 height=768>
    <circle cx=620 cy=384 r=18.688822067336 stroke=""black"" stroke-width=""1"" fill=""black"" />
    <circle cx=475.5556248215337 cy=384 r=26.698317239051434 stroke=""none"" stroke-width=""1.5"" fill=""none"" />
    <circle cx=406.14 cy=453.4156248215337 r=26.698317239051434 stroke=""none"" stroke-width=""1.5"" fill=""none"" />
    <circle cx=336.7243751784663 cy=384 r=26.698317239051434 stroke=""none"" stroke-width=""1.5"" fill=""none"" />
    <circle cx=406.14 cy=314.5843751784663 r=26.698317239051434 stroke=""none"" stroke-width=""1.5"" fill=""none"" />
    <polygon points = ""406.14,384 413.65010314775895,357.30168276094855 398.629896852241,357.30168276094855"" stroke=""none"" stroke-width=""3"" fill = ""none"" />
    
    </svg>
    </div>
        ",,,,,,,,,,,,,,,,,,,,,,,,,,,,,,21
71,html-keyboard-response,71,283664,0.0-71.0,,,,"
    <div style="" display: block;  position: relative;"">
    <svg width=1366 height=768>
    
    <circle cx=620 cy=384 r=18.688822067336 stroke=""black"" stroke-width=""1"" fill=""black"" />
    <circle cx=406.14 cy=384 r=26.698317239051434 stroke=""black"" stroke-width=""1.5"" fill=""none"" />
    <circle cx=475.5556248215337 cy=384 r=26.698317239051434 stroke=""black"" stroke-width=""1.5"" fill=""none"" />
    <circle cx=406.14 cy=453.4156248215337 r=26.698317239051434 stroke=""black"" stroke-width=""1.5"" fill=""none"" />
    <circle cx=336.7243751784663 cy=384 r=26.698317239051434 stroke=""black"" stroke-width=""1.5"" fill=""none"" />
    <circle cx=406.14 cy=314.5843751784663 r=26.698317239051434 stroke=""black"" stroke-width=""1.5"" fill=""none"" />
    <polygon points = ""406.14,384 413.65010314775895,410.69831723905145 398.629896852241,410.69831723905145"" stroke=""white"" stroke-width=""3"" fill = ""white"" />
    
    </svg>
    </div>
        ",,,,,,,,,,,,stimulus,,,,,,,,,,,,,,,,,,21
72,html-keyboard-response,72,284206,0.0-72.0,539.8999999761581,arrowdown,,"
    <div style="" display: block;  position: relative;"">
    
    <svg width=1366 height=768>
    <circle cx=620 cy=384 r=18.688822067336 stroke=""black"" stroke-width=""1"" fill=""black"" />
    <circle cx=475.5556248215337 cy=384 r=26.698317239051434 stroke=""none"" stroke-width=""1.5"" fill=""none"" />
    <circle cx=406.14 cy=453.4156248215337 r=26.698317239051434 stroke=""none"" stroke-width=""1.5"" fill=""none"" />
    <circle cx=336.7243751784663 cy=384 r=26.698317239051434 stroke=""none"" stroke-width=""1.5"" fill=""none"" />
    <circle cx=406.14 cy=314.5843751784663 r=26.698317239051434 stroke=""none"" stroke-width=""1.5"" fill=""none"" />
    <polygon points = ""406.14,384 413.65010314775895,410.69831723905145 398.629896852241,410.69831723905145"" stroke=""none"" stroke-width=""3"" fill = ""none"" />
    
    </svg>
    </div>
        ",,,,,,,,,,,,get_response,True,Yy5NFQ5ygqRfrLZn,,,True,False,True,213.86,4.0,410.274,69.41562482153373,1.3,1.0,0.0,,,,21
73,html-keyboard-response,73,284714,0.0-73.0,,,,"
    <div style="" display: block;  position: relative;"">
    
    <svg width=1366 height=768>
    <circle cx=620 cy=384 r=18.688822067336 stroke=""black"" stroke-width=""1"" fill=""black"" />
    <circle cx=475.5556248215337 cy=384 r=26.698317239051434 stroke=""none"" stroke-width=""1.5"" fill=""none"" />
    <circle cx=406.14 cy=453.4156248215337 r=26.698317239051434 stroke=""none"" stroke-width=""1.5"" fill=""none"" />
    <circle cx=336.7243751784663 cy=384 r=26.698317239051434 stroke=""none"" stroke-width=""1.5"" fill=""none"" />
    <circle cx=406.14 cy=314.5843751784663 r=26.698317239051434 stroke=""none"" stroke-width=""1.5"" fill=""none"" />
    <polygon points = ""406.14,384 413.65010314775895,410.69831723905145 398.629896852241,410.69831723905145"" stroke=""none"" stroke-width=""3"" fill = ""none"" />
    
    </svg>
    </div>
        ",,,,,,,,,,,,,,,,,,,,,,,,,,,,,,21
74,html-keyboard-response,74,284867,0.0-74.0,,,,"
    <div style="" display: block;  position: relative;"">
    <svg width=1366 height=768>
    
    <circle cx=620 cy=384 r=18.688822067336 stroke=""black"" stroke-width=""1"" fill=""black"" />
    <circle cx=833.86 cy=384 r=26.698317239051434 stroke=""black"" stroke-width=""1.5"" fill=""none"" />
    <circle cx=903.2756248215337 cy=384 r=26.698317239051434 stroke=""black"" stroke-width=""1.5"" fill=""none"" />
    <circle cx=833.86 cy=453.4156248215337 r=26.698317239051434 stroke=""black"" stroke-width=""1.5"" fill=""none"" />
    <circle cx=764.4443751784663 cy=384 r=26.698317239051434 stroke=""black"" stroke-width=""1.5"" fill=""none"" />
    <circle cx=833.86 cy=314.5843751784663 r=26.698317239051434 stroke=""black"" stroke-width=""1.5"" fill=""none"" />
    <polygon points = ""833.86,384 841.370103147759,410.69831723905145 826.349896852241,410.69831723905145"" stroke=""white"" stroke-width=""3"" fill = ""white"" />
    
    </svg>
    </div>
        ",,,,,,,,,,,,stimulus,,,,,,,,,,,,,,,,,,21
75,html-keyboard-response,75,285277,0.0-75.0,408.4000000953674,arrowdown,,"
    <div style="" display: block;  position: relative;"">
    
    <svg width=1366 height=768>
    <circle cx=620 cy=384 r=18.688822067336 stroke=""black"" stroke-width=""1"" fill=""black"" />
    <circle cx=903.2756248215337 cy=384 r=26.698317239051434 stroke=""none"" stroke-width=""1.5"" fill=""none"" />
    <circle cx=833.86 cy=453.4156248215337 r=26.698317239051434 stroke=""none"" stroke-width=""1.5"" fill=""none"" />
    <circle cx=764.4443751784663 cy=384 r=26.698317239051434 stroke=""none"" stroke-width=""1.5"" fill=""none"" />
    <circle cx=833.86 cy=314.5843751784663 r=26.698317239051434 stroke=""none"" stroke-width=""1.5"" fill=""none"" />
    <polygon points = ""833.86,384 841.370103147759,410.69831723905145 826.349896852241,410.69831723905145"" stroke=""none"" stroke-width=""3"" fill = ""none"" />
    
    </svg>
    </div>
        ",,,,,,,,,,,,get_response,True,Yy5NFQ5ygqRfrLZn,,,False,False,True,213.86,4.0,410.274,69.41562482153373,1.3,1.0,0.0,,,,21
76,html-keyboard-response,76,285786,0.0-76.0,,,,"
    <div style="" display: block;  position: relative;"">
    
    <svg width=1366 height=768>
    <circle cx=620 cy=384 r=18.688822067336 stroke=""black"" stroke-width=""1"" fill=""black"" />
    <circle cx=903.2756248215337 cy=384 r=26.698317239051434 stroke=""none"" stroke-width=""1.5"" fill=""none"" />
    <circle cx=833.86 cy=453.4156248215337 r=26.698317239051434 stroke=""none"" stroke-width=""1.5"" fill=""none"" />
    <circle cx=764.4443751784663 cy=384 r=26.698317239051434 stroke=""none"" stroke-width=""1.5"" fill=""none"" />
    <circle cx=833.86 cy=314.5843751784663 r=26.698317239051434 stroke=""none"" stroke-width=""1.5"" fill=""none"" />
    <polygon points = ""833.86,384 841.370103147759,410.69831723905145 826.349896852241,410.69831723905145"" stroke=""none"" stroke-width=""3"" fill = ""none"" />
    
    </svg>
    </div>
        ",,,,,,,,,,,,,,,,,,,,,,,,,,,,,,21
77,html-keyboard-response,77,285948,0.0-77.0,,,,"
    <div style="" display: block;  position: relative;"">
    <svg width=1366 height=768>
    
    <circle cx=620 cy=384 r=18.688822067336 stroke=""black"" stroke-width=""1"" fill=""black"" />
    <circle cx=406.14 cy=384 r=26.698317239051434 stroke=""black"" stroke-width=""1.5"" fill=""none"" />
    <circle cx=469.2451134741216 cy=384 r=26.698317239051434 stroke=""black"" stroke-width=""1.5"" fill=""none"" />
    <circle cx=406.14 cy=447.1051134741216 r=26.698317239051434 stroke=""black"" stroke-width=""1.5"" fill=""none"" />
    <circle cx=343.0348865258784 cy=384 r=26.698317239051434 stroke=""black"" stroke-width=""1.5"" fill=""none"" />
    <circle cx=406.14 cy=320.8948865258784 r=26.698317239051434 stroke=""black"" stroke-width=""1.5"" fill=""none"" />
    <polygon points = ""406.14,384 413.65010314775895,357.30168276094855 398.629896852241,357.30168276094855"" stroke=""white"" stroke-width=""3"" fill = ""white"" />
    
    </svg>
    </div>
        ",,,,,,,,,,,,stimulus,,,,,,,,,,,,,,,,,,21
78,html-keyboard-response,78,286374,0.0-78.0,423.3999999761581,arrowup,,"
    <div style="" display: block;  position: relative;"">
    
    <svg width=1366 height=768>
    <circle cx=620 cy=384 r=18.688822067336 stroke=""black"" stroke-width=""1"" fill=""black"" />
    <circle cx=469.2451134741216 cy=384 r=26.698317239051434 stroke=""none"" stroke-width=""1.5"" fill=""none"" />
    <circle cx=406.14 cy=447.1051134741216 r=26.698317239051434 stroke=""none"" stroke-width=""1.5"" fill=""none"" />
    <circle cx=343.0348865258784 cy=384 r=26.698317239051434 stroke=""none"" stroke-width=""1.5"" fill=""none"" />
    <circle cx=406.14 cy=320.8948865258784 r=26.698317239051434 stroke=""none"" stroke-width=""1.5"" fill=""none"" />
    <polygon points = ""406.14,384 413.65010314775895,357.30168276094855 398.629896852241,357.30168276094855"" stroke=""none"" stroke-width=""3"" fill = ""none"" />
    
    </svg>
    </div>
        ",,,,,,,,,,,,get_response,True,Yy5NFQ5ygqRfrLZn,,,True,True,True,213.86,4.0,410.274,63.105113474121566,1.18,1.0,0.0,,,,21
79,html-keyboard-response,79,286890,0.0-79.0,,,,"
    <div style="" display: block;  position: relative;"">
    
    <svg width=1366 height=768>
    <circle cx=620 cy=384 r=18.688822067336 stroke=""black"" stroke-width=""1"" fill=""black"" />
    <circle cx=469.2451134741216 cy=384 r=26.698317239051434 stroke=""none"" stroke-width=""1.5"" fill=""none"" />
    <circle cx=406.14 cy=447.1051134741216 r=26.698317239051434 stroke=""none"" stroke-width=""1.5"" fill=""none"" />
    <circle cx=343.0348865258784 cy=384 r=26.698317239051434 stroke=""none"" stroke-width=""1.5"" fill=""none"" />
    <circle cx=406.14 cy=320.8948865258784 r=26.698317239051434 stroke=""none"" stroke-width=""1.5"" fill=""none"" />
    <polygon points = ""406.14,384 413.65010314775895,357.30168276094855 398.629896852241,357.30168276094855"" stroke=""none"" stroke-width=""3"" fill = ""none"" />
    
    </svg>
    </div>
        ",,,,,,,,,,,,,,,,,,,,,,,,,,,,,,21
80,html-keyboard-response,80,287053,0.0-80.0,,,,"
    <div style="" display: block;  position: relative;"">
    <svg width=1366 height=768>
    
    <circle cx=620 cy=384 r=18.688822067336 stroke=""black"" stroke-width=""1"" fill=""black"" />
    <circle cx=406.14 cy=384 r=26.698317239051434 stroke=""black"" stroke-width=""1.5"" fill=""none"" />
    <circle cx=463.5082849764741 cy=384 r=26.698317239051434 stroke=""black"" stroke-width=""1.5"" fill=""none"" />
    <circle cx=406.14 cy=441.3682849764741 r=26.698317239051434 stroke=""black"" stroke-width=""1.5"" fill=""none"" />
    <circle cx=348.77171502352587 cy=384 r=26.698317239051434 stroke=""black"" stroke-width=""1.5"" fill=""none"" />
    <circle cx=406.14 cy=326.6317150235259 r=26.698317239051434 stroke=""black"" stroke-width=""1.5"" fill=""none"" />
    <polygon points = ""406.14,384 413.65010314775895,410.69831723905145 398.629896852241,410.69831723905145"" stroke=""white"" stroke-width=""3"" fill = ""white"" />
    
    </svg>
    </div>
        ",,,,,,,,,,,,stimulus,,,,,,,,,,,,,,,,,,21
81,html-keyboard-response,81,288302,0.0-81.0,1247.5,arrowdown,,"
    <div style="" display: block;  position: relative;"">
    
    <svg width=1366 height=768>
    <circle cx=620 cy=384 r=18.688822067336 stroke=""black"" stroke-width=""1"" fill=""black"" />
    <circle cx=463.5082849764741 cy=384 r=26.698317239051434 stroke=""none"" stroke-width=""1.5"" fill=""none"" />
    <circle cx=406.14 cy=441.3682849764741 r=26.698317239051434 stroke=""none"" stroke-width=""1.5"" fill=""none"" />
    <circle cx=348.77171502352587 cy=384 r=26.698317239051434 stroke=""none"" stroke-width=""1.5"" fill=""none"" />
    <circle cx=406.14 cy=326.6317150235259 r=26.698317239051434 stroke=""none"" stroke-width=""1.5"" fill=""none"" />
    <polygon points = ""406.14,384 413.65010314775895,410.69831723905145 398.629896852241,410.69831723905145"" stroke=""none"" stroke-width=""3"" fill = ""none"" />
    
    </svg>
    </div>
        ",,,,,,,,,,,,get_response,True,Yy5NFQ5ygqRfrLZn,,,True,False,True,213.86,4.0,410.274,57.36828497647414,1.07,1.0,0.0,,,,21
82,html-keyboard-response,82,288813,0.0-82.0,,,,"
    <div style="" display: block;  position: relative;"">
    
    <svg width=1366 height=768>
    <circle cx=620 cy=384 r=18.688822067336 stroke=""black"" stroke-width=""1"" fill=""black"" />
    <circle cx=463.5082849764741 cy=384 r=26.698317239051434 stroke=""none"" stroke-width=""1.5"" fill=""none"" />
    <circle cx=406.14 cy=441.3682849764741 r=26.698317239051434 stroke=""none"" stroke-width=""1.5"" fill=""none"" />
    <circle cx=348.77171502352587 cy=384 r=26.698317239051434 stroke=""none"" stroke-width=""1.5"" fill=""none"" />
    <circle cx=406.14 cy=326.6317150235259 r=26.698317239051434 stroke=""none"" stroke-width=""1.5"" fill=""none"" />
    <polygon points = ""406.14,384 413.65010314775895,410.69831723905145 398.629896852241,410.69831723905145"" stroke=""none"" stroke-width=""3"" fill = ""none"" />
    
    </svg>
    </div>
        ",,,,,,,,,,,,,,,,,,,,,,,,,,,,,,21
83,html-keyboard-response,83,288982,0.0-83.0,,,,"
    <div style="" display: block;  position: relative;"">
    <svg width=1366 height=768>
    
    <circle cx=620 cy=384 r=18.688822067336 stroke=""black"" stroke-width=""1"" fill=""black"" />
    <circle cx=406.14 cy=384 r=26.698317239051434 stroke=""black"" stroke-width=""1.5"" fill=""none"" />
    <circle cx=459.5366344781029 cy=384 r=26.698317239051434 stroke=""black"" stroke-width=""1.5"" fill=""none"" />
    <circle cx=406.14 cy=437.3966344781029 r=26.698317239051434 stroke=""black"" stroke-width=""1.5"" fill=""none"" />
    <circle cx=352.7433655218971 cy=384 r=26.698317239051434 stroke=""black"" stroke-width=""1.5"" fill=""none"" />
    <circle cx=406.14 cy=330.6033655218971 r=26.698317239051434 stroke=""black"" stroke-width=""1.5"" fill=""none"" />
    <polygon points = ""406.14,384 413.65010314775895,357.30168276094855 398.629896852241,357.30168276094855"" stroke=""white"" stroke-width=""3"" fill = ""white"" />
    
    </svg>
    </div>
        ",,,,,,,,,,,,stimulus,,,,,,,,,,,,,,,,,,21
84,html-keyboard-response,84,289709,0.0-84.0,724.7000000476837,arrowup,,"
    <div style="" display: block;  position: relative;"">
    
    <svg width=1366 height=768>
    <circle cx=620 cy=384 r=18.688822067336 stroke=""black"" stroke-width=""1"" fill=""black"" />
    <circle cx=459.5366344781029 cy=384 r=26.698317239051434 stroke=""none"" stroke-width=""1.5"" fill=""none"" />
    <circle cx=406.14 cy=437.3966344781029 r=26.698317239051434 stroke=""none"" stroke-width=""1.5"" fill=""none"" />
    <circle cx=352.7433655218971 cy=384 r=26.698317239051434 stroke=""none"" stroke-width=""1.5"" fill=""none"" />
    <circle cx=406.14 cy=330.6033655218971 r=26.698317239051434 stroke=""none"" stroke-width=""1.5"" fill=""none"" />
    <polygon points = ""406.14,384 413.65010314775895,357.30168276094855 398.629896852241,357.30168276094855"" stroke=""none"" stroke-width=""3"" fill = ""none"" />
    
    </svg>
    </div>
        ",,,,,,,,,,,,get_response,True,Yy5NFQ5ygqRfrLZn,,,True,True,True,213.86,4.0,410.274,53.39663447810287,1.0,1.0,0.0,,,,21
85,html-keyboard-response,85,290218,0.0-85.0,,,,"
    <div style="" display: block;  position: relative;"">
    
    <svg width=1366 height=768>
    <circle cx=620 cy=384 r=18.688822067336 stroke=""black"" stroke-width=""1"" fill=""black"" />
    <circle cx=459.5366344781029 cy=384 r=26.698317239051434 stroke=""none"" stroke-width=""1.5"" fill=""none"" />
    <circle cx=406.14 cy=437.3966344781029 r=26.698317239051434 stroke=""none"" stroke-width=""1.5"" fill=""none"" />
    <circle cx=352.7433655218971 cy=384 r=26.698317239051434 stroke=""none"" stroke-width=""1.5"" fill=""none"" />
    <circle cx=406.14 cy=330.6033655218971 r=26.698317239051434 stroke=""none"" stroke-width=""1.5"" fill=""none"" />
    <polygon points = ""406.14,384 413.65010314775895,357.30168276094855 398.629896852241,357.30168276094855"" stroke=""none"" stroke-width=""3"" fill = ""none"" />
    
    </svg>
    </div>
        ",,,,,,,,,,,,,,,,,,,,,,,,,,,,,,21
86,html-keyboard-response,86,290388,0.0-86.0,,,,"
    <div style="" display: block;  position: relative;"">
    <svg width=1366 height=768>
    
    <circle cx=620 cy=384 r=18.688822067336 stroke=""black"" stroke-width=""1"" fill=""black"" />
    <circle cx=833.86 cy=384 r=26.698317239051434 stroke=""black"" stroke-width=""1.5"" fill=""none"" />
    <circle cx=887.2566344781029 cy=384 r=26.698317239051434 stroke=""black"" stroke-width=""1.5"" fill=""none"" />
    <circle cx=833.86 cy=437.3966344781029 r=26.698317239051434 stroke=""black"" stroke-width=""1.5"" fill=""none"" />
    <circle cx=780.4633655218971 cy=384 r=26.698317239051434 stroke=""black"" stroke-width=""1.5"" fill=""none"" />
    <circle cx=833.86 cy=330.6033655218971 r=26.698317239051434 stroke=""black"" stroke-width=""1.5"" fill=""none"" />
    <polygon points = ""833.86,384 841.370103147759,357.30168276094855 826.349896852241,357.30168276094855"" stroke=""white"" stroke-width=""3"" fill = ""white"" />
    
    </svg>
    </div>
        ",,,,,,,,,,,,stimulus,,,,,,,,,,,,,,,,,,21
87,html-keyboard-response,87,291461,0.0-87.0,1071.399999976158,arrowup,,"
    <div style="" display: block;  position: relative;"">
    
    <svg width=1366 height=768>
    <circle cx=620 cy=384 r=18.688822067336 stroke=""black"" stroke-width=""1"" fill=""black"" />
    <circle cx=887.2566344781029 cy=384 r=26.698317239051434 stroke=""none"" stroke-width=""1.5"" fill=""none"" />
    <circle cx=833.86 cy=437.3966344781029 r=26.698317239051434 stroke=""none"" stroke-width=""1.5"" fill=""none"" />
    <circle cx=780.4633655218971 cy=384 r=26.698317239051434 stroke=""none"" stroke-width=""1.5"" fill=""none"" />
    <circle cx=833.86 cy=330.6033655218971 r=26.698317239051434 stroke=""none"" stroke-width=""1.5"" fill=""none"" />
    <polygon points = ""833.86,384 841.370103147759,357.30168276094855 826.349896852241,357.30168276094855"" stroke=""none"" stroke-width=""3"" fill = ""none"" />
    
    </svg>
    </div>
        ",,,,,,,,,,,,get_response,True,Yy5NFQ5ygqRfrLZn,,,False,True,True,213.86,4.0,410.274,53.39663447810287,1.0,1.0,0.0,,,,21
88,html-keyboard-response,88,291971,0.0-88.0,,,,"
    <div style="" display: block;  position: relative;"">
    
    <svg width=1366 height=768>
    <circle cx=620 cy=384 r=18.688822067336 stroke=""black"" stroke-width=""1"" fill=""black"" />
    <circle cx=887.2566344781029 cy=384 r=26.698317239051434 stroke=""none"" stroke-width=""1.5"" fill=""none"" />
    <circle cx=833.86 cy=437.3966344781029 r=26.698317239051434 stroke=""none"" stroke-width=""1.5"" fill=""none"" />
    <circle cx=780.4633655218971 cy=384 r=26.698317239051434 stroke=""none"" stroke-width=""1.5"" fill=""none"" />
    <circle cx=833.86 cy=330.6033655218971 r=26.698317239051434 stroke=""none"" stroke-width=""1.5"" fill=""none"" />
    <polygon points = ""833.86,384 841.370103147759,357.30168276094855 826.349896852241,357.30168276094855"" stroke=""none"" stroke-width=""3"" fill = ""none"" />
    
    </svg>
    </div>
        ",,,,,,,,,,,,,,,,,,,,,,,,,,,,,,21
89,html-keyboard-response,89,292126,0.0-89.0,,,,"
    <div style="" display: block;  position: relative;"">
    <svg width=1366 height=768>
    
    <circle cx=620 cy=384 r=18.688822067336 stroke=""black"" stroke-width=""1"" fill=""black"" />
    <circle cx=406.14 cy=384 r=26.698317239051434 stroke=""black"" stroke-width=""1.5"" fill=""none"" />
    <circle cx=459.5366344781029 cy=384 r=26.698317239051434 stroke=""black"" stroke-width=""1.5"" fill=""none"" />
    <circle cx=406.14 cy=437.3966344781029 r=26.698317239051434 stroke=""black"" stroke-width=""1.5"" fill=""none"" />
    <circle cx=352.7433655218971 cy=384 r=26.698317239051434 stroke=""black"" stroke-width=""1.5"" fill=""none"" />
    <circle cx=406.14 cy=330.6033655218971 r=26.698317239051434 stroke=""black"" stroke-width=""1.5"" fill=""none"" />
    <polygon points = ""406.14,384 413.65010314775895,357.30168276094855 398.629896852241,357.30168276094855"" stroke=""white"" stroke-width=""3"" fill = ""white"" />
    
    </svg>
    </div>
        ",,,,,,,,,,,,stimulus,,,,,,,,,,,,,,,,,,21
90,html-keyboard-response,90,293189,0.0-90.0,1061.9000000953674,arrowup,,"
    <div style="" display: block;  position: relative;"">
    
    <svg width=1366 height=768>
    <circle cx=620 cy=384 r=18.688822067336 stroke=""black"" stroke-width=""1"" fill=""black"" />
    <circle cx=459.5366344781029 cy=384 r=26.698317239051434 stroke=""none"" stroke-width=""1.5"" fill=""none"" />
    <circle cx=406.14 cy=437.3966344781029 r=26.698317239051434 stroke=""none"" stroke-width=""1.5"" fill=""none"" />
    <circle cx=352.7433655218971 cy=384 r=26.698317239051434 stroke=""none"" stroke-width=""1.5"" fill=""none"" />
    <circle cx=406.14 cy=330.6033655218971 r=26.698317239051434 stroke=""none"" stroke-width=""1.5"" fill=""none"" />
    <polygon points = ""406.14,384 413.65010314775895,357.30168276094855 398.629896852241,357.30168276094855"" stroke=""none"" stroke-width=""3"" fill = ""none"" />
    
    </svg>
    </div>
        ",,,,,,,,,,,,get_response,True,Yy5NFQ5ygqRfrLZn,,,True,True,True,213.86,4.0,410.274,53.39663447810287,1.0,1.0,0.0,,,,21
91,html-keyboard-response,91,293700,0.0-91.0,,,,"
    <div style="" display: block;  position: relative;"">
    
    <svg width=1366 height=768>
    <circle cx=620 cy=384 r=18.688822067336 stroke=""black"" stroke-width=""1"" fill=""black"" />
    <circle cx=459.5366344781029 cy=384 r=26.698317239051434 stroke=""none"" stroke-width=""1.5"" fill=""none"" />
    <circle cx=406.14 cy=437.3966344781029 r=26.698317239051434 stroke=""none"" stroke-width=""1.5"" fill=""none"" />
    <circle cx=352.7433655218971 cy=384 r=26.698317239051434 stroke=""none"" stroke-width=""1.5"" fill=""none"" />
    <circle cx=406.14 cy=330.6033655218971 r=26.698317239051434 stroke=""none"" stroke-width=""1.5"" fill=""none"" />
    <polygon points = ""406.14,384 413.65010314775895,357.30168276094855 398.629896852241,357.30168276094855"" stroke=""none"" stroke-width=""3"" fill = ""none"" />
    
    </svg>
    </div>
        ",,,,,,,,,,,,,,,,,,,,,,,,,,,,,,21
92,html-keyboard-response,92,293863,0.0-92.0,,,,"
    <div style="" display: block;  position: relative;"">
    <svg width=1366 height=768>
    
    <circle cx=620 cy=384 r=18.688822067336 stroke=""black"" stroke-width=""1"" fill=""black"" />
    <circle cx=833.86 cy=384 r=26.698317239051434 stroke=""black"" stroke-width=""1.5"" fill=""none"" />
    <circle cx=887.2566344781029 cy=384 r=26.698317239051434 stroke=""black"" stroke-width=""1.5"" fill=""none"" />
    <circle cx=833.86 cy=437.3966344781029 r=26.698317239051434 stroke=""black"" stroke-width=""1.5"" fill=""none"" />
    <circle cx=780.4633655218971 cy=384 r=26.698317239051434 stroke=""black"" stroke-width=""1.5"" fill=""none"" />
    <circle cx=833.86 cy=330.6033655218971 r=26.698317239051434 stroke=""black"" stroke-width=""1.5"" fill=""none"" />
    <polygon points = ""833.86,384 841.370103147759,410.69831723905145 826.349896852241,410.69831723905145"" stroke=""white"" stroke-width=""3"" fill = ""white"" />
    
    </svg>
    </div>
        ",,,,,,,,,,,,stimulus,,,,,,,,,,,,,,,,,,21
93,html-keyboard-response,93,294414,0.0-93.0,548.0,arrowdown,,"
    <div style="" display: block;  position: relative;"">
    
    <svg width=1366 height=768>
    <circle cx=620 cy=384 r=18.688822067336 stroke=""black"" stroke-width=""1"" fill=""black"" />
    <circle cx=887.2566344781029 cy=384 r=26.698317239051434 stroke=""none"" stroke-width=""1.5"" fill=""none"" />
    <circle cx=833.86 cy=437.3966344781029 r=26.698317239051434 stroke=""none"" stroke-width=""1.5"" fill=""none"" />
    <circle cx=780.4633655218971 cy=384 r=26.698317239051434 stroke=""none"" stroke-width=""1.5"" fill=""none"" />
    <circle cx=833.86 cy=330.6033655218971 r=26.698317239051434 stroke=""none"" stroke-width=""1.5"" fill=""none"" />
    <polygon points = ""833.86,384 841.370103147759,410.69831723905145 826.349896852241,410.69831723905145"" stroke=""none"" stroke-width=""3"" fill = ""none"" />
    
    </svg>
    </div>
        ",,,,,,,,,,,,get_response,True,Yy5NFQ5ygqRfrLZn,,,False,False,True,213.86,4.0,410.274,53.39663447810287,1.0,1.0,0.0,,,,21
94,html-keyboard-response,94,294920,0.0-94.0,,,,"
    <div style="" display: block;  position: relative;"">
    
    <svg width=1366 height=768>
    <circle cx=620 cy=384 r=18.688822067336 stroke=""black"" stroke-width=""1"" fill=""black"" />
    <circle cx=887.2566344781029 cy=384 r=26.698317239051434 stroke=""none"" stroke-width=""1.5"" fill=""none"" />
    <circle cx=833.86 cy=437.3966344781029 r=26.698317239051434 stroke=""none"" stroke-width=""1.5"" fill=""none"" />
    <circle cx=780.4633655218971 cy=384 r=26.698317239051434 stroke=""none"" stroke-width=""1.5"" fill=""none"" />
    <circle cx=833.86 cy=330.6033655218971 r=26.698317239051434 stroke=""none"" stroke-width=""1.5"" fill=""none"" />
    <polygon points = ""833.86,384 841.370103147759,410.69831723905145 826.349896852241,410.69831723905145"" stroke=""none"" stroke-width=""3"" fill = ""none"" />
    
    </svg>
    </div>
        ",,,,,,,,,,,,,,,,,,,,,,,,,,,,,,21
95,html-keyboard-response,95,295083,0.0-95.0,,,,"
    <div style="" display: block;  position: relative;"">
    <svg width=1366 height=768>
    
    <circle cx=620 cy=384 r=18.688822067336 stroke=""black"" stroke-width=""1"" fill=""black"" />
    <circle cx=406.14 cy=384 r=26.698317239051434 stroke=""black"" stroke-width=""1.5"" fill=""none"" />
    <circle cx=459.5366344781029 cy=384 r=26.698317239051434 stroke=""black"" stroke-width=""1.5"" fill=""none"" />
    <circle cx=406.14 cy=437.3966344781029 r=26.698317239051434 stroke=""black"" stroke-width=""1.5"" fill=""none"" />
    <circle cx=352.7433655218971 cy=384 r=26.698317239051434 stroke=""black"" stroke-width=""1.5"" fill=""none"" />
    <circle cx=406.14 cy=330.6033655218971 r=26.698317239051434 stroke=""black"" stroke-width=""1.5"" fill=""none"" />
    <polygon points = ""406.14,384 413.65010314775895,357.30168276094855 398.629896852241,357.30168276094855"" stroke=""white"" stroke-width=""3"" fill = ""white"" />
    
    </svg>
    </div>
        ",,,,,,,,,,,,stimulus,,,,,,,,,,,,,,,,,,21
96,html-keyboard-response,96,295629,0.0-96.0,543.7000000476837,arrowup,,"
    <div style="" display: block;  position: relative;"">
    
    <svg width=1366 height=768>
    <circle cx=620 cy=384 r=18.688822067336 stroke=""black"" stroke-width=""1"" fill=""black"" />
    <circle cx=459.5366344781029 cy=384 r=26.698317239051434 stroke=""none"" stroke-width=""1.5"" fill=""none"" />
    <circle cx=406.14 cy=437.3966344781029 r=26.698317239051434 stroke=""none"" stroke-width=""1.5"" fill=""none"" />
    <circle cx=352.7433655218971 cy=384 r=26.698317239051434 stroke=""none"" stroke-width=""1.5"" fill=""none"" />
    <circle cx=406.14 cy=330.6033655218971 r=26.698317239051434 stroke=""none"" stroke-width=""1.5"" fill=""none"" />
    <polygon points = ""406.14,384 413.65010314775895,357.30168276094855 398.629896852241,357.30168276094855"" stroke=""none"" stroke-width=""3"" fill = ""none"" />
    
    </svg>
    </div>
        ",,,,,,,,,,,,get_response,True,Yy5NFQ5ygqRfrLZn,,,True,True,True,213.86,4.0,410.274,53.39663447810287,1.0,1.0,0.0,,,,21
97,html-keyboard-response,97,296141,0.0-97.0,,,,"
    <div style="" display: block;  position: relative;"">
    
    <svg width=1366 height=768>
    <circle cx=620 cy=384 r=18.688822067336 stroke=""black"" stroke-width=""1"" fill=""black"" />
    <circle cx=459.5366344781029 cy=384 r=26.698317239051434 stroke=""none"" stroke-width=""1.5"" fill=""none"" />
    <circle cx=406.14 cy=437.3966344781029 r=26.698317239051434 stroke=""none"" stroke-width=""1.5"" fill=""none"" />
    <circle cx=352.7433655218971 cy=384 r=26.698317239051434 stroke=""none"" stroke-width=""1.5"" fill=""none"" />
    <circle cx=406.14 cy=330.6033655218971 r=26.698317239051434 stroke=""none"" stroke-width=""1.5"" fill=""none"" />
    <polygon points = ""406.14,384 413.65010314775895,357.30168276094855 398.629896852241,357.30168276094855"" stroke=""none"" stroke-width=""3"" fill = ""none"" />
    
    </svg>
    </div>
        ",,,,,,,,,,,,,,,,,,,,,,,,,,,,,,21
98,html-keyboard-response,98,296310,0.0-98.0,,,,"
    <div style="" display: block;  position: relative;"">
    <svg width=1366 height=768>
    
    <circle cx=620 cy=384 r=18.688822067336 stroke=""black"" stroke-width=""1"" fill=""black"" />
    <circle cx=406.14 cy=384 r=26.698317239051434 stroke=""black"" stroke-width=""1.5"" fill=""none"" />
    <circle cx=459.5366344781029 cy=384 r=26.698317239051434 stroke=""black"" stroke-width=""1.5"" fill=""none"" />
    <circle cx=406.14 cy=437.3966344781029 r=26.698317239051434 stroke=""black"" stroke-width=""1.5"" fill=""none"" />
    <circle cx=352.7433655218971 cy=384 r=26.698317239051434 stroke=""black"" stroke-width=""1.5"" fill=""none"" />
    <circle cx=406.14 cy=330.6033655218971 r=26.698317239051434 stroke=""black"" stroke-width=""1.5"" fill=""none"" />
    <polygon points = ""406.14,384 413.65010314775895,357.30168276094855 398.629896852241,357.30168276094855"" stroke=""white"" stroke-width=""3"" fill = ""white"" />
    
    </svg>
    </div>
        ",,,,,,,,,,,,stimulus,,,,,,,,,,,,,,,,,,21
99,html-keyboard-response,99,296741,0.0-99.0,429.5,arrowup,,"
    <div style="" display: block;  position: relative;"">
    
    <svg width=1366 height=768>
    <circle cx=620 cy=384 r=18.688822067336 stroke=""black"" stroke-width=""1"" fill=""black"" />
    <circle cx=459.5366344781029 cy=384 r=26.698317239051434 stroke=""none"" stroke-width=""1.5"" fill=""none"" />
    <circle cx=406.14 cy=437.3966344781029 r=26.698317239051434 stroke=""none"" stroke-width=""1.5"" fill=""none"" />
    <circle cx=352.7433655218971 cy=384 r=26.698317239051434 stroke=""none"" stroke-width=""1.5"" fill=""none"" />
    <circle cx=406.14 cy=330.6033655218971 r=26.698317239051434 stroke=""none"" stroke-width=""1.5"" fill=""none"" />
    <polygon points = ""406.14,384 413.65010314775895,357.30168276094855 398.629896852241,357.30168276094855"" stroke=""none"" stroke-width=""3"" fill = ""none"" />
    
    </svg>
    </div>
        ",,,,,,,,,,,,get_response,True,Yy5NFQ5ygqRfrLZn,,,True,True,True,213.86,4.0,410.274,53.39663447810287,1.0,1.0,0.96,,,,21
100,html-keyboard-response,100,303246,0.0-100.0,6503.099999904633,arrowdown,,"<div id=""continue""> 
<h2 class=""bolded-blue"">Great Job! You have completed half of the study!</h2>
<p>Before you start the session 2, let&#39;s measure your viewing distance again using the virtual chinrest.</p>
<p>Please press the <b>down</b> arrow key to continue. </p>
</div>",,,,,,,,,,,,,,,,,,,,,,,,,,,,,,21
101,virtual-chinrest,101,360072,0.0-101.0,56824.20000004768,,,,,,85.6,53.98,712.0,8.32,290.46,16.764708558183752,42.47016865989208,32.163752655167144,18.083281141411685,,,,,,,,,,,,,,,,,,,21
102,html-keyboard-response,102,371357,0.0-102.0,11283.799999952316,arrowdown,,"<div><h2 class=""bolded-blue"">Alright, let&#39;s do the peripheral vision test one more time!</h2>
<p>Please do not move around and keep your eye on the <b>black dot</b> all the time. Click <b>up</b> or <b>down</b> to indicate the opening
    of the center circle. The test is difficult for everyone, so if you are not sure, just take your best guess! </p> 
    <p>Now, press the <b>down</b> arrow key to start the task when you are ready!</p></div>",,,,,,,,,,,,,,,,,,,,,,,,,,,,,,21
103,html-keyboard-response,103,371865,0.0-103.0,,,,"
    <div style="" display: block;  position: relative;"">
    
    <svg width=1366 height=768>
    <circle cx=620 cy=384 r=15.368134893782424 stroke=""black"" stroke-width=""1"" fill=""black"" />
    <circle cx=497.5366344781029 cy=384 r=21.954478419689178 stroke=""none"" stroke-width=""1.5"" fill=""none"" />
    <circle cx=444.14 cy=437.3966344781029 r=21.954478419689178 stroke=""none"" stroke-width=""1.5"" fill=""none"" />
    <circle cx=390.7433655218971 cy=384 r=21.954478419689178 stroke=""none"" stroke-width=""1.5"" fill=""none"" />
    <circle cx=444.14 cy=330.6033655218971 r=21.954478419689178 stroke=""none"" stroke-width=""1.5"" fill=""none"" />
    <polygon points = ""444.14,384 450.31568500706646,405.95447841968917 437.9643149929335,405.95447841968917"" stroke=""none"" stroke-width=""3"" fill = ""none"" />
    
    </svg>
    </div>
        ",,,,,,,,,,,,,,,,,,,,,,,,,,,,,,21
104,html-keyboard-response,104,372034,0.0-104.0,,,,"
    <div style="" display: block;  position: relative;"">
    <svg width=1366 height=768>
    
    <circle cx=620 cy=384 r=15.368134893782424 stroke=""black"" stroke-width=""1"" fill=""black"" />
    <circle cx=444.14 cy=384 r=21.954478419689178 stroke=""black"" stroke-width=""1.5"" fill=""none"" />
    <circle cx=558.449 cy=384 r=21.954478419689178 stroke=""black"" stroke-width=""1.5"" fill=""none"" />
    <circle cx=444.14 cy=498.309 r=21.954478419689178 stroke=""black"" stroke-width=""1.5"" fill=""none"" />
    <circle cx=329.83099999999996 cy=384 r=21.954478419689178 stroke=""black"" stroke-width=""1.5"" fill=""none"" />
    <circle cx=444.14 cy=269.691 r=21.954478419689178 stroke=""black"" stroke-width=""1.5"" fill=""none"" />
    <polygon points = ""444.14,384 450.31568500706646,405.95447841968917 437.9643149929335,405.95447841968917"" stroke=""white"" stroke-width=""3"" fill = ""white"" />
    
    </svg>
    </div>
        ",,,,,,,,,,,,stimulus,,,,,,,,,,,,,,,,,,21
105,html-keyboard-response,105,372372,0.0-105.0,335.7999999523163,arrowdown,,"
    <div style="" display: block;  position: relative;"">
    
    <svg width=1366 height=768>
    <circle cx=620 cy=384 r=15.368134893782424 stroke=""black"" stroke-width=""1"" fill=""black"" />
    <circle cx=558.449 cy=384 r=21.954478419689178 stroke=""none"" stroke-width=""1.5"" fill=""none"" />
    <circle cx=444.14 cy=498.309 r=21.954478419689178 stroke=""none"" stroke-width=""1.5"" fill=""none"" />
    <circle cx=329.83099999999996 cy=384 r=21.954478419689178 stroke=""none"" stroke-width=""1.5"" fill=""none"" />
    <circle cx=444.14 cy=269.691 r=21.954478419689178 stroke=""none"" stroke-width=""1.5"" fill=""none"" />
    <polygon points = ""444.14,384 450.31568500706646,405.95447841968917 437.9643149929335,405.95447841968917"" stroke=""none"" stroke-width=""3"" fill = ""none"" />
    
    </svg>
    </div>
        ",,,,,,,,,,,,get_response,True,Yy5NFQ5ygqRfrLZn,,,True,False,True,175.86,4.0,303.31333333333333,114.309,2.6,2.0,0.0,,,,21
106,html-keyboard-response,106,372884,0.0-106.0,,,,"
    <div style="" display: block;  position: relative;"">
    
