,trial_type,trial_index,time_elapsed,internal_node_id,rt,response,success,stimulus,start_time,start_time_unix,item_width_mm,item_height_mm,item_width_px,px2mm,view_dist_mm,item_width_deg,px2deg,win_width_deg,win_height_deg,trialType,correct,participantID,criticalSpacing,criticalSpacing_deg,isLeft,isUp,isEccen4,eccentricity,eccentricity_deg,viewingDistanceMean,critical_spacing,critical_spacing_deg,crowding_session,correctRate,viewDistance_1,viewDistance_2,viewDistance_3,age
0,pavlovia,0,15,0.0-0.0,,,,,,,,,,,,,,,,,,,,,,,,,,,,,,,,,,22
2,fullscreen,2,144239,0.0-2.0,,,True,,,,,,,,,,,,,,,,,,,,,,,,,,,,,,,22
3,html-keyboard-response,3,176011,0.0-3.0,31760.200000047684, ,,"<h1>Consent Form</h1>
       <p>By answering the following questions, you are participating in a study being performed by cognitive scientists in the Stanford Department of Psychology. If you have questions about this research, please contact us at stanfordpsych251@gmail.com. You must be at least 18 years old to participate. Your participation in this research is voluntary. You may decline to answer any or all of the following questions. You may decline further participation by closing the window, at any time, without adverse consequences. Your anonymity is assured; the researchers who have requested your participation will not receive any personal information about you.</p>
       <p>Press <b>any key</b> to start the experiment!</p>",,,,,,,,,,,,,,,,,,,,,,,,,,,,,,22
4,html-keyboard-response,4,184581,0.0-4.0,8563.900000095367, ,,"<h1>Welcome to the Visual Crowding Experiment!</h1>
       <p>This test will take <b>10-12</b> minutes to complete.</p>
       <p>Press any key to start the experiment!</p>","12/1/2021, 8:02:44 AM",1638338564080.0,,,,,,,,,,,,,,,,,,,,,,,,,,,,22
5,html-keyboard-response,5,216303,0.0-5.0,31716.60000002384,arrowdown,,"<div> 
<p> Before you begin this study, let&#39;s quickly test how far away you are sitting. You might know that vision tests at a doctor&#39;s practice often involve chinrests, the doctor basically asks you to sit away from a screen in a specific distance. We do this here with a <b>virtual chinrest</b>. </p>
<p> Please press the <b>down</b> arrow to continue.
</p>
</div>",,,,,,,,,,,,,,,,,,,,,,,,,,,,,,22
6,virtual-chinrest,6,450758,0.0-6.0,234447.29999995232,,,,,,85.6,53.98,341.0,3.98,420.9,11.612540363348945,29.36480643600182,46.51827019452979,26.15375659546038,,,,,,,,,,,,,,,,,,,22
7,html-keyboard-response,7,614809,0.0-7.0,163927.89999997616,arrowdown,,"
	<h2 class=""bolded-blue"">Now, you will take a peripheral vision test!</h2>
<p> 
	<b>
		<font size=""140%"">1. </font>
	</b>
	<em><b>Please use both eyes for the following task.</b></em> First, you will see a screen (like the one in the image below) showing a <b>black dot</b> in the middle of the screen, with a group of circles displayed on either the <span class=""bolded-blue"">left</span> or <span class=""bolded-blue"">right</span> of the black dot for 150 ms. <span class=""bolded-blue"">Please make sure to focus on the black dot all the time!</span>

	<div>
		<img src=""example.png"" alt=""example"" style=""border: 2px solid black"" width=""600""/> 
	</div>
	
	<b>
		<font size=""140%"">2. </font>
	</b>
	Your task is to identify whether the opening of the <b class=""bolded-blue"">center circle</b> is upward by pressing UP or downward by pressing DOWN on your keyboard. The opening of the circle will only be upward or downward, not towards left or right.

	<div>
		<img src=""arrow_keys+.png"" alt=""arrows"" style=""border: 2px solid black"" width=""600""/>
	</div>
	<br>

<p>Please press the <b>down</b> arrow key to start the <span class=""bolded-blue"">practice task</span> (this first practice task will not count toward your final results).</p>
</p>
",,,,,,,,,,,,,,,,,,,,,,,,,,,,,,22
8,html-keyboard-response,8,615509,0.0-8.0,,,,"
    <div style="" display: block;  position: relative;"">
    
    <svg width=1366 height=768>
    <circle cx=620 cy=384 r=10.504861706088462 stroke=""black"" stroke-width=""1"" fill=""black"" />
    <circle cx=NaN cy=384 r=15.00694529441209 stroke=""none"" stroke-width=""1.5"" fill=""none"" />
    <circle cx=499.79 cy=NaN r=15.00694529441209 stroke=""none"" stroke-width=""1.5"" fill=""none"" />
    <circle cx=NaN cy=384 r=15.00694529441209 stroke=""none"" stroke-width=""1.5"" fill=""none"" />
    <circle cx=499.79 cy=NaN r=15.00694529441209 stroke=""none"" stroke-width=""1.5"" fill=""none"" />
    <polygon points = ""499.79,384 504.0113786765917,399.0069452944121 495.56862132340837,399.0069452944121"" stroke=""none"" stroke-width=""3"" fill = ""none"" />
    
    </svg>
    </div>
        ",,,,,,,,,,,,,,,,,,,,,,,,,,,,,,22
9,html-keyboard-response,9,615771,0.0-9.0,,,,"
    <div style="" display: block;  position: relative;"">
    <svg width=1366 height=768>
    
    <circle cx=620 cy=384 r=10.504861706088462 stroke=""black"" stroke-width=""1"" fill=""black"" />
    <circle cx=740.21 cy=384 r=15.00694529441209 stroke=""black"" stroke-width=""1.5"" fill=""none"" />
    <circle cx=818.3465 cy=384 r=15.00694529441209 stroke=""black"" stroke-width=""1.5"" fill=""none"" />
    <circle cx=740.21 cy=462.1365 r=15.00694529441209 stroke=""black"" stroke-width=""1.5"" fill=""none"" />
    <circle cx=662.0735000000001 cy=384 r=15.00694529441209 stroke=""black"" stroke-width=""1.5"" fill=""none"" />
    <circle cx=740.21 cy=305.8635 r=15.00694529441209 stroke=""black"" stroke-width=""1.5"" fill=""none"" />
    <polygon points = ""740.21,384 744.4313786765916,368.9930547055879 735.9886213234084,368.9930547055879"" stroke=""white"" stroke-width=""3"" fill = ""white"" />
    
    </svg>
    </div>
        ",,,,,,,,,,,,stimulus,,,,,,,,,,,,,,,,,,22
10,html-keyboard-response,10,667268,0.0-10.0,51483.5,arrowup,,"
    <div style="" display: block;  position: relative;"">
    
    <svg width=1366 height=768>
    <circle cx=620 cy=384 r=10.504861706088462 stroke=""black"" stroke-width=""1"" fill=""black"" />
    <circle cx=818.3465 cy=384 r=15.00694529441209 stroke=""none"" stroke-width=""1.5"" fill=""none"" />
    <circle cx=740.21 cy=462.1365 r=15.00694529441209 stroke=""none"" stroke-width=""1.5"" fill=""none"" />
    <circle cx=662.0735000000001 cy=384 r=15.00694529441209 stroke=""none"" stroke-width=""1.5"" fill=""none"" />
    <circle cx=740.21 cy=305.8635 r=15.00694529441209 stroke=""none"" stroke-width=""1.5"" fill=""none"" />
    <polygon points = ""740.21,384 744.4313786765916,368.9930547055879 735.9886213234084,368.9930547055879"" stroke=""none"" stroke-width=""3"" fill = ""none"" />
    
    </svg>
    </div>
        ",,,,,,,,,,,,practice_get_response,True,Xq8bjXrrhlzUejY6,78.1365,2.6,False,True,True,120.21,4.0,433.412,,,,,,,,22
11,html-keyboard-response,11,667842,0.0-11.0,,,,"
    <div style="" display: block;  position: relative;"">
    
    <svg width=1366 height=768>
    <circle cx=620 cy=384 r=10.504861706088462 stroke=""black"" stroke-width=""1"" fill=""black"" />
    <circle cx=818.3465 cy=384 r=15.00694529441209 stroke=""none"" stroke-width=""1.5"" fill=""none"" />
    <circle cx=740.21 cy=462.1365 r=15.00694529441209 stroke=""none"" stroke-width=""1.5"" fill=""none"" />
    <circle cx=662.0735000000001 cy=384 r=15.00694529441209 stroke=""none"" stroke-width=""1.5"" fill=""none"" />
    <circle cx=740.21 cy=305.8635 r=15.00694529441209 stroke=""none"" stroke-width=""1.5"" fill=""none"" />
    <polygon points = ""740.21,384 744.4313786765916,368.9930547055879 735.9886213234084,368.9930547055879"" stroke=""none"" stroke-width=""3"" fill = ""none"" />
    
    </svg>
    </div>
        ",,,,,,,,,,,,,,,,,,,,,,,,,,,,,,22
12,html-keyboard-response,12,668009,0.0-12.0,,,,"
    <div style="" display: block;  position: relative;"">
    <svg width=1366 height=768>
    
    <circle cx=620 cy=384 r=10.504861706088462 stroke=""black"" stroke-width=""1"" fill=""black"" />
    <circle cx=499.79 cy=384 r=15.00694529441209 stroke=""black"" stroke-width=""1.5"" fill=""none"" />
    <circle cx=577.9265 cy=384 r=15.00694529441209 stroke=""black"" stroke-width=""1.5"" fill=""none"" />
    <circle cx=499.79 cy=462.1365 r=15.00694529441209 stroke=""black"" stroke-width=""1.5"" fill=""none"" />
    <circle cx=421.6535 cy=384 r=15.00694529441209 stroke=""black"" stroke-width=""1.5"" fill=""none"" />
    <circle cx=499.79 cy=305.8635 r=15.00694529441209 stroke=""black"" stroke-width=""1.5"" fill=""none"" />
    <polygon points = ""499.79,384 504.0113786765917,399.0069452944121 495.56862132340837,399.0069452944121"" stroke=""white"" stroke-width=""3"" fill = ""white"" />
    
    </svg>
    </div>
        ",,,,,,,,,,,,stimulus,,,,,,,,,,,,,,,,,,22
13,html-keyboard-response,13,670419,0.0-13.0,2405.600000023842,arrowdown,,"
    <div style="" display: block;  position: relative;"">
    
    <svg width=1366 height=768>
    <circle cx=620 cy=384 r=10.504861706088462 stroke=""black"" stroke-width=""1"" fill=""black"" />
    <circle cx=577.9265 cy=384 r=15.00694529441209 stroke=""none"" stroke-width=""1.5"" fill=""none"" />
    <circle cx=499.79 cy=462.1365 r=15.00694529441209 stroke=""none"" stroke-width=""1.5"" fill=""none"" />
    <circle cx=421.6535 cy=384 r=15.00694529441209 stroke=""none"" stroke-width=""1.5"" fill=""none"" />
    <circle cx=499.79 cy=305.8635 r=15.00694529441209 stroke=""none"" stroke-width=""1.5"" fill=""none"" />
    <polygon points = ""499.79,384 504.0113786765917,399.0069452944121 495.56862132340837,399.0069452944121"" stroke=""none"" stroke-width=""3"" fill = ""none"" />
    
    </svg>
    </div>
        ",,,,,,,,,,,,practice_get_response,True,Xq8bjXrrhlzUejY6,78.1365,2.6,True,False,True,120.21,4.0,433.412,,,,,,,,22
14,html-keyboard-response,14,670941,0.0-14.0,,,,"
    <div style="" display: block;  position: relative;"">
    
    <svg width=1366 height=768>
    <circle cx=620 cy=384 r=10.504861706088462 stroke=""black"" stroke-width=""1"" fill=""black"" />
    <circle cx=577.9265 cy=384 r=15.00694529441209 stroke=""none"" stroke-width=""1.5"" fill=""none"" />
    <circle cx=499.79 cy=462.1365 r=15.00694529441209 stroke=""none"" stroke-width=""1.5"" fill=""none"" />
    <circle cx=421.6535 cy=384 r=15.00694529441209 stroke=""none"" stroke-width=""1.5"" fill=""none"" />
    <circle cx=499.79 cy=305.8635 r=15.00694529441209 stroke=""none"" stroke-width=""1.5"" fill=""none"" />
    <polygon points = ""499.79,384 504.0113786765917,399.0069452944121 495.56862132340837,399.0069452944121"" stroke=""none"" stroke-width=""3"" fill = ""none"" />
    
    </svg>
    </div>
        ",,,,,,,,,,,,,,,,,,,,,,,,,,,,,,22
15,html-keyboard-response,15,671190,0.0-15.0,,,,"
    <div style="" display: block;  position: relative;"">
    <svg width=1366 height=768>
    
    <circle cx=620 cy=384 r=10.504861706088462 stroke=""black"" stroke-width=""1"" fill=""black"" />
    <circle cx=740.21 cy=384 r=15.00694529441209 stroke=""black"" stroke-width=""1.5"" fill=""none"" />
    <circle cx=818.3465 cy=384 r=15.00694529441209 stroke=""black"" stroke-width=""1.5"" fill=""none"" />
    <circle cx=740.21 cy=462.1365 r=15.00694529441209 stroke=""black"" stroke-width=""1.5"" fill=""none"" />
    <circle cx=662.0735000000001 cy=384 r=15.00694529441209 stroke=""black"" stroke-width=""1.5"" fill=""none"" />
    <circle cx=740.21 cy=305.8635 r=15.00694529441209 stroke=""black"" stroke-width=""1.5"" fill=""none"" />
    <polygon points = ""740.21,384 744.4313786765916,399.0069452944121 735.9886213234084,399.0069452944121"" stroke=""white"" stroke-width=""3"" fill = ""white"" />
    
    </svg>
    </div>
        ",,,,,,,,,,,,stimulus,,,,,,,,,,,,,,,,,,22
16,html-keyboard-response,16,675476,0.0-16.0,4283.200000047684,arrowdown,,"
    <div style="" display: block;  position: relative;"">
    
    <svg width=1366 height=768>
    <circle cx=620 cy=384 r=10.504861706088462 stroke=""black"" stroke-width=""1"" fill=""black"" />
    <circle cx=818.3465 cy=384 r=15.00694529441209 stroke=""none"" stroke-width=""1.5"" fill=""none"" />
    <circle cx=740.21 cy=462.1365 r=15.00694529441209 stroke=""none"" stroke-width=""1.5"" fill=""none"" />
    <circle cx=662.0735000000001 cy=384 r=15.00694529441209 stroke=""none"" stroke-width=""1.5"" fill=""none"" />
    <circle cx=740.21 cy=305.8635 r=15.00694529441209 stroke=""none"" stroke-width=""1.5"" fill=""none"" />
    <polygon points = ""740.21,384 744.4313786765916,399.0069452944121 735.9886213234084,399.0069452944121"" stroke=""none"" stroke-width=""3"" fill = ""none"" />
    
    </svg>
    </div>
        ",,,,,,,,,,,,practice_get_response,True,Xq8bjXrrhlzUejY6,78.1365,2.6,False,False,True,120.21,4.0,433.412,,,,,,,,22
17,html-keyboard-response,17,675988,0.0-17.0,,,,"
    <div style="" display: block;  position: relative;"">
    
    <svg width=1366 height=768>
    <circle cx=620 cy=384 r=10.504861706088462 stroke=""black"" stroke-width=""1"" fill=""black"" />
    <circle cx=818.3465 cy=384 r=15.00694529441209 stroke=""none"" stroke-width=""1.5"" fill=""none"" />
    <circle cx=740.21 cy=462.1365 r=15.00694529441209 stroke=""none"" stroke-width=""1.5"" fill=""none"" />
    <circle cx=662.0735000000001 cy=384 r=15.00694529441209 stroke=""none"" stroke-width=""1.5"" fill=""none"" />
    <circle cx=740.21 cy=305.8635 r=15.00694529441209 stroke=""none"" stroke-width=""1.5"" fill=""none"" />
    <polygon points = ""740.21,384 744.4313786765916,399.0069452944121 735.9886213234084,399.0069452944121"" stroke=""none"" stroke-width=""3"" fill = ""none"" />
    
    </svg>
    </div>
        ",,,,,,,,,,,,,,,,,,,,,,,,,,,,,,22
18,html-keyboard-response,18,676147,0.0-18.0,,,,"
    <div style="" display: block;  position: relative;"">
    <svg width=1366 height=768>
    
    <circle cx=620 cy=384 r=10.504861706088462 stroke=""black"" stroke-width=""1"" fill=""black"" />
    <circle cx=499.79 cy=384 r=15.00694529441209 stroke=""black"" stroke-width=""1.5"" fill=""none"" />
    <circle cx=570.8231818181819 cy=384 r=15.00694529441209 stroke=""black"" stroke-width=""1.5"" fill=""none"" />
    <circle cx=499.79 cy=455.0331818181818 r=15.00694529441209 stroke=""black"" stroke-width=""1.5"" fill=""none"" />
    <circle cx=428.7568181818182 cy=384 r=15.00694529441209 stroke=""black"" stroke-width=""1.5"" fill=""none"" />
    <circle cx=499.79 cy=312.9668181818182 r=15.00694529441209 stroke=""black"" stroke-width=""1.5"" fill=""none"" />
    <polygon points = ""499.79,384 504.0113786765917,399.0069452944121 495.56862132340837,399.0069452944121"" stroke=""white"" stroke-width=""3"" fill = ""white"" />
    
    </svg>
    </div>
        ",,,,,,,,,,,,stimulus,,,,,,,,,,,,,,,,,,22
19,html-keyboard-response,19,679062,0.0-19.0,2912.2999999523163,arrowup,,"
    <div style="" display: block;  position: relative;"">
    
    <svg width=1366 height=768>
    <circle cx=620 cy=384 r=10.504861706088462 stroke=""black"" stroke-width=""1"" fill=""black"" />
    <circle cx=570.8231818181819 cy=384 r=15.00694529441209 stroke=""none"" stroke-width=""1.5"" fill=""none"" />
    <circle cx=499.79 cy=455.0331818181818 r=15.00694529441209 stroke=""none"" stroke-width=""1.5"" fill=""none"" />
    <circle cx=428.7568181818182 cy=384 r=15.00694529441209 stroke=""none"" stroke-width=""1.5"" fill=""none"" />
    <circle cx=499.79 cy=312.9668181818182 r=15.00694529441209 stroke=""none"" stroke-width=""1.5"" fill=""none"" />
    <polygon points = ""499.79,384 504.0113786765917,399.0069452944121 495.56862132340837,399.0069452944121"" stroke=""none"" stroke-width=""3"" fill = ""none"" />
    
    </svg>
    </div>
        ",,,,,,,,,,,,practice_get_response,False,Xq8bjXrrhlzUejY6,71.03318181818182,2.36,True,False,True,120.21,4.0,433.412,,,,,,,,22
20,html-keyboard-response,20,679576,0.0-20.0,,,,"
    <div style="" display: block;  position: relative;"">
    
    <svg width=1366 height=768>
    <circle cx=620 cy=384 r=10.504861706088462 stroke=""black"" stroke-width=""1"" fill=""black"" />
    <circle cx=570.8231818181819 cy=384 r=15.00694529441209 stroke=""none"" stroke-width=""1.5"" fill=""none"" />
    <circle cx=499.79 cy=455.0331818181818 r=15.00694529441209 stroke=""none"" stroke-width=""1.5"" fill=""none"" />
    <circle cx=428.7568181818182 cy=384 r=15.00694529441209 stroke=""none"" stroke-width=""1.5"" fill=""none"" />
    <circle cx=499.79 cy=312.9668181818182 r=15.00694529441209 stroke=""none"" stroke-width=""1.5"" fill=""none"" />
    <polygon points = ""499.79,384 504.0113786765917,399.0069452944121 495.56862132340837,399.0069452944121"" stroke=""none"" stroke-width=""3"" fill = ""none"" />
    
    </svg>
    </div>
        ",,,,,,,,,,,,,,,,,,,,,,,,,,,,,,22
21,html-keyboard-response,21,679744,0.0-21.0,,,,"
    <div style="" display: block;  position: relative;"">
    <svg width=1366 height=768>
    
    <circle cx=620 cy=384 r=10.504861706088462 stroke=""black"" stroke-width=""1"" fill=""black"" />
    <circle cx=499.79 cy=384 r=15.00694529441209 stroke=""black"" stroke-width=""1.5"" fill=""none"" />
    <circle cx=589.9861094111758 cy=384 r=15.00694529441209 stroke=""black"" stroke-width=""1.5"" fill=""none"" />
    <circle cx=499.79 cy=474.1961094111758 r=15.00694529441209 stroke=""black"" stroke-width=""1.5"" fill=""none"" />
    <circle cx=409.5938905888242 cy=384 r=15.00694529441209 stroke=""black"" stroke-width=""1.5"" fill=""none"" />
    <circle cx=499.79 cy=293.8038905888242 r=15.00694529441209 stroke=""black"" stroke-width=""1.5"" fill=""none"" />
    <polygon points = ""499.79,384 504.0113786765917,368.9930547055879 495.56862132340837,368.9930547055879"" stroke=""white"" stroke-width=""3"" fill = ""white"" />
    
    </svg>
    </div>
        ",,,,,,,,,,,,stimulus,,,,,,,,,,,,,,,,,,22
22,html-keyboard-response,22,680761,0.0-22.0,1014.100000023842,arrowup,,"
    <div style="" display: block;  position: relative;"">
    
    <svg width=1366 height=768>
    <circle cx=620 cy=384 r=10.504861706088462 stroke=""black"" stroke-width=""1"" fill=""black"" />
    <circle cx=589.9861094111758 cy=384 r=15.00694529441209 stroke=""none"" stroke-width=""1.5"" fill=""none"" />
    <circle cx=499.79 cy=474.1961094111758 r=15.00694529441209 stroke=""none"" stroke-width=""1.5"" fill=""none"" />
    <circle cx=409.5938905888242 cy=384 r=15.00694529441209 stroke=""none"" stroke-width=""1.5"" fill=""none"" />
    <circle cx=499.79 cy=293.8038905888242 r=15.00694529441209 stroke=""none"" stroke-width=""1.5"" fill=""none"" />
    <polygon points = ""499.79,384 504.0113786765917,368.9930547055879 495.56862132340837,368.9930547055879"" stroke=""none"" stroke-width=""3"" fill = ""none"" />
    
    </svg>
    </div>
        ",,,,,,,,,,,,practice_get_response,True,Xq8bjXrrhlzUejY6,90.1961094111758,3.0,True,True,True,120.21,4.0,433.412,,,,,,,,22
23,html-keyboard-response,23,690939,0.0-23.0,10172.899999976158,arrowdown,,"<div> 
<h2 class=""bolded-blue"">Well done!</h2>
<p> Now that you have the hang of it, we&#39;ll start the study. This session has 25 trials and takes about 2 minute to complete. </p> 
<p>If you are ready for the real deal, please press the <b>down</b> arrow to continue.
</p>
</div>",,,,,,,,,,,,,,,,,,,,,,,,,,,,,,22
24,html-keyboard-response,24,704250,0.0-24.0,13275.699999928474,arrowdown,,"<div id=""continue""> 
<p>Again, please keep the <b>full screen</b> mode for the best experience.</p>
<p>Please do not move around and keep your eye on the black dot. Click <b>up</b> or <b>down</b> key on your keyboard to indicate the opening of the center circle. Make your best guess!</p>
<p>Please press the <b>down</b> arrow key to start the session 1. </p>
</div>",,,,,,,,,,,,,,,,,,,,,,,,,,,,,,22
25,html-keyboard-response,25,704772,0.0-25.0,,,,"
    <div style="" display: block;  position: relative;"">
    
    <svg width=1366 height=768>
    <circle cx=620 cy=384 r=10.504861706088462 stroke=""black"" stroke-width=""1"" fill=""black"" />
    <circle cx=589.9861094111758 cy=384 r=15.00694529441209 stroke=""none"" stroke-width=""1.5"" fill=""none"" />
    <circle cx=499.79 cy=474.1961094111758 r=15.00694529441209 stroke=""none"" stroke-width=""1.5"" fill=""none"" />
    <circle cx=409.5938905888242 cy=384 r=15.00694529441209 stroke=""none"" stroke-width=""1.5"" fill=""none"" />
    <circle cx=499.79 cy=293.8038905888242 r=15.00694529441209 stroke=""none"" stroke-width=""1.5"" fill=""none"" />
    <polygon points = ""499.79,384 504.0113786765917,399.0069452944121 495.56862132340837,399.0069452944121"" stroke=""none"" stroke-width=""3"" fill = ""none"" />
    
    </svg>
    </div>
        ",,,,,,,,,,,,,,,,,,,,,,,,,,,,,,22
26,html-keyboard-response,26,704934,0.0-26.0,,,,"
    <div style="" display: block;  position: relative;"">
    <svg width=1366 height=768>
    
    <circle cx=620 cy=384 r=10.504861706088462 stroke=""black"" stroke-width=""1"" fill=""black"" />
    <circle cx=499.79 cy=384 r=15.00694529441209 stroke=""black"" stroke-width=""1.5"" fill=""none"" />
    <circle cx=577.9265 cy=384 r=15.00694529441209 stroke=""black"" stroke-width=""1.5"" fill=""none"" />
    <circle cx=499.79 cy=462.1365 r=15.00694529441209 stroke=""black"" stroke-width=""1.5"" fill=""none"" />
    <circle cx=421.6535 cy=384 r=15.00694529441209 stroke=""black"" stroke-width=""1.5"" fill=""none"" />
    <circle cx=499.79 cy=305.8635 r=15.00694529441209 stroke=""black"" stroke-width=""1.5"" fill=""none"" />
    <polygon points = ""499.79,384 504.0113786765917,368.9930547055879 495.56862132340837,368.9930547055879"" stroke=""white"" stroke-width=""3"" fill = ""white"" />
    
    </svg>
    </div>
        ",,,,,,,,,,,,stimulus,,,,,,,,,,,,,,,,,,22
27,html-keyboard-response,27,705837,0.0-27.0,892.8999999761581,arrowup,,"
    <div style="" display: block;  position: relative;"">
    
    <svg width=1366 height=768>
    <circle cx=620 cy=384 r=10.504861706088462 stroke=""black"" stroke-width=""1"" fill=""black"" />
    <circle cx=577.9265 cy=384 r=15.00694529441209 stroke=""none"" stroke-width=""1.5"" fill=""none"" />
    <circle cx=499.79 cy=462.1365 r=15.00694529441209 stroke=""none"" stroke-width=""1.5"" fill=""none"" />
    <circle cx=421.6535 cy=384 r=15.00694529441209 stroke=""none"" stroke-width=""1.5"" fill=""none"" />
    <circle cx=499.79 cy=305.8635 r=15.00694529441209 stroke=""none"" stroke-width=""1.5"" fill=""none"" />
    <polygon points = ""499.79,384 504.0113786765917,368.9930547055879 495.56862132340837,368.9930547055879"" stroke=""none"" stroke-width=""3"" fill = ""none"" />
    
    </svg>
    </div>
        ",,,,,,,,,,,,get_response,True,Xq8bjXrrhlzUejY6,,,True,True,True,120.21,4.0,433.412,78.1365,2.6,1.0,0.0,,,,22
28,html-keyboard-response,28,706386,0.0-28.0,,,,"
    <div style="" display: block;  position: relative;"">
    
    <svg width=1366 height=768>
    <circle cx=620 cy=384 r=10.504861706088462 stroke=""black"" stroke-width=""1"" fill=""black"" />
    <circle cx=577.9265 cy=384 r=15.00694529441209 stroke=""none"" stroke-width=""1.5"" fill=""none"" />
    <circle cx=499.79 cy=462.1365 r=15.00694529441209 stroke=""none"" stroke-width=""1.5"" fill=""none"" />
    <circle cx=421.6535 cy=384 r=15.00694529441209 stroke=""none"" stroke-width=""1.5"" fill=""none"" />
    <circle cx=499.79 cy=305.8635 r=15.00694529441209 stroke=""none"" stroke-width=""1.5"" fill=""none"" />
    <polygon points = ""499.79,384 504.0113786765917,368.9930547055879 495.56862132340837,368.9930547055879"" stroke=""none"" stroke-width=""3"" fill = ""none"" />
    
    </svg>
    </div>
        ",,,,,,,,,,,,,,,,,,,,,,,,,,,,,,22
29,html-keyboard-response,29,706548,0.0-29.0,,,,"
    <div style="" display: block;  position: relative;"">
    <svg width=1366 height=768>
    
    <circle cx=620 cy=384 r=10.504861706088462 stroke=""black"" stroke-width=""1"" fill=""black"" />
    <circle cx=740.21 cy=384 r=15.00694529441209 stroke=""black"" stroke-width=""1.5"" fill=""none"" />
    <circle cx=818.3465 cy=384 r=15.00694529441209 stroke=""black"" stroke-width=""1.5"" fill=""none"" />
    <circle cx=740.21 cy=462.1365 r=15.00694529441209 stroke=""black"" stroke-width=""1.5"" fill=""none"" />
    <circle cx=662.0735000000001 cy=384 r=15.00694529441209 stroke=""black"" stroke-width=""1.5"" fill=""none"" />
    <circle cx=740.21 cy=305.8635 r=15.00694529441209 stroke=""black"" stroke-width=""1.5"" fill=""none"" />
    <polygon points = ""740.21,384 744.4313786765916,368.9930547055879 735.9886213234084,368.9930547055879"" stroke=""white"" stroke-width=""3"" fill = ""white"" />
    
    </svg>
    </div>
        ",,,,,,,,,,,,stimulus,,,,,,,,,,,,,,,,,,22
30,html-keyboard-response,30,707500,0.0-30.0,943.5,arrowup,,"
    <div style="" display: block;  position: relative;"">
    
    <svg width=1366 height=768>
    <circle cx=620 cy=384 r=10.504861706088462 stroke=""black"" stroke-width=""1"" fill=""black"" />
    <circle cx=818.3465 cy=384 r=15.00694529441209 stroke=""none"" stroke-width=""1.5"" fill=""none"" />
    <circle cx=740.21 cy=462.1365 r=15.00694529441209 stroke=""none"" stroke-width=""1.5"" fill=""none"" />
    <circle cx=662.0735000000001 cy=384 r=15.00694529441209 stroke=""none"" stroke-width=""1.5"" fill=""none"" />
    <circle cx=740.21 cy=305.8635 r=15.00694529441209 stroke=""none"" stroke-width=""1.5"" fill=""none"" />
    <polygon points = ""740.21,384 744.4313786765916,368.9930547055879 735.9886213234084,368.9930547055879"" stroke=""none"" stroke-width=""3"" fill = ""none"" />
    
    </svg>
    </div>
        ",,,,,,,,,,,,get_response,True,Xq8bjXrrhlzUejY6,,,False,True,True,120.21,4.0,433.412,78.1365,2.6,1.0,0.0,,,,22
31,html-keyboard-response,31,708021,0.0-31.0,,,,"
    <div style="" display: block;  position: relative;"">
    
    <svg width=1366 height=768>
    <circle cx=620 cy=384 r=10.504861706088462 stroke=""black"" stroke-width=""1"" fill=""black"" />
    <circle cx=818.3465 cy=384 r=15.00694529441209 stroke=""none"" stroke-width=""1.5"" fill=""none"" />
    <circle cx=740.21 cy=462.1365 r=15.00694529441209 stroke=""none"" stroke-width=""1.5"" fill=""none"" />
    <circle cx=662.0735000000001 cy=384 r=15.00694529441209 stroke=""none"" stroke-width=""1.5"" fill=""none"" />
    <circle cx=740.21 cy=305.8635 r=15.00694529441209 stroke=""none"" stroke-width=""1.5"" fill=""none"" />
    <polygon points = ""740.21,384 744.4313786765916,368.9930547055879 735.9886213234084,368.9930547055879"" stroke=""none"" stroke-width=""3"" fill = ""none"" />
    
    </svg>
    </div>
        ",,,,,,,,,,,,,,,,,,,,,,,,,,,,,,22
32,html-keyboard-response,32,708200,0.0-32.0,,,,"
    <div style="" display: block;  position: relative;"">
    <svg width=1366 height=768>
    
    <circle cx=620 cy=384 r=10.504861706088462 stroke=""black"" stroke-width=""1"" fill=""black"" />
    <circle cx=740.21 cy=384 r=15.00694529441209 stroke=""black"" stroke-width=""1.5"" fill=""none"" />
    <circle cx=818.3465 cy=384 r=15.00694529441209 stroke=""black"" stroke-width=""1.5"" fill=""none"" />
    <circle cx=740.21 cy=462.1365 r=15.00694529441209 stroke=""black"" stroke-width=""1.5"" fill=""none"" />
    <circle cx=662.0735000000001 cy=384 r=15.00694529441209 stroke=""black"" stroke-width=""1.5"" fill=""none"" />
    <circle cx=740.21 cy=305.8635 r=15.00694529441209 stroke=""black"" stroke-width=""1.5"" fill=""none"" />
    <polygon points = ""740.21,384 744.4313786765916,368.9930547055879 735.9886213234084,368.9930547055879"" stroke=""white"" stroke-width=""3"" fill = ""white"" />
    
    </svg>
    </div>
        ",,,,,,,,,,,,stimulus,,,,,,,,,,,,,,,,,,22
33,html-keyboard-response,33,709040,0.0-33.0,830.1000000238419,arrowup,,"
    <div style="" display: block;  position: relative;"">
    
    <svg width=1366 height=768>
    <circle cx=620 cy=384 r=10.504861706088462 stroke=""black"" stroke-width=""1"" fill=""black"" />
    <circle cx=818.3465 cy=384 r=15.00694529441209 stroke=""none"" stroke-width=""1.5"" fill=""none"" />
    <circle cx=740.21 cy=462.1365 r=15.00694529441209 stroke=""none"" stroke-width=""1.5"" fill=""none"" />
    <circle cx=662.0735000000001 cy=384 r=15.00694529441209 stroke=""none"" stroke-width=""1.5"" fill=""none"" />
    <circle cx=740.21 cy=305.8635 r=15.00694529441209 stroke=""none"" stroke-width=""1.5"" fill=""none"" />
    <polygon points = ""740.21,384 744.4313786765916,368.9930547055879 735.9886213234084,368.9930547055879"" stroke=""none"" stroke-width=""3"" fill = ""none"" />
    
    </svg>
    </div>
        ",,,,,,,,,,,,get_response,True,Xq8bjXrrhlzUejY6,,,False,True,True,120.21,4.0,433.412,78.1365,2.6,1.0,0.0,,,,22
34,html-keyboard-response,34,709570,0.0-34.0,,,,"
    <div style="" display: block;  position: relative;"">
    
    <svg width=1366 height=768>
    <circle cx=620 cy=384 r=10.504861706088462 stroke=""black"" stroke-width=""1"" fill=""black"" />
    <circle cx=818.3465 cy=384 r=15.00694529441209 stroke=""none"" stroke-width=""1.5"" fill=""none"" />
    <circle cx=740.21 cy=462.1365 r=15.00694529441209 stroke=""none"" stroke-width=""1.5"" fill=""none"" />
    <circle cx=662.0735000000001 cy=384 r=15.00694529441209 stroke=""none"" stroke-width=""1.5"" fill=""none"" />
    <circle cx=740.21 cy=305.8635 r=15.00694529441209 stroke=""none"" stroke-width=""1.5"" fill=""none"" />
    <polygon points = ""740.21,384 744.4313786765916,368.9930547055879 735.9886213234084,368.9930547055879"" stroke=""none"" stroke-width=""3"" fill = ""none"" />
    
    </svg>
    </div>
        ",,,,,,,,,,,,,,,,,,,,,,,,,,,,,,22
35,html-keyboard-response,35,709732,0.0-35.0,,,,"
    <div style="" display: block;  position: relative;"">
    <svg width=1366 height=768>
    
    <circle cx=620 cy=384 r=10.504861706088462 stroke=""black"" stroke-width=""1"" fill=""black"" />
    <circle cx=499.79 cy=384 r=15.00694529441209 stroke=""black"" stroke-width=""1.5"" fill=""none"" />
    <circle cx=570.8231818181819 cy=384 r=15.00694529441209 stroke=""black"" stroke-width=""1.5"" fill=""none"" />
    <circle cx=499.79 cy=455.0331818181818 r=15.00694529441209 stroke=""black"" stroke-width=""1.5"" fill=""none"" />
    <circle cx=428.7568181818182 cy=384 r=15.00694529441209 stroke=""black"" stroke-width=""1.5"" fill=""none"" />
    <circle cx=499.79 cy=312.9668181818182 r=15.00694529441209 stroke=""black"" stroke-width=""1.5"" fill=""none"" />
    <polygon points = ""499.79,384 504.0113786765917,399.0069452944121 495.56862132340837,399.0069452944121"" stroke=""white"" stroke-width=""3"" fill = ""white"" />
    
    </svg>
    </div>
        ",,,,,,,,,,,,stimulus,,,,,,,,,,,,,,,,,,22
36,html-keyboard-response,36,710585,0.0-36.0,844.3999999761581,arrowdown,,"
    <div style="" display: block;  position: relative;"">
    
    <svg width=1366 height=768>
    <circle cx=620 cy=384 r=10.504861706088462 stroke=""black"" stroke-width=""1"" fill=""black"" />
    <circle cx=570.8231818181819 cy=384 r=15.00694529441209 stroke=""none"" stroke-width=""1.5"" fill=""none"" />
    <circle cx=499.79 cy=455.0331818181818 r=15.00694529441209 stroke=""none"" stroke-width=""1.5"" fill=""none"" />
    <circle cx=428.7568181818182 cy=384 r=15.00694529441209 stroke=""none"" stroke-width=""1.5"" fill=""none"" />
    <circle cx=499.79 cy=312.9668181818182 r=15.00694529441209 stroke=""none"" stroke-width=""1.5"" fill=""none"" />
    <polygon points = ""499.79,384 504.0113786765917,399.0069452944121 495.56862132340837,399.0069452944121"" stroke=""none"" stroke-width=""3"" fill = ""none"" />
    
    </svg>
    </div>
        ",,,,,,,,,,,,get_response,True,Xq8bjXrrhlzUejY6,,,True,False,True,120.21,4.0,433.412,71.03318181818182,2.36,1.0,0.0,,,,22
37,html-keyboard-response,37,711105,0.0-37.0,,,,"
    <div style="" display: block;  position: relative;"">
    
    <svg width=1366 height=768>
    <circle cx=620 cy=384 r=10.504861706088462 stroke=""black"" stroke-width=""1"" fill=""black"" />
    <circle cx=570.8231818181819 cy=384 r=15.00694529441209 stroke=""none"" stroke-width=""1.5"" fill=""none"" />
    <circle cx=499.79 cy=455.0331818181818 r=15.00694529441209 stroke=""none"" stroke-width=""1.5"" fill=""none"" />
    <circle cx=428.7568181818182 cy=384 r=15.00694529441209 stroke=""none"" stroke-width=""1.5"" fill=""none"" />
    <circle cx=499.79 cy=312.9668181818182 r=15.00694529441209 stroke=""none"" stroke-width=""1.5"" fill=""none"" />
    <polygon points = ""499.79,384 504.0113786765917,399.0069452944121 495.56862132340837,399.0069452944121"" stroke=""none"" stroke-width=""3"" fill = ""none"" />
    
    </svg>
    </div>
        ",,,,,,,,,,,,,,,,,,,,,,,,,,,,,,22
38,html-keyboard-response,38,711283,0.0-38.0,,,,"
    <div style="" display: block;  position: relative;"">
    <svg width=1366 height=768>
    
    <circle cx=620 cy=384 r=10.504861706088462 stroke=""black"" stroke-width=""1"" fill=""black"" />
    <circle cx=740.21 cy=384 r=15.00694529441209 stroke=""black"" stroke-width=""1.5"" fill=""none"" />
    <circle cx=804.7856198347108 cy=384 r=15.00694529441209 stroke=""black"" stroke-width=""1.5"" fill=""none"" />
    <circle cx=740.21 cy=448.5756198347107 r=15.00694529441209 stroke=""black"" stroke-width=""1.5"" fill=""none"" />
    <circle cx=675.6343801652893 cy=384 r=15.00694529441209 stroke=""black"" stroke-width=""1.5"" fill=""none"" />
    <circle cx=740.21 cy=319.4243801652893 r=15.00694529441209 stroke=""black"" stroke-width=""1.5"" fill=""none"" />
    <polygon points = ""740.21,384 744.4313786765916,399.0069452944121 735.9886213234084,399.0069452944121"" stroke=""white"" stroke-width=""3"" fill = ""white"" />
    
    </svg>
    </div>
        ",,,,,,,,,,,,stimulus,,,,,,,,,,,,,,,,,,22
39,html-keyboard-response,39,712408,0.0-39.0,1115.399999976158,arrowup,,"
    <div style="" display: block;  position: relative;"">
    
    <svg width=1366 height=768>
    <circle cx=620 cy=384 r=10.504861706088462 stroke=""black"" stroke-width=""1"" fill=""black"" />
    <circle cx=804.7856198347108 cy=384 r=15.00694529441209 stroke=""none"" stroke-width=""1.5"" fill=""none"" />
    <circle cx=740.21 cy=448.5756198347107 r=15.00694529441209 stroke=""none"" stroke-width=""1.5"" fill=""none"" />
    <circle cx=675.6343801652893 cy=384 r=15.00694529441209 stroke=""none"" stroke-width=""1.5"" fill=""none"" />
    <circle cx=740.21 cy=319.4243801652893 r=15.00694529441209 stroke=""none"" stroke-width=""1.5"" fill=""none"" />
    <polygon points = ""740.21,384 744.4313786765916,399.0069452944121 735.9886213234084,399.0069452944121"" stroke=""none"" stroke-width=""3"" fill = ""none"" />
    
    </svg>
    </div>
        ",,,,,,,,,,,,get_response,False,Xq8bjXrrhlzUejY6,,,False,False,True,120.21,4.0,433.412,64.57561983471074,2.15,1.0,0.0,,,,22
40,html-keyboard-response,40,712929,0.0-40.0,,,,"
    <div style="" display: block;  position: relative;"">
    
    <svg width=1366 height=768>
    <circle cx=620 cy=384 r=10.504861706088462 stroke=""black"" stroke-width=""1"" fill=""black"" />
    <circle cx=804.7856198347108 cy=384 r=15.00694529441209 stroke=""none"" stroke-width=""1.5"" fill=""none"" />
    <circle cx=740.21 cy=448.5756198347107 r=15.00694529441209 stroke=""none"" stroke-width=""1.5"" fill=""none"" />
    <circle cx=675.6343801652893 cy=384 r=15.00694529441209 stroke=""none"" stroke-width=""1.5"" fill=""none"" />
    <circle cx=740.21 cy=319.4243801652893 r=15.00694529441209 stroke=""none"" stroke-width=""1.5"" fill=""none"" />
    <polygon points = ""740.21,384 744.4313786765916,399.0069452944121 735.9886213234084,399.0069452944121"" stroke=""none"" stroke-width=""3"" fill = ""none"" />
    
    </svg>
    </div>
        ",,,,,,,,,,,,,,,,,,,,,,,,,,,,,,22
41,html-keyboard-response,41,713103,0.0-41.0,,,,"
    <div style="" display: block;  position: relative;"">
    <svg width=1366 height=768>
    
    <circle cx=620 cy=384 r=10.504861706088462 stroke=""black"" stroke-width=""1"" fill=""black"" />
    <circle cx=740.21 cy=384 r=15.00694529441209 stroke=""black"" stroke-width=""1.5"" fill=""none"" />
    <circle cx=824.158305785124 cy=384 r=15.00694529441209 stroke=""black"" stroke-width=""1.5"" fill=""none"" />
    <circle cx=740.21 cy=467.948305785124 r=15.00694529441209 stroke=""black"" stroke-width=""1.5"" fill=""none"" />
    <circle cx=656.2616942148761 cy=384 r=15.00694529441209 stroke=""black"" stroke-width=""1.5"" fill=""none"" />
    <circle cx=740.21 cy=300.051694214876 r=15.00694529441209 stroke=""black"" stroke-width=""1.5"" fill=""none"" />
    <polygon points = ""740.21,384 744.4313786765916,399.0069452944121 735.9886213234084,399.0069452944121"" stroke=""white"" stroke-width=""3"" fill = ""white"" />
    
    </svg>
    </div>
        ",,,,,,,,,,,,stimulus,,,,,,,,,,,,,,,,,,22
42,html-keyboard-response,42,713944,0.0-42.0,838.5,arrowdown,,"
    <div style="" display: block;  position: relative;"">
    
    <svg width=1366 height=768>
    <circle cx=620 cy=384 r=10.504861706088462 stroke=""black"" stroke-width=""1"" fill=""black"" />
    <circle cx=824.158305785124 cy=384 r=15.00694529441209 stroke=""none"" stroke-width=""1.5"" fill=""none"" />
    <circle cx=740.21 cy=467.948305785124 r=15.00694529441209 stroke=""none"" stroke-width=""1.5"" fill=""none"" />
    <circle cx=656.2616942148761 cy=384 r=15.00694529441209 stroke=""none"" stroke-width=""1.5"" fill=""none"" />
    <circle cx=740.21 cy=300.051694214876 r=15.00694529441209 stroke=""none"" stroke-width=""1.5"" fill=""none"" />
    <polygon points = ""740.21,384 744.4313786765916,399.0069452944121 735.9886213234084,399.0069452944121"" stroke=""none"" stroke-width=""3"" fill = ""none"" />
    
    </svg>
    </div>
        ",,,,,,,,,,,,get_response,True,Xq8bjXrrhlzUejY6,,,False,False,True,120.21,4.0,433.412,83.94830578512396,2.79,1.0,0.0,,,,22
43,html-keyboard-response,43,714457,0.0-43.0,,,,"
    <div style="" display: block;  position: relative;"">
    
    <svg width=1366 height=768>
    <circle cx=620 cy=384 r=10.504861706088462 stroke=""black"" stroke-width=""1"" fill=""black"" />
    <circle cx=824.158305785124 cy=384 r=15.00694529441209 stroke=""none"" stroke-width=""1.5"" fill=""none"" />
    <circle cx=740.21 cy=467.948305785124 r=15.00694529441209 stroke=""none"" stroke-width=""1.5"" fill=""none"" />
    <circle cx=656.2616942148761 cy=384 r=15.00694529441209 stroke=""none"" stroke-width=""1.5"" fill=""none"" />
    <circle cx=740.21 cy=300.051694214876 r=15.00694529441209 stroke=""none"" stroke-width=""1.5"" fill=""none"" />
    <polygon points = ""740.21,384 744.4313786765916,399.0069452944121 735.9886213234084,399.0069452944121"" stroke=""none"" stroke-width=""3"" fill = ""none"" />
    
    </svg>
    </div>
        ",,,,,,,,,,,,,,,,,,,,,,,,,,,,,,22
44,html-keyboard-response,44,714623,0.0-44.0,,,,"
    <div style="" display: block;  position: relative;"">
    <svg width=1366 height=768>
    
    <circle cx=620 cy=384 r=10.504861706088462 stroke=""black"" stroke-width=""1"" fill=""black"" />
    <circle cx=499.79 cy=384 r=15.00694529441209 stroke=""black"" stroke-width=""1.5"" fill=""none"" />
    <circle cx=583.738305785124 cy=384 r=15.00694529441209 stroke=""black"" stroke-width=""1.5"" fill=""none"" />
    <circle cx=499.79 cy=467.948305785124 r=15.00694529441209 stroke=""black"" stroke-width=""1.5"" fill=""none"" />
    <circle cx=415.84169421487604 cy=384 r=15.00694529441209 stroke=""black"" stroke-width=""1.5"" fill=""none"" />
    <circle cx=499.79 cy=300.051694214876 r=15.00694529441209 stroke=""black"" stroke-width=""1.5"" fill=""none"" />
    <polygon points = ""499.79,384 504.0113786765917,399.0069452944121 495.56862132340837,399.0069452944121"" stroke=""white"" stroke-width=""3"" fill = ""white"" />
    
    </svg>
    </div>
        ",,,,,,,,,,,,stimulus,,,,,,,,,,,,,,,,,,22
45,html-keyboard-response,45,715391,0.0-45.0,754.2999999523163,arrowdown,,"
    <div style="" display: block;  position: relative;"">
    
    <svg width=1366 height=768>
    <circle cx=620 cy=384 r=10.504861706088462 stroke=""black"" stroke-width=""1"" fill=""black"" />
    <circle cx=583.738305785124 cy=384 r=15.00694529441209 stroke=""none"" stroke-width=""1.5"" fill=""none"" />
    <circle cx=499.79 cy=467.948305785124 r=15.00694529441209 stroke=""none"" stroke-width=""1.5"" fill=""none"" />
    <circle cx=415.84169421487604 cy=384 r=15.00694529441209 stroke=""none"" stroke-width=""1.5"" fill=""none"" />
    <circle cx=499.79 cy=300.051694214876 r=15.00694529441209 stroke=""none"" stroke-width=""1.5"" fill=""none"" />
    <polygon points = ""499.79,384 504.0113786765917,399.0069452944121 495.56862132340837,399.0069452944121"" stroke=""none"" stroke-width=""3"" fill = ""none"" />
    
    </svg>
    </div>
        ",,,,,,,,,,,,get_response,True,Xq8bjXrrhlzUejY6,,,True,False,True,120.21,4.0,433.412,83.94830578512396,2.79,1.0,0.0,,,,22
46,html-keyboard-response,46,715914,0.0-46.0,,,,"
    <div style="" display: block;  position: relative;"">
    
    <svg width=1366 height=768>
    <circle cx=620 cy=384 r=10.504861706088462 stroke=""black"" stroke-width=""1"" fill=""black"" />
    <circle cx=583.738305785124 cy=384 r=15.00694529441209 stroke=""none"" stroke-width=""1.5"" fill=""none"" />
    <circle cx=499.79 cy=467.948305785124 r=15.00694529441209 stroke=""none"" stroke-width=""1.5"" fill=""none"" />
    <circle cx=415.84169421487604 cy=384 r=15.00694529441209 stroke=""none"" stroke-width=""1.5"" fill=""none"" />
    <circle cx=499.79 cy=300.051694214876 r=15.00694529441209 stroke=""none"" stroke-width=""1.5"" fill=""none"" />
    <polygon points = ""499.79,384 504.0113786765917,399.0069452944121 495.56862132340837,399.0069452944121"" stroke=""none"" stroke-width=""3"" fill = ""none"" />
    
    </svg>
    </div>
        ",,,,,,,,,,,,,,,,,,,,,,,,,,,,,,22
47,html-keyboard-response,47,716084,0.0-47.0,,,,"
    <div style="" display: block;  position: relative;"">
    <svg width=1366 height=768>
    
    <circle cx=620 cy=384 r=10.504861706088462 stroke=""black"" stroke-width=""1"" fill=""black"" />
    <circle cx=740.21 cy=384 r=15.00694529441209 stroke=""black"" stroke-width=""1.5"" fill=""none"" />
    <circle cx=824.158305785124 cy=384 r=15.00694529441209 stroke=""black"" stroke-width=""1.5"" fill=""none"" />
    <circle cx=740.21 cy=467.948305785124 r=15.00694529441209 stroke=""black"" stroke-width=""1.5"" fill=""none"" />
    <circle cx=656.2616942148761 cy=384 r=15.00694529441209 stroke=""black"" stroke-width=""1.5"" fill=""none"" />
    <circle cx=740.21 cy=300.051694214876 r=15.00694529441209 stroke=""black"" stroke-width=""1.5"" fill=""none"" />
    <polygon points = ""740.21,384 744.4313786765916,368.9930547055879 735.9886213234084,368.9930547055879"" stroke=""white"" stroke-width=""3"" fill = ""white"" />
    
    </svg>
    </div>
        ",,,,,,,,,,,,stimulus,,,,,,,,,,,,,,,,,,22
48,html-keyboard-response,48,716857,0.0-48.0,768.1000000238419,arrowup,,"
    <div style="" display: block;  position: relative;"">
    
    <svg width=1366 height=768>
    <circle cx=620 cy=384 r=10.504861706088462 stroke=""black"" stroke-width=""1"" fill=""black"" />
    <circle cx=824.158305785124 cy=384 r=15.00694529441209 stroke=""none"" stroke-width=""1.5"" fill=""none"" />
    <circle cx=740.21 cy=467.948305785124 r=15.00694529441209 stroke=""none"" stroke-width=""1.5"" fill=""none"" />
    <circle cx=656.2616942148761 cy=384 r=15.00694529441209 stroke=""none"" stroke-width=""1.5"" fill=""none"" />
    <circle cx=740.21 cy=300.051694214876 r=15.00694529441209 stroke=""none"" stroke-width=""1.5"" fill=""none"" />
    <polygon points = ""740.21,384 744.4313786765916,368.9930547055879 735.9886213234084,368.9930547055879"" stroke=""none"" stroke-width=""3"" fill = ""none"" />
    
    </svg>
    </div>
        ",,,,,,,,,,,,get_response,True,Xq8bjXrrhlzUejY6,,,False,True,True,120.21,4.0,433.412,83.94830578512396,2.79,1.0,0.0,,,,22
49,html-keyboard-response,49,717370,0.0-49.0,,,,"
    <div style="" display: block;  position: relative;"">
    
    <svg width=1366 height=768>
    <circle cx=620 cy=384 r=10.504861706088462 stroke=""black"" stroke-width=""1"" fill=""black"" />
    <circle cx=824.158305785124 cy=384 r=15.00694529441209 stroke=""none"" stroke-width=""1.5"" fill=""none"" />
    <circle cx=740.21 cy=467.948305785124 r=15.00694529441209 stroke=""none"" stroke-width=""1.5"" fill=""none"" />
    <circle cx=656.2616942148761 cy=384 r=15.00694529441209 stroke=""none"" stroke-width=""1.5"" fill=""none"" />
    <circle cx=740.21 cy=300.051694214876 r=15.00694529441209 stroke=""none"" stroke-width=""1.5"" fill=""none"" />
    <polygon points = ""740.21,384 744.4313786765916,368.9930547055879 735.9886213234084,368.9930547055879"" stroke=""none"" stroke-width=""3"" fill = ""none"" />
    
    </svg>
    </div>
        ",,,,,,,,,,,,,,,,,,,,,,,,,,,,,,22
50,html-keyboard-response,50,717525,0.0-50.0,,,,"
    <div style="" display: block;  position: relative;"">
    <svg width=1366 height=768>
    
    <circle cx=620 cy=384 r=10.504861706088462 stroke=""black"" stroke-width=""1"" fill=""black"" />
    <circle cx=740.21 cy=384 r=15.00694529441209 stroke=""black"" stroke-width=""1.5"" fill=""none"" />
    <circle cx=816.52664162284 cy=384 r=15.00694529441209 stroke=""black"" stroke-width=""1.5"" fill=""none"" />
    <circle cx=740.21 cy=460.31664162283994 r=15.00694529441209 stroke=""black"" stroke-width=""1.5"" fill=""none"" />
    <circle cx=663.8933583771601 cy=384 r=15.00694529441209 stroke=""black"" stroke-width=""1.5"" fill=""none"" />
    <circle cx=740.21 cy=307.68335837716006 r=15.00694529441209 stroke=""black"" stroke-width=""1.5"" fill=""none"" />
    <polygon points = ""740.21,384 744.4313786765916,368.9930547055879 735.9886213234084,368.9930547055879"" stroke=""white"" stroke-width=""3"" fill = ""white"" />
    
    </svg>
    </div>
        ",,,,,,,,,,,,stimulus,,,,,,,,,,,,,,,,,,22
51,html-keyboard-response,51,718166,0.0-51.0,636.7000000476837,arrowup,,"
    <div style="" display: block;  position: relative;"">
    
    <svg width=1366 height=768>
    <circle cx=620 cy=384 r=10.504861706088462 stroke=""black"" stroke-width=""1"" fill=""black"" />
    <circle cx=816.52664162284 cy=384 r=15.00694529441209 stroke=""none"" stroke-width=""1.5"" fill=""none"" />
    <circle cx=740.21 cy=460.31664162283994 r=15.00694529441209 stroke=""none"" stroke-width=""1.5"" fill=""none"" />
    <circle cx=663.8933583771601 cy=384 r=15.00694529441209 stroke=""none"" stroke-width=""1.5"" fill=""none"" />
    <circle cx=740.21 cy=307.68335837716006 r=15.00694529441209 stroke=""none"" stroke-width=""1.5"" fill=""none"" />
    <polygon points = ""740.21,384 744.4313786765916,368.9930547055879 735.9886213234084,368.9930547055879"" stroke=""none"" stroke-width=""3"" fill = ""none"" />
    
    </svg>
    </div>
        ",,,,,,,,,,,,get_response,True,Xq8bjXrrhlzUejY6,,,False,True,True,120.21,4.0,433.412,76.31664162283997,2.54,1.0,0.0,,,,22
52,html-keyboard-response,52,718676,0.0-52.0,,,,"
    <div style="" display: block;  position: relative;"">
    
    <svg width=1366 height=768>
    <circle cx=620 cy=384 r=10.504861706088462 stroke=""black"" stroke-width=""1"" fill=""black"" />
    <circle cx=816.52664162284 cy=384 r=15.00694529441209 stroke=""none"" stroke-width=""1.5"" fill=""none"" />
    <circle cx=740.21 cy=460.31664162283994 r=15.00694529441209 stroke=""none"" stroke-width=""1.5"" fill=""none"" />
    <circle cx=663.8933583771601 cy=384 r=15.00694529441209 stroke=""none"" stroke-width=""1.5"" fill=""none"" />
    <circle cx=740.21 cy=307.68335837716006 r=15.00694529441209 stroke=""none"" stroke-width=""1.5"" fill=""none"" />
    <polygon points = ""740.21,384 744.4313786765916,368.9930547055879 735.9886213234084,368.9930547055879"" stroke=""none"" stroke-width=""3"" fill = ""none"" />
    
    </svg>
    </div>
        ",,,,,,,,,,,,,,,,,,,,,,,,,,,,,,22
53,html-keyboard-response,53,718862,0.0-53.0,,,,"
    <div style="" display: block;  position: relative;"">
    <svg width=1366 height=768>
    
    <circle cx=620 cy=384 r=10.504861706088462 stroke=""black"" stroke-width=""1"" fill=""black"" />
    <circle cx=499.79 cy=384 r=15.00694529441209 stroke=""black"" stroke-width=""1.5"" fill=""none"" />
    <circle cx=569.1687651116727 cy=384 r=15.00694529441209 stroke=""black"" stroke-width=""1.5"" fill=""none"" />
    <circle cx=499.79 cy=453.3787651116727 r=15.00694529441209 stroke=""black"" stroke-width=""1.5"" fill=""none"" />
    <circle cx=430.41123488832733 cy=384 r=15.00694529441209 stroke=""black"" stroke-width=""1.5"" fill=""none"" />
    <circle cx=499.79 cy=314.6212348883273 r=15.00694529441209 stroke=""black"" stroke-width=""1.5"" fill=""none"" />
    <polygon points = ""499.79,384 504.0113786765917,399.0069452944121 495.56862132340837,399.0069452944121"" stroke=""white"" stroke-width=""3"" fill = ""white"" />
    
    </svg>
    </div>
        ",,,,,,,,,,,,stimulus,,,,,,,,,,,,,,,,,,22
54,html-keyboard-response,54,719487,0.0-54.0,618.7999999523163,arrowdown,,"
    <div style="" display: block;  position: relative;"">
    
    <svg width=1366 height=768>
    <circle cx=620 cy=384 r=10.504861706088462 stroke=""black"" stroke-width=""1"" fill=""black"" />
    <circle cx=569.1687651116727 cy=384 r=15.00694529441209 stroke=""none"" stroke-width=""1.5"" fill=""none"" />
    <circle cx=499.79 cy=453.3787651116727 r=15.00694529441209 stroke=""none"" stroke-width=""1.5"" fill=""none"" />
    <circle cx=430.41123488832733 cy=384 r=15.00694529441209 stroke=""none"" stroke-width=""1.5"" fill=""none"" />
    <circle cx=499.79 cy=314.6212348883273 r=15.00694529441209 stroke=""none"" stroke-width=""1.5"" fill=""none"" />
    <polygon points = ""499.79,384 504.0113786765917,399.0069452944121 495.56862132340837,399.0069452944121"" stroke=""none"" stroke-width=""3"" fill = ""none"" />
    
    </svg>
    </div>
        ",,,,,,,,,,,,get_response,True,Xq8bjXrrhlzUejY6,,,True,False,True,120.21,4.0,433.412,69.37876511167269,2.31,1.0,0.0,,,,22
55,html-keyboard-response,55,720003,0.0-55.0,,,,"
    <div style="" display: block;  position: relative;"">
    
    <svg width=1366 height=768>
    <circle cx=620 cy=384 r=10.504861706088462 stroke=""black"" stroke-width=""1"" fill=""black"" />
    <circle cx=569.1687651116727 cy=384 r=15.00694529441209 stroke=""none"" stroke-width=""1.5"" fill=""none"" />
    <circle cx=499.79 cy=453.3787651116727 r=15.00694529441209 stroke=""none"" stroke-width=""1.5"" fill=""none"" />
    <circle cx=430.41123488832733 cy=384 r=15.00694529441209 stroke=""none"" stroke-width=""1.5"" fill=""none"" />
    <circle cx=499.79 cy=314.6212348883273 r=15.00694529441209 stroke=""none"" stroke-width=""1.5"" fill=""none"" />
    <polygon points = ""499.79,384 504.0113786765917,399.0069452944121 495.56862132340837,399.0069452944121"" stroke=""none"" stroke-width=""3"" fill = ""none"" />
    
    </svg>
    </div>
        ",,,,,,,,,,,,,,,,,,,,,,,,,,,,,,22
56,html-keyboard-response,56,720170,0.0-56.0,,,,"
    <div style="" display: block;  position: relative;"">
    <svg width=1366 height=768>
    
    <circle cx=620 cy=384 r=10.504861706088462 stroke=""black"" stroke-width=""1"" fill=""black"" />
    <circle cx=740.21 cy=384 r=15.00694529441209 stroke=""black"" stroke-width=""1.5"" fill=""none"" />
    <circle cx=803.2816046469752 cy=384 r=15.00694529441209 stroke=""black"" stroke-width=""1.5"" fill=""none"" />
    <circle cx=740.21 cy=447.0716046469752 r=15.00694529441209 stroke=""black"" stroke-width=""1.5"" fill=""none"" />
    <circle cx=677.1383953530249 cy=384 r=15.00694529441209 stroke=""black"" stroke-width=""1.5"" fill=""none"" />
    <circle cx=740.21 cy=320.9283953530248 r=15.00694529441209 stroke=""black"" stroke-width=""1.5"" fill=""none"" />
    <polygon points = ""740.21,384 744.4313786765916,399.0069452944121 735.9886213234084,399.0069452944121"" stroke=""white"" stroke-width=""3"" fill = ""white"" />
    
    </svg>
    </div>
        ",,,,,,,,,,,,stimulus,,,,,,,,,,,,,,,,,,22
57,html-keyboard-response,57,720918,0.0-57.0,742.0,arrowdown,,"
    <div style="" display: block;  position: relative;"">
    
    <svg width=1366 height=768>
    <circle cx=620 cy=384 r=10.504861706088462 stroke=""black"" stroke-width=""1"" fill=""black"" />
    <circle cx=803.2816046469752 cy=384 r=15.00694529441209 stroke=""none"" stroke-width=""1.5"" fill=""none"" />
    <circle cx=740.21 cy=447.0716046469752 r=15.00694529441209 stroke=""none"" stroke-width=""1.5"" fill=""none"" />
    <circle cx=677.1383953530249 cy=384 r=15.00694529441209 stroke=""none"" stroke-width=""1.5"" fill=""none"" />
    <circle cx=740.21 cy=320.9283953530248 r=15.00694529441209 stroke=""none"" stroke-width=""1.5"" fill=""none"" />
    <polygon points = ""740.21,384 744.4313786765916,399.0069452944121 735.9886213234084,399.0069452944121"" stroke=""none"" stroke-width=""3"" fill = ""none"" />
    
    </svg>
    </div>
        ",,,,,,,,,,,,get_response,True,Xq8bjXrrhlzUejY6,,,False,False,True,120.21,4.0,433.412,63.07160464697517,2.1,1.0,0.0,,,,22
58,html-keyboard-response,58,721431,0.0-58.0,,,,"
    <div style="" display: block;  position: relative;"">
    
    <svg width=1366 height=768>
    <circle cx=620 cy=384 r=10.504861706088462 stroke=""black"" stroke-width=""1"" fill=""black"" />
    <circle cx=803.2816046469752 cy=384 r=15.00694529441209 stroke=""none"" stroke-width=""1.5"" fill=""none"" />
    <circle cx=740.21 cy=447.0716046469752 r=15.00694529441209 stroke=""none"" stroke-width=""1.5"" fill=""none"" />
    <circle cx=677.1383953530249 cy=384 r=15.00694529441209 stroke=""none"" stroke-width=""1.5"" fill=""none"" />
    <circle cx=740.21 cy=320.9283953530248 r=15.00694529441209 stroke=""none"" stroke-width=""1.5"" fill=""none"" />
    <polygon points = ""740.21,384 744.4313786765916,399.0069452944121 735.9886213234084,399.0069452944121"" stroke=""none"" stroke-width=""3"" fill = ""none"" />
    
    </svg>
    </div>
        ",,,,,,,,,,,,,,,,,,,,,,,,,,,,,,22
59,html-keyboard-response,59,721598,0.0-59.0,,,,"
    <div style="" display: block;  position: relative;"">
    <svg width=1366 height=768>
    
    <circle cx=620 cy=384 r=10.504861706088462 stroke=""black"" stroke-width=""1"" fill=""black"" />
    <circle cx=740.21 cy=384 r=15.00694529441209 stroke=""black"" stroke-width=""1.5"" fill=""none"" />
    <circle cx=797.5478224063411 cy=384 r=15.00694529441209 stroke=""black"" stroke-width=""1.5"" fill=""none"" />
    <circle cx=740.21 cy=441.33782240634105 r=15.00694529441209 stroke=""black"" stroke-width=""1.5"" fill=""none"" />
    <circle cx=682.872177593659 cy=384 r=15.00694529441209 stroke=""black"" stroke-width=""1.5"" fill=""none"" />
    <circle cx=740.21 cy=326.66217759365895 r=15.00694529441209 stroke=""black"" stroke-width=""1.5"" fill=""none"" />
    <polygon points = ""740.21,384 744.4313786765916,368.9930547055879 735.9886213234084,368.9930547055879"" stroke=""white"" stroke-width=""3"" fill = ""white"" />
    
    </svg>
    </div>
        ",,,,,,,,,,,,stimulus,,,,,,,,,,,,,,,,,,22
60,html-keyboard-response,60,722426,0.0-60.0,820.3999999761581,arrowup,,"
    <div style="" display: block;  position: relative;"">
    
    <svg width=1366 height=768>
    <circle cx=620 cy=384 r=10.504861706088462 stroke=""black"" stroke-width=""1"" fill=""black"" />
    <circle cx=797.5478224063411 cy=384 r=15.00694529441209 stroke=""none"" stroke-width=""1.5"" fill=""none"" />
    <circle cx=740.21 cy=441.33782240634105 r=15.00694529441209 stroke=""none"" stroke-width=""1.5"" fill=""none"" />
    <circle cx=682.872177593659 cy=384 r=15.00694529441209 stroke=""none"" stroke-width=""1.5"" fill=""none"" />
    <circle cx=740.21 cy=326.66217759365895 r=15.00694529441209 stroke=""none"" stroke-width=""1.5"" fill=""none"" />
    <polygon points = ""740.21,384 744.4313786765916,368.9930547055879 735.9886213234084,368.9930547055879"" stroke=""none"" stroke-width=""3"" fill = ""none"" />
    
    </svg>
    </div>
        ",,,,,,,,,,,,get_response,True,Xq8bjXrrhlzUejY6,,,False,True,True,120.21,4.0,433.412,57.337822406341054,1.91,1.0,0.0,,,,22
61,html-keyboard-response,61,722946,0.0-61.0,,,,"
    <div style="" display: block;  position: relative;"">
    
    <svg width=1366 height=768>
    <circle cx=620 cy=384 r=10.504861706088462 stroke=""black"" stroke-width=""1"" fill=""black"" />
    <circle cx=797.5478224063411 cy=384 r=15.00694529441209 stroke=""none"" stroke-width=""1.5"" fill=""none"" />
    <circle cx=740.21 cy=441.33782240634105 r=15.00694529441209 stroke=""none"" stroke-width=""1.5"" fill=""none"" />
    <circle cx=682.872177593659 cy=384 r=15.00694529441209 stroke=""none"" stroke-width=""1.5"" fill=""none"" />
    <circle cx=740.21 cy=326.66217759365895 r=15.00694529441209 stroke=""none"" stroke-width=""1.5"" fill=""none"" />
    <polygon points = ""740.21,384 744.4313786765916,368.9930547055879 735.9886213234084,368.9930547055879"" stroke=""none"" stroke-width=""3"" fill = ""none"" />
    
    </svg>
    </div>
        ",,,,,,,,,,,,,,,,,,,,,,,,,,,,,,22
62,html-keyboard-response,62,723117,0.0-62.0,,,,"
    <div style="" display: block;  position: relative;"">
    <svg width=1366 height=768>
    
    <circle cx=620 cy=384 r=10.504861706088462 stroke=""black"" stroke-width=""1"" fill=""black"" />
    <circle cx=740.21 cy=384 r=15.00694529441209 stroke=""black"" stroke-width=""1.5"" fill=""none"" />
    <circle cx=792.3352930966737 cy=384 r=15.00694529441209 stroke=""black"" stroke-width=""1.5"" fill=""none"" />
    <circle cx=740.21 cy=436.12529309667366 r=15.00694529441209 stroke=""black"" stroke-width=""1.5"" fill=""none"" />
    <circle cx=688.0847069033264 cy=384 r=15.00694529441209 stroke=""black"" stroke-width=""1.5"" fill=""none"" />
    <circle cx=740.21 cy=331.87470690332634 r=15.00694529441209 stroke=""black"" stroke-width=""1.5"" fill=""none"" />
    <polygon points = ""740.21,384 744.4313786765916,368.9930547055879 735.9886213234084,368.9930547055879"" stroke=""white"" stroke-width=""3"" fill = ""white"" />
    
    </svg>
    </div>
        ",,,,,,,,,,,,stimulus,,,,,,,,,,,,,,,,,,22
63,html-keyboard-response,63,723844,0.0-63.0,719.7999999523163,arrowup,,"
    <div style="" display: block;  position: relative;"">
    
    <svg width=1366 height=768>
    <circle cx=620 cy=384 r=10.504861706088462 stroke=""black"" stroke-width=""1"" fill=""black"" />
    <circle cx=792.3352930966737 cy=384 r=15.00694529441209 stroke=""none"" stroke-width=""1.5"" fill=""none"" />
    <circle cx=740.21 cy=436.12529309667366 r=15.00694529441209 stroke=""none"" stroke-width=""1.5"" fill=""none"" />
    <circle cx=688.0847069033264 cy=384 r=15.00694529441209 stroke=""none"" stroke-width=""1.5"" fill=""none"" />
    <circle cx=740.21 cy=331.87470690332634 r=15.00694529441209 stroke=""none"" stroke-width=""1.5"" fill=""none"" />
    <polygon points = ""740.21,384 744.4313786765916,368.9930547055879 735.9886213234084,368.9930547055879"" stroke=""none"" stroke-width=""3"" fill = ""none"" />
    
    </svg>
    </div>
        ",,,,,,,,,,,,get_response,True,Xq8bjXrrhlzUejY6,,,False,True,True,120.21,4.0,433.412,52.12529309667368,1.73,1.0,0.0,,,,22
64,html-keyboard-response,64,724355,0.0-64.0,,,,"
    <div style="" display: block;  position: relative;"">
    
    <svg width=1366 height=768>
    <circle cx=620 cy=384 r=10.504861706088462 stroke=""black"" stroke-width=""1"" fill=""black"" />
    <circle cx=792.3352930966737 cy=384 r=15.00694529441209 stroke=""none"" stroke-width=""1.5"" fill=""none"" />
    <circle cx=740.21 cy=436.12529309667366 r=15.00694529441209 stroke=""none"" stroke-width=""1.5"" fill=""none"" />
    <circle cx=688.0847069033264 cy=384 r=15.00694529441209 stroke=""none"" stroke-width=""1.5"" fill=""none"" />
    <circle cx=740.21 cy=331.87470690332634 r=15.00694529441209 stroke=""none"" stroke-width=""1.5"" fill=""none"" />
    <polygon points = ""740.21,384 744.4313786765916,368.9930547055879 735.9886213234084,368.9930547055879"" stroke=""none"" stroke-width=""3"" fill = ""none"" />
    
    </svg>
    </div>
        ",,,,,,,,,,,,,,,,,,,,,,,,,,,,,,22
65,html-keyboard-response,65,724514,0.0-65.0,,,,"
    <div style="" display: block;  position: relative;"">
    <svg width=1366 height=768>
    
    <circle cx=620 cy=384 r=10.504861706088462 stroke=""black"" stroke-width=""1"" fill=""black"" />
    <circle cx=740.21 cy=384 r=15.00694529441209 stroke=""black"" stroke-width=""1.5"" fill=""none"" />
    <circle cx=787.5966300878852 cy=384 r=15.00694529441209 stroke=""black"" stroke-width=""1.5"" fill=""none"" />
    <circle cx=740.21 cy=431.3866300878852 r=15.00694529441209 stroke=""black"" stroke-width=""1.5"" fill=""none"" />
    <circle cx=692.8233699121149 cy=384 r=15.00694529441209 stroke=""black"" stroke-width=""1.5"" fill=""none"" />
    <circle cx=740.21 cy=336.6133699121148 r=15.00694529441209 stroke=""black"" stroke-width=""1.5"" fill=""none"" />
    <polygon points = ""740.21,384 744.4313786765916,399.0069452944121 735.9886213234084,399.0069452944121"" stroke=""white"" stroke-width=""3"" fill = ""white"" />
    
    </svg>
    </div>
        ",,,,,,,,,,,,stimulus,,,,,,,,,,,,,,,,,,22
66,html-keyboard-response,66,725377,0.0-66.0,859.7000000476837,arrowdown,,"
    <div style="" display: block;  position: relative;"">
    
    <svg width=1366 height=768>
    <circle cx=620 cy=384 r=10.504861706088462 stroke=""black"" stroke-width=""1"" fill=""black"" />
    <circle cx=787.5966300878852 cy=384 r=15.00694529441209 stroke=""none"" stroke-width=""1.5"" fill=""none"" />
    <circle cx=740.21 cy=431.3866300878852 r=15.00694529441209 stroke=""none"" stroke-width=""1.5"" fill=""none"" />
    <circle cx=692.8233699121149 cy=384 r=15.00694529441209 stroke=""none"" stroke-width=""1.5"" fill=""none"" />
    <circle cx=740.21 cy=336.6133699121148 r=15.00694529441209 stroke=""none"" stroke-width=""1.5"" fill=""none"" />
    <polygon points = ""740.21,384 744.4313786765916,399.0069452944121 735.9886213234084,399.0069452944121"" stroke=""none"" stroke-width=""3"" fill = ""none"" />
    
    </svg>
    </div>
        ",,,,,,,,,,,,get_response,True,Xq8bjXrrhlzUejY6,,,False,False,True,120.21,4.0,433.412,47.38663008788516,1.57,1.0,0.0,,,,22
67,html-keyboard-response,67,725880,0.0-67.0,,,,"
    <div style="" display: block;  position: relative;"">
    
    <svg width=1366 height=768>
    <circle cx=620 cy=384 r=10.504861706088462 stroke=""black"" stroke-width=""1"" fill=""black"" />
    <circle cx=787.5966300878852 cy=384 r=15.00694529441209 stroke=""none"" stroke-width=""1.5"" fill=""none"" />
    <circle cx=740.21 cy=431.3866300878852 r=15.00694529441209 stroke=""none"" stroke-width=""1.5"" fill=""none"" />
    <circle cx=692.8233699121149 cy=384 r=15.00694529441209 stroke=""none"" stroke-width=""1.5"" fill=""none"" />
    <circle cx=740.21 cy=336.6133699121148 r=15.00694529441209 stroke=""none"" stroke-width=""1.5"" fill=""none"" />
    <polygon points = ""740.21,384 744.4313786765916,399.0069452944121 735.9886213234084,399.0069452944121"" stroke=""none"" stroke-width=""3"" fill = ""none"" />
    
    </svg>
    </div>
        ",,,,,,,,,,,,,,,,,,,,,,,,,,,,,,22
68,html-keyboard-response,68,726049,0.0-68.0,,,,"
    <div style="" display: block;  position: relative;"">
    <svg width=1366 height=768>
    
    <circle cx=620 cy=384 r=10.504861706088462 stroke=""black"" stroke-width=""1"" fill=""black"" />
    <circle cx=740.21 cy=384 r=15.00694529441209 stroke=""black"" stroke-width=""1.5"" fill=""none"" />
    <circle cx=783.2887546253502 cy=384 r=15.00694529441209 stroke=""black"" stroke-width=""1.5"" fill=""none"" />
    <circle cx=740.21 cy=427.07875462535014 r=15.00694529441209 stroke=""black"" stroke-width=""1.5"" fill=""none"" />
    <circle cx=697.1312453746499 cy=384 r=15.00694529441209 stroke=""black"" stroke-width=""1.5"" fill=""none"" />
    <circle cx=740.21 cy=340.92124537464986 r=15.00694529441209 stroke=""black"" stroke-width=""1.5"" fill=""none"" />
    <polygon points = ""740.21,384 744.4313786765916,399.0069452944121 735.9886213234084,399.0069452944121"" stroke=""white"" stroke-width=""3"" fill = ""white"" />
    
    </svg>
    </div>
        ",,,,,,,,,,,,stimulus,,,,,,,,,,,,,,,,,,22
69,html-keyboard-response,69,726750,0.0-69.0,691.2000000476837,arrowdown,,"
    <div style="" display: block;  position: relative;"">
    
    <svg width=1366 height=768>
    <circle cx=620 cy=384 r=10.504861706088462 stroke=""black"" stroke-width=""1"" fill=""black"" />
    <circle cx=783.2887546253502 cy=384 r=15.00694529441209 stroke=""none"" stroke-width=""1.5"" fill=""none"" />
    <circle cx=740.21 cy=427.07875462535014 r=15.00694529441209 stroke=""none"" stroke-width=""1.5"" fill=""none"" />
    <circle cx=697.1312453746499 cy=384 r=15.00694529441209 stroke=""none"" stroke-width=""1.5"" fill=""none"" />
    <circle cx=740.21 cy=340.92124537464986 r=15.00694529441209 stroke=""none"" stroke-width=""1.5"" fill=""none"" />
    <polygon points = ""740.21,384 744.4313786765916,399.0069452944121 735.9886213234084,399.0069452944121"" stroke=""none"" stroke-width=""3"" fill = ""none"" />
    
    </svg>
    </div>
        ",,,,,,,,,,,,get_response,True,Xq8bjXrrhlzUejY6,,,False,False,True,120.21,4.0,433.412,43.07875462535014,1.43,1.0,0.0,,,,22
70,html-keyboard-response,70,727263,0.0-70.0,,,,"
    <div style="" display: block;  position: relative;"">
    
    <svg width=1366 height=768>
    <circle cx=620 cy=384 r=10.504861706088462 stroke=""black"" stroke-width=""1"" fill=""black"" />
    <circle cx=783.2887546253502 cy=384 r=15.00694529441209 stroke=""none"" stroke-width=""1.5"" fill=""none"" />
    <circle cx=740.21 cy=427.07875462535014 r=15.00694529441209 stroke=""none"" stroke-width=""1.5"" fill=""none"" />
    <circle cx=697.1312453746499 cy=384 r=15.00694529441209 stroke=""none"" stroke-width=""1.5"" fill=""none"" />
    <circle cx=740.21 cy=340.92124537464986 r=15.00694529441209 stroke=""none"" stroke-width=""1.5"" fill=""none"" />
    <polygon points = ""740.21,384 744.4313786765916,399.0069452944121 735.9886213234084,399.0069452944121"" stroke=""none"" stroke-width=""3"" fill = ""none"" />
    
    </svg>
    </div>
        ",,,,,,,,,,,,,,,,,,,,,,,,,,,,,,22
71,html-keyboard-response,71,727443,0.0-71.0,,,,"
    <div style="" display: block;  position: relative;"">
    <svg width=1366 height=768>
    
    <circle cx=620 cy=384 r=10.504861706088462 stroke=""black"" stroke-width=""1"" fill=""black"" />
    <circle cx=740.21 cy=384 r=15.00694529441209 stroke=""black"" stroke-width=""1.5"" fill=""none"" />
    <circle cx=779.3725042048638 cy=384 r=15.00694529441209 stroke=""black"" stroke-width=""1.5"" fill=""none"" />
    <circle cx=740.21 cy=423.16250420486375 r=15.00694529441209 stroke=""black"" stroke-width=""1.5"" fill=""none"" />
    <circle cx=701.0474957951362 cy=384 r=15.00694529441209 stroke=""black"" stroke-width=""1.5"" fill=""none"" />
    <circle cx=740.21 cy=344.83749579513625 r=15.00694529441209 stroke=""black"" stroke-width=""1.5"" fill=""none"" />
    <polygon points = ""740.21,384 744.4313786765916,399.0069452944121 735.9886213234084,399.0069452944121"" stroke=""white"" stroke-width=""3"" fill = ""white"" />
    
    </svg>
    </div>
        ",,,,,,,,,,,,stimulus,,,,,,,,,,,,,,,,,,22
72,html-keyboard-response,72,728228,0.0-72.0,779.0,arrowdown,,"
    <div style="" display: block;  position: relative;"">
    
    <svg width=1366 height=768>
    <circle cx=620 cy=384 r=10.504861706088462 stroke=""black"" stroke-width=""1"" fill=""black"" />
    <circle cx=779.3725042048638 cy=384 r=15.00694529441209 stroke=""none"" stroke-width=""1.5"" fill=""none"" />
    <circle cx=740.21 cy=423.16250420486375 r=15.00694529441209 stroke=""none"" stroke-width=""1.5"" fill=""none"" />
    <circle cx=701.0474957951362 cy=384 r=15.00694529441209 stroke=""none"" stroke-width=""1.5"" fill=""none"" />
    <circle cx=740.21 cy=344.83749579513625 r=15.00694529441209 stroke=""none"" stroke-width=""1.5"" fill=""none"" />
    <polygon points = ""740.21,384 744.4313786765916,399.0069452944121 735.9886213234084,399.0069452944121"" stroke=""none"" stroke-width=""3"" fill = ""none"" />
    
    </svg>
    </div>
        ",,,,,,,,,,,,get_response,True,Xq8bjXrrhlzUejY6,,,False,False,True,120.21,4.0,433.412,39.162504204863765,1.3,1.0,0.0,,,,22
73,html-keyboard-response,73,728740,0.0-73.0,,,,"
    <div style="" display: block;  position: relative;"">
    
    <svg width=1366 height=768>
    <circle cx=620 cy=384 r=10.504861706088462 stroke=""black"" stroke-width=""1"" fill=""black"" />
    <circle cx=779.3725042048638 cy=384 r=15.00694529441209 stroke=""none"" stroke-width=""1.5"" fill=""none"" />
    <circle cx=740.21 cy=423.16250420486375 r=15.00694529441209 stroke=""none"" stroke-width=""1.5"" fill=""none"" />
    <circle cx=701.0474957951362 cy=384 r=15.00694529441209 stroke=""none"" stroke-width=""1.5"" fill=""none"" />
    <circle cx=740.21 cy=344.83749579513625 r=15.00694529441209 stroke=""none"" stroke-width=""1.5"" fill=""none"" />
    <polygon points = ""740.21,384 744.4313786765916,399.0069452944121 735.9886213234084,399.0069452944121"" stroke=""none"" stroke-width=""3"" fill = ""none"" />
    
    </svg>
    </div>
        ",,,,,,,,,,,,,,,,,,,,,,,,,,,,,,22
74,html-keyboard-response,74,728907,0.0-74.0,,,,"
    <div style="" display: block;  position: relative;"">
    <svg width=1366 height=768>
    
    <circle cx=620 cy=384 r=10.504861706088462 stroke=""black"" stroke-width=""1"" fill=""black"" />
    <circle cx=499.79 cy=384 r=15.00694529441209 stroke=""black"" stroke-width=""1.5"" fill=""none"" />
    <circle cx=535.3922765498762 cy=384 r=15.00694529441209 stroke=""black"" stroke-width=""1.5"" fill=""none"" />
    <circle cx=499.79 cy=419.60227654987614 r=15.00694529441209 stroke=""black"" stroke-width=""1.5"" fill=""none"" />
    <circle cx=464.1877234501239 cy=384 r=15.00694529441209 stroke=""black"" stroke-width=""1.5"" fill=""none"" />
    <circle cx=499.79 cy=348.39772345012386 r=15.00694529441209 stroke=""black"" stroke-width=""1.5"" fill=""none"" />
    <polygon points = ""499.79,384 504.0113786765917,399.0069452944121 495.56862132340837,399.0069452944121"" stroke=""white"" stroke-width=""3"" fill = ""white"" />
    
    </svg>
    </div>
        ",,,,,,,,,,,,stimulus,,,,,,,,,,,,,,,,,,22
75,html-keyboard-response,75,730515,0.0-75.0,1602.0999999046326,arrowdown,,"
    <div style="" display: block;  position: relative;"">
    
    <svg width=1366 height=768>
    <circle cx=620 cy=384 r=10.504861706088462 stroke=""black"" stroke-width=""1"" fill=""black"" />
    <circle cx=535.3922765498762 cy=384 r=15.00694529441209 stroke=""none"" stroke-width=""1.5"" fill=""none"" />
    <circle cx=499.79 cy=419.60227654987614 r=15.00694529441209 stroke=""none"" stroke-width=""1.5"" fill=""none"" />
    <circle cx=464.1877234501239 cy=384 r=15.00694529441209 stroke=""none"" stroke-width=""1.5"" fill=""none"" />
    <circle cx=499.79 cy=348.39772345012386 r=15.00694529441209 stroke=""none"" stroke-width=""1.5"" fill=""none"" />
    <polygon points = ""499.79,384 504.0113786765917,399.0069452944121 495.56862132340837,399.0069452944121"" stroke=""none"" stroke-width=""3"" fill = ""none"" />
    
    </svg>
    </div>
        ",,,,,,,,,,,,get_response,True,Xq8bjXrrhlzUejY6,,,True,False,True,120.21,4.0,433.412,35.602276549876144,1.18,1.0,0.0,,,,22
76,html-keyboard-response,76,731027,0.0-76.0,,,,"
    <div style="" display: block;  position: relative;"">
    
    <svg width=1366 height=768>
    <circle cx=620 cy=384 r=10.504861706088462 stroke=""black"" stroke-width=""1"" fill=""black"" />
    <circle cx=535.3922765498762 cy=384 r=15.00694529441209 stroke=""none"" stroke-width=""1.5"" fill=""none"" />
    <circle cx=499.79 cy=419.60227654987614 r=15.00694529441209 stroke=""none"" stroke-width=""1.5"" fill=""none"" />
    <circle cx=464.1877234501239 cy=384 r=15.00694529441209 stroke=""none"" stroke-width=""1.5"" fill=""none"" />
    <circle cx=499.79 cy=348.39772345012386 r=15.00694529441209 stroke=""none"" stroke-width=""1.5"" fill=""none"" />
    <polygon points = ""499.79,384 504.0113786765917,399.0069452944121 495.56862132340837,399.0069452944121"" stroke=""none"" stroke-width=""3"" fill = ""none"" />
    
    </svg>
    </div>
        ",,,,,,,,,,,,,,,,,,,,,,,,,,,,,,22
77,html-keyboard-response,77,731184,0.0-77.0,,,,"
    <div style="" display: block;  position: relative;"">
    <svg width=1366 height=768>
    
    <circle cx=620 cy=384 r=10.504861706088462 stroke=""black"" stroke-width=""1"" fill=""black"" />
    <circle cx=740.21 cy=384 r=15.00694529441209 stroke=""black"" stroke-width=""1.5"" fill=""none"" />
    <circle cx=772.5757059544329 cy=384 r=15.00694529441209 stroke=""black"" stroke-width=""1.5"" fill=""none"" />
    <circle cx=740.21 cy=416.3657059544329 r=15.00694529441209 stroke=""black"" stroke-width=""1.5"" fill=""none"" />
    <circle cx=707.8442940455672 cy=384 r=15.00694529441209 stroke=""black"" stroke-width=""1.5"" fill=""none"" />
    <circle cx=740.21 cy=351.6342940455671 r=15.00694529441209 stroke=""black"" stroke-width=""1.5"" fill=""none"" />
    <polygon points = ""740.21,384 744.4313786765916,399.0069452944121 735.9886213234084,399.0069452944121"" stroke=""white"" stroke-width=""3"" fill = ""white"" />
    
    </svg>
    </div>
        ",,,,,,,,,,,,stimulus,,,,,,,,,,,,,,,,,,22
78,html-keyboard-response,78,733457,0.0-78.0,2268.100000023842,arrowdown,,"
    <div style="" display: block;  position: relative;"">
    
    <svg width=1366 height=768>
    <circle cx=620 cy=384 r=10.504861706088462 stroke=""black"" stroke-width=""1"" fill=""black"" />
    <circle cx=772.5757059544329 cy=384 r=15.00694529441209 stroke=""none"" stroke-width=""1.5"" fill=""none"" />
    <circle cx=740.21 cy=416.3657059544329 r=15.00694529441209 stroke=""none"" stroke-width=""1.5"" fill=""none"" />
    <circle cx=707.8442940455672 cy=384 r=15.00694529441209 stroke=""none"" stroke-width=""1.5"" fill=""none"" />
    <circle cx=740.21 cy=351.6342940455671 r=15.00694529441209 stroke=""none"" stroke-width=""1.5"" fill=""none"" />
    <polygon points = ""740.21,384 744.4313786765916,399.0069452944121 735.9886213234084,399.0069452944121"" stroke=""none"" stroke-width=""3"" fill = ""none"" />
    
    </svg>
    </div>
        ",,,,,,,,,,,,get_response,True,Xq8bjXrrhlzUejY6,,,False,False,True,120.21,4.0,433.412,32.365705954432855,1.08,1.0,0.0,,,,22
79,html-keyboard-response,79,733972,0.0-79.0,,,,"
    <div style="" display: block;  position: relative;"">
    
    <svg width=1366 height=768>
    <circle cx=620 cy=384 r=10.504861706088462 stroke=""black"" stroke-width=""1"" fill=""black"" />
    <circle cx=772.5757059544329 cy=384 r=15.00694529441209 stroke=""none"" stroke-width=""1.5"" fill=""none"" />
    <circle cx=740.21 cy=416.3657059544329 r=15.00694529441209 stroke=""none"" stroke-width=""1.5"" fill=""none"" />
    <circle cx=707.8442940455672 cy=384 r=15.00694529441209 stroke=""none"" stroke-width=""1.5"" fill=""none"" />
    <circle cx=740.21 cy=351.6342940455671 r=15.00694529441209 stroke=""none"" stroke-width=""1.5"" fill=""none"" />
    <polygon points = ""740.21,384 744.4313786765916,399.0069452944121 735.9886213234084,399.0069452944121"" stroke=""none"" stroke-width=""3"" fill = ""none"" />
    
    </svg>
    </div>
        ",,,,,,,,,,,,,,,,,,,,,,,,,,,,,,22
80,html-keyboard-response,80,734134,0.0-80.0,,,,"
    <div style="" display: block;  position: relative;"">
    <svg width=1366 height=768>
    
    <circle cx=620 cy=384 r=10.504861706088462 stroke=""black"" stroke-width=""1"" fill=""black"" />
    <circle cx=740.21 cy=384 r=15.00694529441209 stroke=""black"" stroke-width=""1.5"" fill=""none"" />
    <circle cx=770.2238905888242 cy=384 r=15.00694529441209 stroke=""black"" stroke-width=""1.5"" fill=""none"" />
    <circle cx=740.21 cy=414.01389058882415 r=15.00694529441209 stroke=""black"" stroke-width=""1.5"" fill=""none"" />
    <circle cx=710.1961094111758 cy=384 r=15.00694529441209 stroke=""black"" stroke-width=""1.5"" fill=""none"" />
    <circle cx=740.21 cy=353.98610941117585 r=15.00694529441209 stroke=""black"" stroke-width=""1.5"" fill=""none"" />
    <polygon points = ""740.21,384 744.4313786765916,368.9930547055879 735.9886213234084,368.9930547055879"" stroke=""white"" stroke-width=""3"" fill = ""white"" />
    
    </svg>
    </div>
        ",,,,,,,,,,,,stimulus,,,,,,,,,,,,,,,,,,22
81,html-keyboard-response,81,734921,0.0-81.0,782.8999999761581,arrowup,,"
    <div style="" display: block;  position: relative;"">
    
    <svg width=1366 height=768>
    <circle cx=620 cy=384 r=10.504861706088462 stroke=""black"" stroke-width=""1"" fill=""black"" />
    <circle cx=770.2238905888242 cy=384 r=15.00694529441209 stroke=""none"" stroke-width=""1.5"" fill=""none"" />
    <circle cx=740.21 cy=414.01389058882415 r=15.00694529441209 stroke=""none"" stroke-width=""1.5"" fill=""none"" />
    <circle cx=710.1961094111758 cy=384 r=15.00694529441209 stroke=""none"" stroke-width=""1.5"" fill=""none"" />
    <circle cx=740.21 cy=353.98610941117585 r=15.00694529441209 stroke=""none"" stroke-width=""1.5"" fill=""none"" />
    <polygon points = ""740.21,384 744.4313786765916,368.9930547055879 735.9886213234084,368.9930547055879"" stroke=""none"" stroke-width=""3"" fill = ""none"" />
    
    </svg>
    </div>
        ",,,,,,,,,,,,get_response,True,Xq8bjXrrhlzUejY6,,,False,True,True,120.21,4.0,433.412,30.01389058882418,1.0,1.0,0.0,,,,22
82,html-keyboard-response,82,735439,0.0-82.0,,,,"
    <div style="" display: block;  position: relative;"">
    
    <svg width=1366 height=768>
    <circle cx=620 cy=384 r=10.504861706088462 stroke=""black"" stroke-width=""1"" fill=""black"" />
    <circle cx=770.2238905888242 cy=384 r=15.00694529441209 stroke=""none"" stroke-width=""1.5"" fill=""none"" />
    <circle cx=740.21 cy=414.01389058882415 r=15.00694529441209 stroke=""none"" stroke-width=""1.5"" fill=""none"" />
    <circle cx=710.1961094111758 cy=384 r=15.00694529441209 stroke=""none"" stroke-width=""1.5"" fill=""none"" />
    <circle cx=740.21 cy=353.98610941117585 r=15.00694529441209 stroke=""none"" stroke-width=""1.5"" fill=""none"" />
    <polygon points = ""740.21,384 744.4313786765916,368.9930547055879 735.9886213234084,368.9930547055879"" stroke=""none"" stroke-width=""3"" fill = ""none"" />
    
    </svg>
    </div>
        ",,,,,,,,,,,,,,,,,,,,,,,,,,,,,,22
83,html-keyboard-response,83,735606,0.0-83.0,,,,"
    <div style="" display: block;  position: relative;"">
    <svg width=1366 height=768>
    
    <circle cx=620 cy=384 r=10.504861706088462 stroke=""black"" stroke-width=""1"" fill=""black"" />
    <circle cx=499.79 cy=384 r=15.00694529441209 stroke=""black"" stroke-width=""1.5"" fill=""none"" />
    <circle cx=529.8038905888242 cy=384 r=15.00694529441209 stroke=""black"" stroke-width=""1.5"" fill=""none"" />
    <circle cx=499.79 cy=414.01389058882415 r=15.00694529441209 stroke=""black"" stroke-width=""1.5"" fill=""none"" />
    <circle cx=469.77610941117587 cy=384 r=15.00694529441209 stroke=""black"" stroke-width=""1.5"" fill=""none"" />
    <circle cx=499.79 cy=353.98610941117585 r=15.00694529441209 stroke=""black"" stroke-width=""1.5"" fill=""none"" />
    <polygon points = ""499.79,384 504.0113786765917,399.0069452944121 495.56862132340837,399.0069452944121"" stroke=""white"" stroke-width=""3"" fill = ""white"" />
    
    </svg>
    </div>
        ",,,,,,,,,,,,stimulus,,,,,,,,,,,,,,,,,,22
84,html-keyboard-response,84,736880,0.0-84.0,1267.3000000715256,arrowdown,,"
    <div style="" display: block;  position: relative;"">
    
    <svg width=1366 height=768>
    <circle cx=620 cy=384 r=10.504861706088462 stroke=""black"" stroke-width=""1"" fill=""black"" />
    <circle cx=529.8038905888242 cy=384 r=15.00694529441209 stroke=""none"" stroke-width=""1.5"" fill=""none"" />
    <circle cx=499.79 cy=414.01389058882415 r=15.00694529441209 stroke=""none"" stroke-width=""1.5"" fill=""none"" />
    <circle cx=469.77610941117587 cy=384 r=15.00694529441209 stroke=""none"" stroke-width=""1.5"" fill=""none"" />
    <circle cx=499.79 cy=353.98610941117585 r=15.00694529441209 stroke=""none"" stroke-width=""1.5"" fill=""none"" />
    <polygon points = ""499.79,384 504.0113786765917,399.0069452944121 495.56862132340837,399.0069452944121"" stroke=""none"" stroke-width=""3"" fill = ""none"" />
    
    </svg>
    </div>
        ",,,,,,,,,,,,get_response,True,Xq8bjXrrhlzUejY6,,,True,False,True,120.21,4.0,433.412,30.01389058882418,1.0,1.0,0.0,,,,22
85,html-keyboard-response,85,737390,0.0-85.0,,,,"
    <div style="" display: block;  position: relative;"">
    
    <svg width=1366 height=768>
    <circle cx=620 cy=384 r=10.504861706088462 stroke=""black"" stroke-width=""1"" fill=""black"" />
    <circle cx=529.8038905888242 cy=384 r=15.00694529441209 stroke=""none"" stroke-width=""1.5"" fill=""none"" />
    <circle cx=499.79 cy=414.01389058882415 r=15.00694529441209 stroke=""none"" stroke-width=""1.5"" fill=""none"" />
    <circle cx=469.77610941117587 cy=384 r=15.00694529441209 stroke=""none"" stroke-width=""1.5"" fill=""none"" />
    <circle cx=499.79 cy=353.98610941117585 r=15.00694529441209 stroke=""none"" stroke-width=""1.5"" fill=""none"" />
    <polygon points = ""499.79,384 504.0113786765917,399.0069452944121 495.56862132340837,399.0069452944121"" stroke=""none"" stroke-width=""3"" fill = ""none"" />
    
    </svg>
    </div>
        ",,,,,,,,,,,,,,,,,,,,,,,,,,,,,,22
86,html-keyboard-response,86,737549,0.0-86.0,,,,"
    <div style="" display: block;  position: relative;"">
    <svg width=1366 height=768>
    
    <circle cx=620 cy=384 r=10.504861706088462 stroke=""black"" stroke-width=""1"" fill=""black"" />
    <circle cx=499.79 cy=384 r=15.00694529441209 stroke=""black"" stroke-width=""1.5"" fill=""none"" />
    <circle cx=529.8038905888242 cy=384 r=15.00694529441209 stroke=""black"" stroke-width=""1.5"" fill=""none"" />
    <circle cx=499.79 cy=414.01389058882415 r=15.00694529441209 stroke=""black"" stroke-width=""1.5"" fill=""none"" />
    <circle cx=469.77610941117587 cy=384 r=15.00694529441209 stroke=""black"" stroke-width=""1.5"" fill=""none"" />
    <circle cx=499.79 cy=353.98610941117585 r=15.00694529441209 stroke=""black"" stroke-width=""1.5"" fill=""none"" />
    <polygon points = ""499.79,384 504.0113786765917,399.0069452944121 495.56862132340837,399.0069452944121"" stroke=""white"" stroke-width=""3"" fill = ""white"" />
    
    </svg>
    </div>
        ",,,,,,,,,,,,stimulus,,,,,,,,,,,,,,,,,,22
87,html-keyboard-response,87,738342,0.0-87.0,788.2000000476837,arrowdown,,"
    <div style="" display: block;  position: relative;"">
    
    <svg width=1366 height=768>
    <circle cx=620 cy=384 r=10.504861706088462 stroke=""black"" stroke-width=""1"" fill=""black"" />
    <circle cx=529.8038905888242 cy=384 r=15.00694529441209 stroke=""none"" stroke-width=""1.5"" fill=""none"" />
    <circle cx=499.79 cy=414.01389058882415 r=15.00694529441209 stroke=""none"" stroke-width=""1.5"" fill=""none"" />
    <circle cx=469.77610941117587 cy=384 r=15.00694529441209 stroke=""none"" stroke-width=""1.5"" fill=""none"" />
    <circle cx=499.79 cy=353.98610941117585 r=15.00694529441209 stroke=""none"" stroke-width=""1.5"" fill=""none"" />
    <polygon points = ""499.79,384 504.0113786765917,399.0069452944121 495.56862132340837,399.0069452944121"" stroke=""none"" stroke-width=""3"" fill = ""none"" />
    
    </svg>
    </div>
        ",,,,,,,,,,,,get_response,True,Xq8bjXrrhlzUejY6,,,True,False,True,120.21,4.0,433.412,30.01389058882418,1.0,1.0,0.0,,,,22
88,html-keyboard-response,88,738889,0.0-88.0,,,,"
    <div style="" display: block;  position: relative;"">
    
    <svg width=1366 height=768>
    <circle cx=620 cy=384 r=10.504861706088462 stroke=""black"" stroke-width=""1"" fill=""black"" />
    <circle cx=529.8038905888242 cy=384 r=15.00694529441209 stroke=""none"" stroke-width=""1.5"" fill=""none"" />
    <circle cx=499.79 cy=414.01389058882415 r=15.00694529441209 stroke=""none"" stroke-width=""1.5"" fill=""none"" />
    <circle cx=469.77610941117587 cy=384 r=15.00694529441209 stroke=""none"" stroke-width=""1.5"" fill=""none"" />
    <circle cx=499.79 cy=353.98610941117585 r=15.00694529441209 stroke=""none"" stroke-width=""1.5"" fill=""none"" />
    <polygon points = ""499.79,384 504.0113786765917,399.0069452944121 495.56862132340837,399.0069452944121"" stroke=""none"" stroke-width=""3"" fill = ""none"" />
    
    </svg>
    </div>
        ",,,,,,,,,,,,,,,,,,,,,,,,,,,,,,22
89,html-keyboard-response,89,739053,0.0-89.0,,,,"
    <div style="" display: block;  position: relative;"">
    <svg width=1366 height=768>
    
    <circle cx=620 cy=384 r=10.504861706088462 stroke=""black"" stroke-width=""1"" fill=""black"" />
    <circle cx=740.21 cy=384 r=15.00694529441209 stroke=""black"" stroke-width=""1.5"" fill=""none"" />
    <circle cx=770.2238905888242 cy=384 r=15.00694529441209 stroke=""black"" stroke-width=""1.5"" fill=""none"" />
    <circle cx=740.21 cy=414.01389058882415 r=15.00694529441209 stroke=""black"" stroke-width=""1.5"" fill=""none"" />
    <circle cx=710.1961094111758 cy=384 r=15.00694529441209 stroke=""black"" stroke-width=""1.5"" fill=""none"" />
    <circle cx=740.21 cy=353.98610941117585 r=15.00694529441209 stroke=""black"" stroke-width=""1.5"" fill=""none"" />
    <polygon points = ""740.21,384 744.4313786765916,368.9930547055879 735.9886213234084,368.9930547055879"" stroke=""white"" stroke-width=""3"" fill = ""white"" />
    
    </svg>
    </div>
        ",,,,,,,,,,,,stimulus,,,,,,,,,,,,,,,,,,22
90,html-keyboard-response,90,739935,0.0-90.0,878.3000000715256,arrowup,,"
    <div style="" display: block;  position: relative;"">
    
    <svg width=1366 height=768>
    <circle cx=620 cy=384 r=10.504861706088462 stroke=""black"" stroke-width=""1"" fill=""black"" />
    <circle cx=770.2238905888242 cy=384 r=15.00694529441209 stroke=""none"" stroke-width=""1.5"" fill=""none"" />
    <circle cx=740.21 cy=414.01389058882415 r=15.00694529441209 stroke=""none"" stroke-width=""1.5"" fill=""none"" />
    <circle cx=710.1961094111758 cy=384 r=15.00694529441209 stroke=""none"" stroke-width=""1.5"" fill=""none"" />
    <circle cx=740.21 cy=353.98610941117585 r=15.00694529441209 stroke=""none"" stroke-width=""1.5"" fill=""none"" />
    <polygon points = ""740.21,384 744.4313786765916,368.9930547055879 735.9886213234084,368.9930547055879"" stroke=""none"" stroke-width=""3"" fill = ""none"" />
    
    </svg>
    </div>
        ",,,,,,,,,,,,get_response,True,Xq8bjXrrhlzUejY6,,,False,True,True,120.21,4.0,433.412,30.01389058882418,1.0,1.0,0.0,,,,22
91,html-keyboard-response,91,740464,0.0-91.0,,,,"
    <div style="" display: block;  position: relative;"">
    
    <svg width=1366 height=768>
    <circle cx=620 cy=384 r=10.504861706088462 stroke=""black"" stroke-width=""1"" fill=""black"" />
    <circle cx=770.2238905888242 cy=384 r=15.00694529441209 stroke=""none"" stroke-width=""1.5"" fill=""none"" />
    <circle cx=740.21 cy=414.01389058882415 r=15.00694529441209 stroke=""none"" stroke-width=""1.5"" fill=""none"" />
    <circle cx=710.1961094111758 cy=384 r=15.00694529441209 stroke=""none"" stroke-width=""1.5"" fill=""none"" />
    <circle cx=740.21 cy=353.98610941117585 r=15.00694529441209 stroke=""none"" stroke-width=""1.5"" fill=""none"" />
    <polygon points = ""740.21,384 744.4313786765916,368.9930547055879 735.9886213234084,368.9930547055879"" stroke=""none"" stroke-width=""3"" fill = ""none"" />
    
    </svg>
    </div>
        ",,,,,,,,,,,,,,,,,,,,,,,,,,,,,,22
92,html-keyboard-response,92,740627,0.0-92.0,,,,"
    <div style="" display: block;  position: relative;"">
    <svg width=1366 height=768>
    
    <circle cx=620 cy=384 r=10.504861706088462 stroke=""black"" stroke-width=""1"" fill=""black"" />
    <circle cx=740.21 cy=384 r=15.00694529441209 stroke=""black"" stroke-width=""1.5"" fill=""none"" />
    <circle cx=770.2238905888242 cy=384 r=15.00694529441209 stroke=""black"" stroke-width=""1.5"" fill=""none"" />
    <circle cx=740.21 cy=414.01389058882415 r=15.00694529441209 stroke=""black"" stroke-width=""1.5"" fill=""none"" />
    <circle cx=710.1961094111758 cy=384 r=15.00694529441209 stroke=""black"" stroke-width=""1.5"" fill=""none"" />
    <circle cx=740.21 cy=353.98610941117585 r=15.00694529441209 stroke=""black"" stroke-width=""1.5"" fill=""none"" />
    <polygon points = ""740.21,384 744.4313786765916,368.9930547055879 735.9886213234084,368.9930547055879"" stroke=""white"" stroke-width=""3"" fill = ""white"" />
    
    </svg>
    </div>
        ",,,,,,,,,,,,stimulus,,,,,,,,,,,,,,,,,,22
93,html-keyboard-response,93,742062,0.0-93.0,1432.0,arrowup,,"
    <div style="" display: block;  position: relative;"">
    
    <svg width=1366 height=768>
    <circle cx=620 cy=384 r=10.504861706088462 stroke=""black"" stroke-width=""1"" fill=""black"" />
    <circle cx=770.2238905888242 cy=384 r=15.00694529441209 stroke=""none"" stroke-width=""1.5"" fill=""none"" />
    <circle cx=740.21 cy=414.01389058882415 r=15.00694529441209 stroke=""none"" stroke-width=""1.5"" fill=""none"" />
    <circle cx=710.1961094111758 cy=384 r=15.00694529441209 stroke=""none"" stroke-width=""1.5"" fill=""none"" />
    <circle cx=740.21 cy=353.98610941117585 r=15.00694529441209 stroke=""none"" stroke-width=""1.5"" fill=""none"" />
    <polygon points = ""740.21,384 744.4313786765916,368.9930547055879 735.9886213234084,368.9930547055879"" stroke=""none"" stroke-width=""3"" fill = ""none"" />
    
    </svg>
    </div>
        ",,,,,,,,,,,,get_response,True,Xq8bjXrrhlzUejY6,,,False,True,True,120.21,4.0,433.412,30.01389058882418,1.0,1.0,0.0,,,,22
94,html-keyboard-response,94,742566,0.0-94.0,,,,"
    <div style="" display: block;  position: relative;"">
    
    <svg width=1366 height=768>
    <circle cx=620 cy=384 r=10.504861706088462 stroke=""black"" stroke-width=""1"" fill=""black"" />
    <circle cx=770.2238905888242 cy=384 r=15.00694529441209 stroke=""none"" stroke-width=""1.5"" fill=""none"" />
    <circle cx=740.21 cy=414.01389058882415 r=15.00694529441209 stroke=""none"" stroke-width=""1.5"" fill=""none"" />
    <circle cx=710.1961094111758 cy=384 r=15.00694529441209 stroke=""none"" stroke-width=""1.5"" fill=""none"" />
    <circle cx=740.21 cy=353.98610941117585 r=15.00694529441209 stroke=""none"" stroke-width=""1.5"" fill=""none"" />
    <polygon points = ""740.21,384 744.4313786765916,368.9930547055879 735.9886213234084,368.9930547055879"" stroke=""none"" stroke-width=""3"" fill = ""none"" />
    
    </svg>
    </div>
        ",,,,,,,,,,,,,,,,,,,,,,,,,,,,,,22
95,html-keyboard-response,95,742734,0.0-95.0,,,,"
    <div style="" display: block;  position: relative;"">
    <svg width=1366 height=768>
    
    <circle cx=620 cy=384 r=10.504861706088462 stroke=""black"" stroke-width=""1"" fill=""black"" />
    <circle cx=499.79 cy=384 r=15.00694529441209 stroke=""black"" stroke-width=""1.5"" fill=""none"" />
    <circle cx=529.8038905888242 cy=384 r=15.00694529441209 stroke=""black"" stroke-width=""1.5"" fill=""none"" />
    <circle cx=499.79 cy=414.01389058882415 r=15.00694529441209 stroke=""black"" stroke-width=""1.5"" fill=""none"" />
    <circle cx=469.77610941117587 cy=384 r=15.00694529441209 stroke=""black"" stroke-width=""1.5"" fill=""none"" />
    <circle cx=499.79 cy=353.98610941117585 r=15.00694529441209 stroke=""black"" stroke-width=""1.5"" fill=""none"" />
    <polygon points = ""499.79,384 504.0113786765917,399.0069452944121 495.56862132340837,399.0069452944121"" stroke=""white"" stroke-width=""3"" fill = ""white"" />
    
    </svg>
    </div>
        ",,,,,,,,,,,,stimulus,,,,,,,,,,,,,,,,,,22
96,html-keyboard-response,96,743542,0.0-96.0,805.2999999523163,arrowdown,,"
    <div style="" display: block;  position: relative;"">
    
    <svg width=1366 height=768>
    <circle cx=620 cy=384 r=10.504861706088462 stroke=""black"" stroke-width=""1"" fill=""black"" />
    <circle cx=529.8038905888242 cy=384 r=15.00694529441209 stroke=""none"" stroke-width=""1.5"" fill=""none"" />
    <circle cx=499.79 cy=414.01389058882415 r=15.00694529441209 stroke=""none"" stroke-width=""1.5"" fill=""none"" />
    <circle cx=469.77610941117587 cy=384 r=15.00694529441209 stroke=""none"" stroke-width=""1.5"" fill=""none"" />
    <circle cx=499.79 cy=353.98610941117585 r=15.00694529441209 stroke=""none"" stroke-width=""1.5"" fill=""none"" />
    <polygon points = ""499.79,384 504.0113786765917,399.0069452944121 495.56862132340837,399.0069452944121"" stroke=""none"" stroke-width=""3"" fill = ""none"" />
    
    </svg>
    </div>
        ",,,,,,,,,,,,get_response,True,Xq8bjXrrhlzUejY6,,,True,False,True,120.21,4.0,433.412,30.01389058882418,1.0,1.0,0.0,,,,22
97,html-keyboard-response,97,744046,0.0-97.0,,,,"
    <div style="" display: block;  position: relative;"">
    
    <svg width=1366 height=768>
    <circle cx=620 cy=384 r=10.504861706088462 stroke=""black"" stroke-width=""1"" fill=""black"" />
    <circle cx=529.8038905888242 cy=384 r=15.00694529441209 stroke=""none"" stroke-width=""1.5"" fill=""none"" />
    <circle cx=499.79 cy=414.01389058882415 r=15.00694529441209 stroke=""none"" stroke-width=""1.5"" fill=""none"" />
    <circle cx=469.77610941117587 cy=384 r=15.00694529441209 stroke=""none"" stroke-width=""1.5"" fill=""none"" />
    <circle cx=499.79 cy=353.98610941117585 r=15.00694529441209 stroke=""none"" stroke-width=""1.5"" fill=""none"" />
    <polygon points = ""499.79,384 504.0113786765917,399.0069452944121 495.56862132340837,399.0069452944121"" stroke=""none"" stroke-width=""3"" fill = ""none"" />
    
    </svg>
    </div>
        ",,,,,,,,,,,,,,,,,,,,,,,,,,,,,,22
98,html-keyboard-response,98,744222,0.0-98.0,,,,"
    <div style="" display: block;  position: relative;"">
    <svg width=1366 height=768>
    
    <circle cx=620 cy=384 r=10.504861706088462 stroke=""black"" stroke-width=""1"" fill=""black"" />
    <circle cx=499.79 cy=384 r=15.00694529441209 stroke=""black"" stroke-width=""1.5"" fill=""none"" />
    <circle cx=529.8038905888242 cy=384 r=15.00694529441209 stroke=""black"" stroke-width=""1.5"" fill=""none"" />
    <circle cx=499.79 cy=414.01389058882415 r=15.00694529441209 stroke=""black"" stroke-width=""1.5"" fill=""none"" />
    <circle cx=469.77610941117587 cy=384 r=15.00694529441209 stroke=""black"" stroke-width=""1.5"" fill=""none"" />
    <circle cx=499.79 cy=353.98610941117585 r=15.00694529441209 stroke=""black"" stroke-width=""1.5"" fill=""none"" />
    <polygon points = ""499.79,384 504.0113786765917,368.9930547055879 495.56862132340837,368.9930547055879"" stroke=""white"" stroke-width=""3"" fill = ""white"" />
    
    </svg>
    </div>
        ",,,,,,,,,,,,stimulus,,,,,,,,,,,,,,,,,,22
99,html-keyboard-response,99,744941,0.0-99.0,715.1999999284744,arrowup,,"
    <div style="" display: block;  position: relative;"">
    
    <svg width=1366 height=768>
    <circle cx=620 cy=384 r=10.504861706088462 stroke=""black"" stroke-width=""1"" fill=""black"" />
    <circle cx=529.8038905888242 cy=384 r=15.00694529441209 stroke=""none"" stroke-width=""1.5"" fill=""none"" />
    <circle cx=499.79 cy=414.01389058882415 r=15.00694529441209 stroke=""none"" stroke-width=""1.5"" fill=""none"" />
    <circle cx=469.77610941117587 cy=384 r=15.00694529441209 stroke=""none"" stroke-width=""1.5"" fill=""none"" />
    <circle cx=499.79 cy=353.98610941117585 r=15.00694529441209 stroke=""none"" stroke-width=""1.5"" fill=""none"" />
    <polygon points = ""499.79,384 504.0113786765917,368.9930547055879 495.56862132340837,368.9930547055879"" stroke=""none"" stroke-width=""3"" fill = ""none"" />
    
    </svg>
    </div>
        ",,,,,,,,,,,,get_response,True,Xq8bjXrrhlzUejY6,,,True,True,True,120.21,4.0,433.412,30.01389058882418,1.0,1.0,0.96,,,,22
100,html-keyboard-response,100,757449,0.0-100.0,12505.399999976158,arrowdown,,"<div id=""continue""> 
<h2 class=""bolded-blue"">Great Job! You have completed half of the study!</h2>
<p>Before you start the session 2, let&#39;s measure your viewing distance again using the virtual chinrest.</p>
<p>Please press the <b>down</b> arrow key to continue. </p>
</div>",,,,,,,,,,,,,,,,,,,,,,,,,,,,,,22
101,virtual-chinrest,101,862696,0.0-101.0,105241.89999997616,,,,,,85.6,53.98,344.0,4.02,407.77,11.983780283829873,28.70546620953749,47.5867554293942,26.75448621506204,,,,,,,,,,,,,,,,,,,22
102,html-keyboard-response,102,886649,0.0-102.0,23942.700000047684,arrowdown,,"<div><h2 class=""bolded-blue"">Alright, let&#39;s do the peripheral vision test one more time!</h2>
<p>Please do not move around and keep your eye on the <b>black dot</b> all the time. Click <b>up</b> or <b>down</b> to indicate the opening
    of the center circle. The test is difficult for everyone, so if you are not sure, just take your best guess! </p> 
    <p>Now, press the <b>down</b> arrow key to start the task when you are ready!</p></div>",,,,,,,,,,,,,,,,,,,,,,,,,,,,,,22
103,html-keyboard-response,103,887168,0.0-103.0,,,,"
    <div style="" display: block;  position: relative;"">
    
    <svg width=1366 height=768>
    <circle cx=620 cy=384 r=9.886562285068 stroke=""black"" stroke-width=""1"" fill=""black"" />
    <circle cx=536.8838905888242 cy=384 r=14.123660407240003 stroke=""none"" stroke-width=""1.5"" fill=""none"" />
    <circle cx=506.87 cy=414.01389058882415 r=14.123660407240003 stroke=""none"" stroke-width=""1.5"" fill=""none"" />
    <circle cx=476.85610941117585 cy=384 r=14.123660407240003 stroke=""none"" stroke-width=""1.5"" fill=""none"" />
    <circle cx=506.87 cy=353.98610941117585 r=14.123660407240003 stroke=""none"" stroke-width=""1.5"" fill=""none"" />
    <polygon points = ""506.87,384 510.8429150542546,398.12366040724 502.8970849457454,398.12366040724"" stroke=""none"" stroke-width=""3"" fill = ""none"" />
    
    </svg>
    </div>
        ",,,,,,,,,,,,,,,,,,,,,,,,,,,,,,22
104,html-keyboard-response,104,887336,0.0-104.0,,,,"
    <div style="" display: block;  position: relative;"">
    <svg width=1366 height=768>
    
    <circle cx=620 cy=384 r=9.886562285068 stroke=""black"" stroke-width=""1"" fill=""black"" />
    <circle cx=733.13 cy=384 r=14.123660407240003 stroke=""black"" stroke-width=""1.5"" fill=""none"" />
    <circle cx=806.6645 cy=384 r=14.123660407240003 stroke=""black"" stroke-width=""1.5"" fill=""none"" />
    <circle cx=733.13 cy=457.5345 r=14.123660407240003 stroke=""black"" stroke-width=""1.5"" fill=""none"" />
    <circle cx=659.5955 cy=384 r=14.123660407240003 stroke=""black"" stroke-width=""1.5"" fill=""none"" />
    <circle cx=733.13 cy=310.4655 r=14.123660407240003 stroke=""black"" stroke-width=""1.5"" fill=""none"" />
    <polygon points = ""733.13,384 737.1029150542546,369.87633959276 729.1570849457454,369.87633959276"" stroke=""white"" stroke-width=""3"" fill = ""white"" />
    
    </svg>
    </div>
        ",,,,,,,,,,,,stimulus,,,,,,,,,,,,,,,,,,22
105,html-keyboard-response,105,888308,0.0-105.0,960.7000000476836,arrowup,,"
    <div style="" display: block;  position: relative;"">
    
    <svg width=1366 height=768>
    <circle cx=620 cy=384 r=9.886562285068 stroke=""black"" stroke-width=""1"" fill=""black"" />
    <circle cx=806.6645 cy=384 r=14.123660407240003 stroke=""none"" stroke-width=""1.5"" fill=""none"" />
    <circle cx=733.13 cy=457.5345 r=14.123660407240003 stroke=""none"" stroke-width=""1.5"" fill=""none"" />
    <circle cx=659.5955 cy=384 r=14.123660407240003 stroke=""none"" stroke-width=""1.5"" fill=""none"" />
    <circle cx=733.13 cy=310.4655 r=14.123660407240003 stroke=""none"" stroke-width=""1.5"" fill=""none"" />
    <polygon points = ""733.13,384 737.1029150542546,369.87633959276 729.1570849457454,369.87633959276"" stroke=""none"" stroke-width=""3"" fill = ""none"" />
    
    </svg>
    </div>
        ",,,,,,,,,,,,get_response,True,Xq8bjXrrhlzUejY6,,,False,True,True,113.13,4.0,403.8433333333333,73.5345,2.6,2.0,0.0,,,,22
106,html-keyboard-response,106,888843,0.0-106.0,,,,"
    <div style="" display: block;  position: relative;"">
    
    <svg width=1366 height=768>
    <circle cx=620 cy=384 r=9.886562285068 stroke=""black"" stroke-width=""1"" fill=""black"" />
