,trial_type,trial_index,time_elapsed,internal_node_id,rt,response,success,stimulus,start_time,start_time_unix,item_width_mm,item_height_mm,item_width_px,px2mm,view_dist_mm,item_width_deg,px2deg,win_width_deg,win_height_deg,trialType,correct,participantID,criticalSpacing,criticalSpacing_deg,isLeft,isUp,isEccen4,eccentricity,eccentricity_deg,viewingDistanceMean,critical_spacing,critical_spacing_deg,crowding_session,correctRate,viewDistance_1,viewDistance_2,viewDistance_3,age
0,pavlovia,0,3,0.0-0.0,,,,,,,,,,,,,,,,,,,,,,,,,,,,,,,,,,26
2,fullscreen,2,13565,0.0-2.0,,,True,,,,,,,,,,,,,,,,,,,,,,,,,,,,,,,26
3,html-keyboard-response,3,24522,0.0-3.0,10955.899999976158,arrowleft,,"<h1>Consent Form</h1>
       <p>By answering the following questions, you are participating in a study being performed by cognitive scientists in the Stanford Department of Psychology. If you have questions about this research, please contact us at stanfordpsych251@gmail.com. You must be at least 18 years old to participate. Your participation in this research is voluntary. You may decline to answer any or all of the following questions. You may decline further participation by closing the window, at any time, without adverse consequences. Your anonymity is assured; the researchers who have requested your participation will not receive any personal information about you.</p>
       <p>Press <b>any key</b> to start the experiment!</p>",,,,,,,,,,,,,,,,,,,,,,,,,,,,,,26
4,html-keyboard-response,4,30313,0.0-4.0,5789.899999976158,arrowleft,,"<h1>Welcome to the Visual Crowding Experiment!</h1>
       <p>This test will take <b>10-12</b> minutes to complete.</p>
       <p>Press any key to start the experiment!</p>",30/11/2021 23:56:43,1638338203323.0,,,,,,,,,,,,,,,,,,,,,,,,,,,,26
5,html-keyboard-response,5,47081,0.0-5.0,16767.0,arrowdown,,"<div> 
<p> Before you begin this study, let&#39;s quickly test how far away you are sitting. You might know that vision tests at a doctor&#39;s practice often involve chinrests, the doctor basically asks you to sit away from a screen in a specific distance. We do this here with a <b>virtual chinrest</b>. </p>
<p> Please press the <b>down</b> arrow to continue.
</p>
</div>",,,,,,,,,,,,,,,,,,,,,,,,,,,,,,26
6,virtual-chinrest,6,212852,0.0-6.0,165769.29999995232,,,,,,85.6,53.98,377.0,4.4,518.99,9.428785554894889,39.98394043486152,36.014459413922125,22.509037133701327,,,,,,,,,,,,,,,,,,,26
7,html-keyboard-response,7,265212,0.0-7.0,52358.19999992848,arrowdown,,"
	<h2 class=""bolded-blue"">Now, you will take a peripheral vision test!</h2>
<p> 
	<b>
		<font size=""140%"">1. </font>
	</b>
	<em><b>Please use both eyes for the following task.</b></em> First, you will see a screen (like the one in the image below) showing a <b>black dot</b> in the middle of the screen, with a group of circles displayed on either the <span class=""bolded-blue"">left</span> or <span class=""bolded-blue"">right</span> of the black dot for 150 ms. <span class=""bolded-blue"">Please make sure to focus on the black dot all the time!</span>

	<div>
		<img src=""example.png"" alt=""example"" style=""border: 2px solid black"" width=""600""/> 
	</div>
	
	<b>
		<font size=""140%"">2. </font>
	</b>
	Your task is to identify whether the opening of the <b class=""bolded-blue"">center circle</b> is upward by pressing UP or downward by pressing DOWN on your keyboard. The opening of the circle will only be upward or downward, not towards left or right.

	<div>
		<img src=""arrow_keys+.png"" alt=""arrows"" style=""border: 2px solid black"" width=""600""/>
	</div>
	<br>

<p>Please press the <b>down</b> arrow key to start the <span class=""bolded-blue"">practice task</span> (this first practice task will not count toward your final results).</p>
</p>
",,,,,,,,,,,,,,,,,,,,,,,,,,,,,,26
8,html-keyboard-response,8,265729,0.0-8.0,,,,"
    <div style="" display: block;  position: relative;"">
    
    <svg width=1440 height=900>
    <circle cx=657 cy=450 r=13.848948830073207 stroke=""black"" stroke-width=""1"" fill=""black"" />
    <circle cx=NaN cy=450 r=19.784212614390295 stroke=""none"" stroke-width=""1.5"" fill=""none"" />
    <circle cx=498.52 cy=NaN r=19.784212614390295 stroke=""none"" stroke-width=""1.5"" fill=""none"" />
    <circle cx=NaN cy=450 r=19.784212614390295 stroke=""none"" stroke-width=""1.5"" fill=""none"" />
    <circle cx=498.52 cy=NaN r=19.784212614390295 stroke=""none"" stroke-width=""1.5"" fill=""none"" />
    <polygon points = ""498.52,450 504.0852000873649,469.7842126143903 492.95479991263505,469.7842126143903"" stroke=""none"" stroke-width=""3"" fill = ""none"" />
    
    </svg>
    </div>
        ",,,,,,,,,,,,,,,,,,,,,,,,,,,,,,26
9,html-keyboard-response,9,265883,0.0-9.0,,,,"
    <div style="" display: block;  position: relative;"">
    <svg width=1440 height=900>
    
    <circle cx=657 cy=450 r=13.848948830073207 stroke=""black"" stroke-width=""1"" fill=""black"" />
    <circle cx=815.48 cy=450 r=19.784212614390295 stroke=""black"" stroke-width=""1.5"" fill=""none"" />
    <circle cx=918.492 cy=450 r=19.784212614390295 stroke=""black"" stroke-width=""1.5"" fill=""none"" />
    <circle cx=815.48 cy=553.012 r=19.784212614390295 stroke=""black"" stroke-width=""1.5"" fill=""none"" />
    <circle cx=712.4680000000001 cy=450 r=19.784212614390295 stroke=""black"" stroke-width=""1.5"" fill=""none"" />
    <circle cx=815.48 cy=346.988 r=19.784212614390295 stroke=""black"" stroke-width=""1.5"" fill=""none"" />
    <polygon points = ""815.48,450 821.045200087365,430.2157873856097 809.9147999126351,430.2157873856097"" stroke=""white"" stroke-width=""3"" fill = ""white"" />
    
    </svg>
    </div>
        ",,,,,,,,,,,,stimulus,,,,,,,,,,,,,,,,,,26
10,html-keyboard-response,10,266804,0.0-10.0,919.7000000476836,arrowdown,,"
    <div style="" display: block;  position: relative;"">
    
    <svg width=1440 height=900>
    <circle cx=657 cy=450 r=13.848948830073207 stroke=""black"" stroke-width=""1"" fill=""black"" />
    <circle cx=918.492 cy=450 r=19.784212614390295 stroke=""none"" stroke-width=""1.5"" fill=""none"" />
    <circle cx=815.48 cy=553.012 r=19.784212614390295 stroke=""none"" stroke-width=""1.5"" fill=""none"" />
    <circle cx=712.4680000000001 cy=450 r=19.784212614390295 stroke=""none"" stroke-width=""1.5"" fill=""none"" />
    <circle cx=815.48 cy=346.988 r=19.784212614390295 stroke=""none"" stroke-width=""1.5"" fill=""none"" />
    <polygon points = ""815.48,450 821.045200087365,430.2157873856097 809.9147999126351,430.2157873856097"" stroke=""none"" stroke-width=""3"" fill = ""none"" />
    
    </svg>
    </div>
        ",,,,,,,,,,,,practice_get_response,False,8DfU9mw4w1X7oILw,103.012,2.6,False,True,True,158.48,4.0,516.842,,,,,,,,26
11,html-keyboard-response,11,267317,0.0-11.0,,,,"
    <div style="" display: block;  position: relative;"">
    
    <svg width=1440 height=900>
    <circle cx=657 cy=450 r=13.848948830073207 stroke=""black"" stroke-width=""1"" fill=""black"" />
    <circle cx=918.492 cy=450 r=19.784212614390295 stroke=""none"" stroke-width=""1.5"" fill=""none"" />
    <circle cx=815.48 cy=553.012 r=19.784212614390295 stroke=""none"" stroke-width=""1.5"" fill=""none"" />
    <circle cx=712.4680000000001 cy=450 r=19.784212614390295 stroke=""none"" stroke-width=""1.5"" fill=""none"" />
    <circle cx=815.48 cy=346.988 r=19.784212614390295 stroke=""none"" stroke-width=""1.5"" fill=""none"" />
    <polygon points = ""815.48,450 821.045200087365,430.2157873856097 809.9147999126351,430.2157873856097"" stroke=""none"" stroke-width=""3"" fill = ""none"" />
    
    </svg>
    </div>
        ",,,,,,,,,,,,,,,,,,,,,,,,,,,,,,26
12,html-keyboard-response,12,267470,0.0-12.0,,,,"
    <div style="" display: block;  position: relative;"">
    <svg width=1440 height=900>
    
    <circle cx=657 cy=450 r=13.848948830073207 stroke=""black"" stroke-width=""1"" fill=""black"" />
    <circle cx=815.48 cy=450 r=19.784212614390295 stroke=""black"" stroke-width=""1.5"" fill=""none"" />
    <circle cx=934.3915747712194 cy=450 r=19.784212614390295 stroke=""black"" stroke-width=""1.5"" fill=""none"" />
    <circle cx=815.48 cy=568.9115747712194 r=19.784212614390295 stroke=""black"" stroke-width=""1.5"" fill=""none"" />
    <circle cx=696.5684252287806 cy=450 r=19.784212614390295 stroke=""black"" stroke-width=""1.5"" fill=""none"" />
    <circle cx=815.48 cy=331.0884252287806 r=19.784212614390295 stroke=""black"" stroke-width=""1.5"" fill=""none"" />
    <polygon points = ""815.48,450 821.045200087365,469.7842126143903 809.9147999126351,469.7842126143903"" stroke=""white"" stroke-width=""3"" fill = ""white"" />
    
    </svg>
    </div>
        ",,,,,,,,,,,,stimulus,,,,,,,,,,,,,,,,,,26
13,html-keyboard-response,13,270772,0.0-13.0,3300.5,arrowdown,,"
    <div style="" display: block;  position: relative;"">
    
    <svg width=1440 height=900>
    <circle cx=657 cy=450 r=13.848948830073207 stroke=""black"" stroke-width=""1"" fill=""black"" />
    <circle cx=934.3915747712194 cy=450 r=19.784212614390295 stroke=""none"" stroke-width=""1.5"" fill=""none"" />
    <circle cx=815.48 cy=568.9115747712194 r=19.784212614390295 stroke=""none"" stroke-width=""1.5"" fill=""none"" />
    <circle cx=696.5684252287806 cy=450 r=19.784212614390295 stroke=""none"" stroke-width=""1.5"" fill=""none"" />
    <circle cx=815.48 cy=331.0884252287806 r=19.784212614390295 stroke=""none"" stroke-width=""1.5"" fill=""none"" />
    <polygon points = ""815.48,450 821.045200087365,469.7842126143903 809.9147999126351,469.7842126143903"" stroke=""none"" stroke-width=""3"" fill = ""none"" />
    
    </svg>
    </div>
        ",,,,,,,,,,,,practice_get_response,True,8DfU9mw4w1X7oILw,118.9115747712194,3.0,False,False,True,158.48,4.0,516.842,,,,,,,,26
14,html-keyboard-response,14,271286,0.0-14.0,,,,"
    <div style="" display: block;  position: relative;"">
    
    <svg width=1440 height=900>
    <circle cx=657 cy=450 r=13.848948830073207 stroke=""black"" stroke-width=""1"" fill=""black"" />
    <circle cx=934.3915747712194 cy=450 r=19.784212614390295 stroke=""none"" stroke-width=""1.5"" fill=""none"" />
    <circle cx=815.48 cy=568.9115747712194 r=19.784212614390295 stroke=""none"" stroke-width=""1.5"" fill=""none"" />
    <circle cx=696.5684252287806 cy=450 r=19.784212614390295 stroke=""none"" stroke-width=""1.5"" fill=""none"" />
    <circle cx=815.48 cy=331.0884252287806 r=19.784212614390295 stroke=""none"" stroke-width=""1.5"" fill=""none"" />
    <polygon points = ""815.48,450 821.045200087365,469.7842126143903 809.9147999126351,469.7842126143903"" stroke=""none"" stroke-width=""3"" fill = ""none"" />
    
    </svg>
    </div>
        ",,,,,,,,,,,,,,,,,,,,,,,,,,,,,,26
15,html-keyboard-response,15,271453,0.0-15.0,,,,"
    <div style="" display: block;  position: relative;"">
    <svg width=1440 height=900>
    
    <circle cx=657 cy=450 r=13.848948830073207 stroke=""black"" stroke-width=""1"" fill=""black"" />
    <circle cx=498.52 cy=450 r=19.784212614390295 stroke=""black"" stroke-width=""1.5"" fill=""none"" />
    <circle cx=617.4315747712194 cy=450 r=19.784212614390295 stroke=""black"" stroke-width=""1.5"" fill=""none"" />
    <circle cx=498.52 cy=568.9115747712194 r=19.784212614390295 stroke=""black"" stroke-width=""1.5"" fill=""none"" />
    <circle cx=379.60842522878056 cy=450 r=19.784212614390295 stroke=""black"" stroke-width=""1.5"" fill=""none"" />
    <circle cx=498.52 cy=331.0884252287806 r=19.784212614390295 stroke=""black"" stroke-width=""1.5"" fill=""none"" />
    <polygon points = ""498.52,450 504.0852000873649,430.2157873856097 492.95479991263505,430.2157873856097"" stroke=""white"" stroke-width=""3"" fill = ""white"" />
    
    </svg>
    </div>
        ",,,,,,,,,,,,stimulus,,,,,,,,,,,,,,,,,,26
16,html-keyboard-response,16,271940,0.0-16.0,484.8999999761581,arrowup,,"
    <div style="" display: block;  position: relative;"">
    
    <svg width=1440 height=900>
    <circle cx=657 cy=450 r=13.848948830073207 stroke=""black"" stroke-width=""1"" fill=""black"" />
    <circle cx=617.4315747712194 cy=450 r=19.784212614390295 stroke=""none"" stroke-width=""1.5"" fill=""none"" />
    <circle cx=498.52 cy=568.9115747712194 r=19.784212614390295 stroke=""none"" stroke-width=""1.5"" fill=""none"" />
    <circle cx=379.60842522878056 cy=450 r=19.784212614390295 stroke=""none"" stroke-width=""1.5"" fill=""none"" />
    <circle cx=498.52 cy=331.0884252287806 r=19.784212614390295 stroke=""none"" stroke-width=""1.5"" fill=""none"" />
    <polygon points = ""498.52,450 504.0852000873649,430.2157873856097 492.95479991263505,430.2157873856097"" stroke=""none"" stroke-width=""3"" fill = ""none"" />
    
    </svg>
    </div>
        ",,,,,,,,,,,,practice_get_response,True,8DfU9mw4w1X7oILw,118.9115747712194,3.0,True,True,True,158.48,4.0,516.842,,,,,,,,26
17,html-keyboard-response,17,272446,0.0-17.0,,,,"
    <div style="" display: block;  position: relative;"">
    
    <svg width=1440 height=900>
    <circle cx=657 cy=450 r=13.848948830073207 stroke=""black"" stroke-width=""1"" fill=""black"" />
    <circle cx=617.4315747712194 cy=450 r=19.784212614390295 stroke=""none"" stroke-width=""1.5"" fill=""none"" />
    <circle cx=498.52 cy=568.9115747712194 r=19.784212614390295 stroke=""none"" stroke-width=""1.5"" fill=""none"" />
    <circle cx=379.60842522878056 cy=450 r=19.784212614390295 stroke=""none"" stroke-width=""1.5"" fill=""none"" />
    <circle cx=498.52 cy=331.0884252287806 r=19.784212614390295 stroke=""none"" stroke-width=""1.5"" fill=""none"" />
    <polygon points = ""498.52,450 504.0852000873649,430.2157873856097 492.95479991263505,430.2157873856097"" stroke=""none"" stroke-width=""3"" fill = ""none"" />
    
    </svg>
    </div>
        ",,,,,,,,,,,,,,,,,,,,,,,,,,,,,,26
18,html-keyboard-response,18,272604,0.0-18.0,,,,"
    <div style="" display: block;  position: relative;"">
    <svg width=1440 height=900>
    
    <circle cx=657 cy=450 r=13.848948830073207 stroke=""black"" stroke-width=""1"" fill=""black"" />
    <circle cx=815.48 cy=450 r=19.784212614390295 stroke=""black"" stroke-width=""1.5"" fill=""none"" />
    <circle cx=934.3915747712194 cy=450 r=19.784212614390295 stroke=""black"" stroke-width=""1.5"" fill=""none"" />
    <circle cx=815.48 cy=568.9115747712194 r=19.784212614390295 stroke=""black"" stroke-width=""1.5"" fill=""none"" />
    <circle cx=696.5684252287806 cy=450 r=19.784212614390295 stroke=""black"" stroke-width=""1.5"" fill=""none"" />
    <circle cx=815.48 cy=331.0884252287806 r=19.784212614390295 stroke=""black"" stroke-width=""1.5"" fill=""none"" />
    <polygon points = ""815.48,450 821.045200087365,430.2157873856097 809.9147999126351,430.2157873856097"" stroke=""white"" stroke-width=""3"" fill = ""white"" />
    
    </svg>
    </div>
        ",,,,,,,,,,,,stimulus,,,,,,,,,,,,,,,,,,26
19,html-keyboard-response,19,273243,0.0-19.0,638.3000000715256,arrowup,,"
    <div style="" display: block;  position: relative;"">
    
    <svg width=1440 height=900>
    <circle cx=657 cy=450 r=13.848948830073207 stroke=""black"" stroke-width=""1"" fill=""black"" />
    <circle cx=934.3915747712194 cy=450 r=19.784212614390295 stroke=""none"" stroke-width=""1.5"" fill=""none"" />
    <circle cx=815.48 cy=568.9115747712194 r=19.784212614390295 stroke=""none"" stroke-width=""1.5"" fill=""none"" />
    <circle cx=696.5684252287806 cy=450 r=19.784212614390295 stroke=""none"" stroke-width=""1.5"" fill=""none"" />
    <circle cx=815.48 cy=331.0884252287806 r=19.784212614390295 stroke=""none"" stroke-width=""1.5"" fill=""none"" />
    <polygon points = ""815.48,450 821.045200087365,430.2157873856097 809.9147999126351,430.2157873856097"" stroke=""none"" stroke-width=""3"" fill = ""none"" />
    
    </svg>
    </div>
        ",,,,,,,,,,,,practice_get_response,True,8DfU9mw4w1X7oILw,118.9115747712194,3.0,False,True,True,158.48,4.0,516.842,,,,,,,,26
20,html-keyboard-response,20,273752,0.0-20.0,,,,"
    <div style="" display: block;  position: relative;"">
    
    <svg width=1440 height=900>
    <circle cx=657 cy=450 r=13.848948830073207 stroke=""black"" stroke-width=""1"" fill=""black"" />
    <circle cx=934.3915747712194 cy=450 r=19.784212614390295 stroke=""none"" stroke-width=""1.5"" fill=""none"" />
    <circle cx=815.48 cy=568.9115747712194 r=19.784212614390295 stroke=""none"" stroke-width=""1.5"" fill=""none"" />
    <circle cx=696.5684252287806 cy=450 r=19.784212614390295 stroke=""none"" stroke-width=""1.5"" fill=""none"" />
    <circle cx=815.48 cy=331.0884252287806 r=19.784212614390295 stroke=""none"" stroke-width=""1.5"" fill=""none"" />
    <polygon points = ""815.48,450 821.045200087365,430.2157873856097 809.9147999126351,430.2157873856097"" stroke=""none"" stroke-width=""3"" fill = ""none"" />
    
    </svg>
    </div>
        ",,,,,,,,,,,,,,,,,,,,,,,,,,,,,,26
21,html-keyboard-response,21,273906,0.0-21.0,,,,"
    <div style="" display: block;  position: relative;"">
    <svg width=1440 height=900>
    
    <circle cx=657 cy=450 r=13.848948830073207 stroke=""black"" stroke-width=""1"" fill=""black"" />
    <circle cx=498.52 cy=450 r=19.784212614390295 stroke=""black"" stroke-width=""1.5"" fill=""none"" />
    <circle cx=606.6214316101995 cy=450 r=19.784212614390295 stroke=""black"" stroke-width=""1.5"" fill=""none"" />
    <circle cx=498.52 cy=558.1014316101995 r=19.784212614390295 stroke=""black"" stroke-width=""1.5"" fill=""none"" />
    <circle cx=390.41856838980055 cy=450 r=19.784212614390295 stroke=""black"" stroke-width=""1.5"" fill=""none"" />
    <circle cx=498.52 cy=341.8985683898006 r=19.784212614390295 stroke=""black"" stroke-width=""1.5"" fill=""none"" />
    <polygon points = ""498.52,450 504.0852000873649,430.2157873856097 492.95479991263505,430.2157873856097"" stroke=""white"" stroke-width=""3"" fill = ""white"" />
    
    </svg>
    </div>
        ",,,,,,,,,,,,stimulus,,,,,,,,,,,,,,,,,,26
22,html-keyboard-response,22,274411,0.0-22.0,503.7000000476837,arrowup,,"
    <div style="" display: block;  position: relative;"">
    
    <svg width=1440 height=900>
    <circle cx=657 cy=450 r=13.848948830073207 stroke=""black"" stroke-width=""1"" fill=""black"" />
    <circle cx=606.6214316101995 cy=450 r=19.784212614390295 stroke=""none"" stroke-width=""1.5"" fill=""none"" />
    <circle cx=498.52 cy=558.1014316101995 r=19.784212614390295 stroke=""none"" stroke-width=""1.5"" fill=""none"" />
    <circle cx=390.41856838980055 cy=450 r=19.784212614390295 stroke=""none"" stroke-width=""1.5"" fill=""none"" />
    <circle cx=498.52 cy=341.8985683898006 r=19.784212614390295 stroke=""none"" stroke-width=""1.5"" fill=""none"" />
    <polygon points = ""498.52,450 504.0852000873649,430.2157873856097 492.95479991263505,430.2157873856097"" stroke=""none"" stroke-width=""3"" fill = ""none"" />
    
    </svg>
    </div>
        ",,,,,,,,,,,,practice_get_response,True,8DfU9mw4w1X7oILw,108.10143161019944,2.73,True,True,True,158.48,4.0,516.842,,,,,,,,26
23,html-keyboard-response,23,281884,0.0-23.0,7471.600000023842,arrowdown,,"<div> 
<h2 class=""bolded-blue"">Well done!</h2>
<p> Now that you have the hang of it, we&#39;ll start the study. This session has 25 trials and takes about 2 minute to complete. </p> 
<p>If you are ready for the real deal, please press the <b>down</b> arrow to continue.
</p>
</div>",,,,,,,,,,,,,,,,,,,,,,,,,,,,,,26
24,html-keyboard-response,24,301212,0.0-24.0,19326.89999997616,arrowdown,,"<div id=""continue""> 
<p>Again, please keep the <b>full screen</b> mode for the best experience.</p>
<p>Please do not move around and keep your eye on the black dot. Click <b>up</b> or <b>down</b> key on your keyboard to indicate the opening of the center circle. Make your best guess!</p>
<p>Please press the <b>down</b> arrow key to start the session 1. </p>
</div>",,,,,,,,,,,,,,,,,,,,,,,,,,,,,,26
25,html-keyboard-response,25,301722,0.0-25.0,,,,"
    <div style="" display: block;  position: relative;"">
    
    <svg width=1440 height=900>
    <circle cx=657 cy=450 r=13.848948830073207 stroke=""black"" stroke-width=""1"" fill=""black"" />
    <circle cx=606.6214316101995 cy=450 r=19.784212614390295 stroke=""none"" stroke-width=""1.5"" fill=""none"" />
    <circle cx=498.52 cy=558.1014316101995 r=19.784212614390295 stroke=""none"" stroke-width=""1.5"" fill=""none"" />
    <circle cx=390.41856838980055 cy=450 r=19.784212614390295 stroke=""none"" stroke-width=""1.5"" fill=""none"" />
    <circle cx=498.52 cy=341.8985683898006 r=19.784212614390295 stroke=""none"" stroke-width=""1.5"" fill=""none"" />
    <polygon points = ""498.52,450 504.0852000873649,469.7842126143903 492.95479991263505,469.7842126143903"" stroke=""none"" stroke-width=""3"" fill = ""none"" />
    
    </svg>
    </div>
        ",,,,,,,,,,,,,,,,,,,,,,,,,,,,,,26
26,html-keyboard-response,26,301876,0.0-26.0,,,,"
    <div style="" display: block;  position: relative;"">
    <svg width=1440 height=900>
    
    <circle cx=657 cy=450 r=13.848948830073207 stroke=""black"" stroke-width=""1"" fill=""black"" />
    <circle cx=498.52 cy=450 r=19.784212614390295 stroke=""black"" stroke-width=""1.5"" fill=""none"" />
    <circle cx=601.5319999999999 cy=450 r=19.784212614390295 stroke=""black"" stroke-width=""1.5"" fill=""none"" />
    <circle cx=498.52 cy=553.012 r=19.784212614390295 stroke=""black"" stroke-width=""1.5"" fill=""none"" />
    <circle cx=395.508 cy=450 r=19.784212614390295 stroke=""black"" stroke-width=""1.5"" fill=""none"" />
    <circle cx=498.52 cy=346.988 r=19.784212614390295 stroke=""black"" stroke-width=""1.5"" fill=""none"" />
    <polygon points = ""498.52,450 504.0852000873649,430.2157873856097 492.95479991263505,430.2157873856097"" stroke=""white"" stroke-width=""3"" fill = ""white"" />
    
    </svg>
    </div>
        ",,,,,,,,,,,,stimulus,,,,,,,,,,,,,,,,,,26
27,html-keyboard-response,27,302171,0.0-27.0,293.1999999284744,arrowup,,"
    <div style="" display: block;  position: relative;"">
    
    <svg width=1440 height=900>
    <circle cx=657 cy=450 r=13.848948830073207 stroke=""black"" stroke-width=""1"" fill=""black"" />
    <circle cx=601.5319999999999 cy=450 r=19.784212614390295 stroke=""none"" stroke-width=""1.5"" fill=""none"" />
    <circle cx=498.52 cy=553.012 r=19.784212614390295 stroke=""none"" stroke-width=""1.5"" fill=""none"" />
    <circle cx=395.508 cy=450 r=19.784212614390295 stroke=""none"" stroke-width=""1.5"" fill=""none"" />
    <circle cx=498.52 cy=346.988 r=19.784212614390295 stroke=""none"" stroke-width=""1.5"" fill=""none"" />
    <polygon points = ""498.52,450 504.0852000873649,430.2157873856097 492.95479991263505,430.2157873856097"" stroke=""none"" stroke-width=""3"" fill = ""none"" />
    
    </svg>
    </div>
        ",,,,,,,,,,,,get_response,True,8DfU9mw4w1X7oILw,,,True,True,True,158.48,4.0,516.842,103.012,2.6,1.0,0.0,,,,26
28,html-keyboard-response,28,302684,0.0-28.0,,,,"
    <div style="" display: block;  position: relative;"">
    
    <svg width=1440 height=900>
    <circle cx=657 cy=450 r=13.848948830073207 stroke=""black"" stroke-width=""1"" fill=""black"" />
    <circle cx=601.5319999999999 cy=450 r=19.784212614390295 stroke=""none"" stroke-width=""1.5"" fill=""none"" />
    <circle cx=498.52 cy=553.012 r=19.784212614390295 stroke=""none"" stroke-width=""1.5"" fill=""none"" />
    <circle cx=395.508 cy=450 r=19.784212614390295 stroke=""none"" stroke-width=""1.5"" fill=""none"" />
    <circle cx=498.52 cy=346.988 r=19.784212614390295 stroke=""none"" stroke-width=""1.5"" fill=""none"" />
    <polygon points = ""498.52,450 504.0852000873649,430.2157873856097 492.95479991263505,430.2157873856097"" stroke=""none"" stroke-width=""3"" fill = ""none"" />
    
    </svg>
    </div>
        ",,,,,,,,,,,,,,,,,,,,,,,,,,,,,,26
29,html-keyboard-response,29,302839,0.0-29.0,,,,"
    <div style="" display: block;  position: relative;"">
    <svg width=1440 height=900>
    
    <circle cx=657 cy=450 r=13.848948830073207 stroke=""black"" stroke-width=""1"" fill=""black"" />
    <circle cx=498.52 cy=450 r=19.784212614390295 stroke=""black"" stroke-width=""1.5"" fill=""none"" />
    <circle cx=601.5319999999999 cy=450 r=19.784212614390295 stroke=""black"" stroke-width=""1.5"" fill=""none"" />
    <circle cx=498.52 cy=553.012 r=19.784212614390295 stroke=""black"" stroke-width=""1.5"" fill=""none"" />
    <circle cx=395.508 cy=450 r=19.784212614390295 stroke=""black"" stroke-width=""1.5"" fill=""none"" />
    <circle cx=498.52 cy=346.988 r=19.784212614390295 stroke=""black"" stroke-width=""1.5"" fill=""none"" />
    <polygon points = ""498.52,450 504.0852000873649,469.7842126143903 492.95479991263505,469.7842126143903"" stroke=""white"" stroke-width=""3"" fill = ""white"" />
    
    </svg>
    </div>
        ",,,,,,,,,,,,stimulus,,,,,,,,,,,,,,,,,,26
30,html-keyboard-response,30,303299,0.0-30.0,458.3000000715256,arrowdown,,"
    <div style="" display: block;  position: relative;"">
    
    <svg width=1440 height=900>
    <circle cx=657 cy=450 r=13.848948830073207 stroke=""black"" stroke-width=""1"" fill=""black"" />
    <circle cx=601.5319999999999 cy=450 r=19.784212614390295 stroke=""none"" stroke-width=""1.5"" fill=""none"" />
    <circle cx=498.52 cy=553.012 r=19.784212614390295 stroke=""none"" stroke-width=""1.5"" fill=""none"" />
    <circle cx=395.508 cy=450 r=19.784212614390295 stroke=""none"" stroke-width=""1.5"" fill=""none"" />
    <circle cx=498.52 cy=346.988 r=19.784212614390295 stroke=""none"" stroke-width=""1.5"" fill=""none"" />
    <polygon points = ""498.52,450 504.0852000873649,469.7842126143903 492.95479991263505,469.7842126143903"" stroke=""none"" stroke-width=""3"" fill = ""none"" />
    
    </svg>
    </div>
        ",,,,,,,,,,,,get_response,True,8DfU9mw4w1X7oILw,,,True,False,True,158.48,4.0,516.842,103.012,2.6,1.0,0.0,,,,26
31,html-keyboard-response,31,303814,0.0-31.0,,,,"
    <div style="" display: block;  position: relative;"">
    
    <svg width=1440 height=900>
    <circle cx=657 cy=450 r=13.848948830073207 stroke=""black"" stroke-width=""1"" fill=""black"" />
    <circle cx=601.5319999999999 cy=450 r=19.784212614390295 stroke=""none"" stroke-width=""1.5"" fill=""none"" />
    <circle cx=498.52 cy=553.012 r=19.784212614390295 stroke=""none"" stroke-width=""1.5"" fill=""none"" />
    <circle cx=395.508 cy=450 r=19.784212614390295 stroke=""none"" stroke-width=""1.5"" fill=""none"" />
    <circle cx=498.52 cy=346.988 r=19.784212614390295 stroke=""none"" stroke-width=""1.5"" fill=""none"" />
    <polygon points = ""498.52,450 504.0852000873649,469.7842126143903 492.95479991263505,469.7842126143903"" stroke=""none"" stroke-width=""3"" fill = ""none"" />
    
    </svg>
    </div>
        ",,,,,,,,,,,,,,,,,,,,,,,,,,,,,,26
32,html-keyboard-response,32,303970,0.0-32.0,,,,"
    <div style="" display: block;  position: relative;"">
    <svg width=1440 height=900>
    
    <circle cx=657 cy=450 r=13.848948830073207 stroke=""black"" stroke-width=""1"" fill=""black"" />
    <circle cx=815.48 cy=450 r=19.784212614390295 stroke=""black"" stroke-width=""1.5"" fill=""none"" />
    <circle cx=918.492 cy=450 r=19.784212614390295 stroke=""black"" stroke-width=""1.5"" fill=""none"" />
    <circle cx=815.48 cy=553.012 r=19.784212614390295 stroke=""black"" stroke-width=""1.5"" fill=""none"" />
    <circle cx=712.4680000000001 cy=450 r=19.784212614390295 stroke=""black"" stroke-width=""1.5"" fill=""none"" />
    <circle cx=815.48 cy=346.988 r=19.784212614390295 stroke=""black"" stroke-width=""1.5"" fill=""none"" />
    <polygon points = ""815.48,450 821.045200087365,469.7842126143903 809.9147999126351,469.7842126143903"" stroke=""white"" stroke-width=""3"" fill = ""white"" />
    
    </svg>
    </div>
        ",,,,,,,,,,,,stimulus,,,,,,,,,,,,,,,,,,26
33,html-keyboard-response,33,304491,0.0-33.0,520.0,arrowdown,,"
    <div style="" display: block;  position: relative;"">
    
    <svg width=1440 height=900>
    <circle cx=657 cy=450 r=13.848948830073207 stroke=""black"" stroke-width=""1"" fill=""black"" />
    <circle cx=918.492 cy=450 r=19.784212614390295 stroke=""none"" stroke-width=""1.5"" fill=""none"" />
    <circle cx=815.48 cy=553.012 r=19.784212614390295 stroke=""none"" stroke-width=""1.5"" fill=""none"" />
    <circle cx=712.4680000000001 cy=450 r=19.784212614390295 stroke=""none"" stroke-width=""1.5"" fill=""none"" />
    <circle cx=815.48 cy=346.988 r=19.784212614390295 stroke=""none"" stroke-width=""1.5"" fill=""none"" />
    <polygon points = ""815.48,450 821.045200087365,469.7842126143903 809.9147999126351,469.7842126143903"" stroke=""none"" stroke-width=""3"" fill = ""none"" />
    
    </svg>
    </div>
        ",,,,,,,,,,,,get_response,True,8DfU9mw4w1X7oILw,,,False,False,True,158.48,4.0,516.842,103.012,2.6,1.0,0.0,,,,26
34,html-keyboard-response,34,304994,0.0-34.0,,,,"
    <div style="" display: block;  position: relative;"">
    
    <svg width=1440 height=900>
    <circle cx=657 cy=450 r=13.848948830073207 stroke=""black"" stroke-width=""1"" fill=""black"" />
    <circle cx=918.492 cy=450 r=19.784212614390295 stroke=""none"" stroke-width=""1.5"" fill=""none"" />
    <circle cx=815.48 cy=553.012 r=19.784212614390295 stroke=""none"" stroke-width=""1.5"" fill=""none"" />
    <circle cx=712.4680000000001 cy=450 r=19.784212614390295 stroke=""none"" stroke-width=""1.5"" fill=""none"" />
    <circle cx=815.48 cy=346.988 r=19.784212614390295 stroke=""none"" stroke-width=""1.5"" fill=""none"" />
    <polygon points = ""815.48,450 821.045200087365,469.7842126143903 809.9147999126351,469.7842126143903"" stroke=""none"" stroke-width=""3"" fill = ""none"" />
    
    </svg>
    </div>
        ",,,,,,,,,,,,,,,,,,,,,,,,,,,,,,26
35,html-keyboard-response,35,305147,0.0-35.0,,,,"
    <div style="" display: block;  position: relative;"">
    <svg width=1440 height=900>
    
    <circle cx=657 cy=450 r=13.848948830073207 stroke=""black"" stroke-width=""1"" fill=""black"" />
    <circle cx=498.52 cy=450 r=19.784212614390295 stroke=""black"" stroke-width=""1.5"" fill=""none"" />
    <circle cx=592.1672727272727 cy=450 r=19.784212614390295 stroke=""black"" stroke-width=""1.5"" fill=""none"" />
    <circle cx=498.52 cy=543.6472727272727 r=19.784212614390295 stroke=""black"" stroke-width=""1.5"" fill=""none"" />
    <circle cx=404.8727272727273 cy=450 r=19.784212614390295 stroke=""black"" stroke-width=""1.5"" fill=""none"" />
    <circle cx=498.52 cy=356.3527272727273 r=19.784212614390295 stroke=""black"" stroke-width=""1.5"" fill=""none"" />
    <polygon points = ""498.52,450 504.0852000873649,469.7842126143903 492.95479991263505,469.7842126143903"" stroke=""white"" stroke-width=""3"" fill = ""white"" />
    
    </svg>
    </div>
        ",,,,,,,,,,,,stimulus,,,,,,,,,,,,,,,,,,26
36,html-keyboard-response,36,306003,0.0-36.0,854.6000000238419,arrowdown,,"
    <div style="" display: block;  position: relative;"">
    
    <svg width=1440 height=900>
    <circle cx=657 cy=450 r=13.848948830073207 stroke=""black"" stroke-width=""1"" fill=""black"" />
    <circle cx=592.1672727272727 cy=450 r=19.784212614390295 stroke=""none"" stroke-width=""1.5"" fill=""none"" />
    <circle cx=498.52 cy=543.6472727272727 r=19.784212614390295 stroke=""none"" stroke-width=""1.5"" fill=""none"" />
    <circle cx=404.8727272727273 cy=450 r=19.784212614390295 stroke=""none"" stroke-width=""1.5"" fill=""none"" />
    <circle cx=498.52 cy=356.3527272727273 r=19.784212614390295 stroke=""none"" stroke-width=""1.5"" fill=""none"" />
    <polygon points = ""498.52,450 504.0852000873649,469.7842126143903 492.95479991263505,469.7842126143903"" stroke=""none"" stroke-width=""3"" fill = ""none"" />
    
    </svg>
    </div>
        ",,,,,,,,,,,,get_response,True,8DfU9mw4w1X7oILw,,,True,False,True,158.48,4.0,516.842,93.64727272727272,2.36,1.0,0.0,,,,26
37,html-keyboard-response,37,306511,0.0-37.0,,,,"
    <div style="" display: block;  position: relative;"">
    
    <svg width=1440 height=900>
    <circle cx=657 cy=450 r=13.848948830073207 stroke=""black"" stroke-width=""1"" fill=""black"" />
    <circle cx=592.1672727272727 cy=450 r=19.784212614390295 stroke=""none"" stroke-width=""1.5"" fill=""none"" />
    <circle cx=498.52 cy=543.6472727272727 r=19.784212614390295 stroke=""none"" stroke-width=""1.5"" fill=""none"" />
    <circle cx=404.8727272727273 cy=450 r=19.784212614390295 stroke=""none"" stroke-width=""1.5"" fill=""none"" />
    <circle cx=498.52 cy=356.3527272727273 r=19.784212614390295 stroke=""none"" stroke-width=""1.5"" fill=""none"" />
    <polygon points = ""498.52,450 504.0852000873649,469.7842126143903 492.95479991263505,469.7842126143903"" stroke=""none"" stroke-width=""3"" fill = ""none"" />
    
    </svg>
    </div>
        ",,,,,,,,,,,,,,,,,,,,,,,,,,,,,,26
38,html-keyboard-response,38,306667,0.0-38.0,,,,"
    <div style="" display: block;  position: relative;"">
    <svg width=1440 height=900>
    
    <circle cx=657 cy=450 r=13.848948830073207 stroke=""black"" stroke-width=""1"" fill=""black"" />
    <circle cx=498.52 cy=450 r=19.784212614390295 stroke=""black"" stroke-width=""1.5"" fill=""none"" />
    <circle cx=583.6538842975207 cy=450 r=19.784212614390295 stroke=""black"" stroke-width=""1.5"" fill=""none"" />
    <circle cx=498.52 cy=535.1338842975207 r=19.784212614390295 stroke=""black"" stroke-width=""1.5"" fill=""none"" />
    <circle cx=413.38611570247934 cy=450 r=19.784212614390295 stroke=""black"" stroke-width=""1.5"" fill=""none"" />
    <circle cx=498.52 cy=364.86611570247936 r=19.784212614390295 stroke=""black"" stroke-width=""1.5"" fill=""none"" />
    <polygon points = ""498.52,450 504.0852000873649,430.2157873856097 492.95479991263505,430.2157873856097"" stroke=""white"" stroke-width=""3"" fill = ""white"" />
    
    </svg>
    </div>
        ",,,,,,,,,,,,stimulus,,,,,,,,,,,,,,,,,,26
39,html-keyboard-response,39,307043,0.0-39.0,374.59999990463257,arrowup,,"
    <div style="" display: block;  position: relative;"">
    
    <svg width=1440 height=900>
    <circle cx=657 cy=450 r=13.848948830073207 stroke=""black"" stroke-width=""1"" fill=""black"" />
    <circle cx=583.6538842975207 cy=450 r=19.784212614390295 stroke=""none"" stroke-width=""1.5"" fill=""none"" />
    <circle cx=498.52 cy=535.1338842975207 r=19.784212614390295 stroke=""none"" stroke-width=""1.5"" fill=""none"" />
    <circle cx=413.38611570247934 cy=450 r=19.784212614390295 stroke=""none"" stroke-width=""1.5"" fill=""none"" />
    <circle cx=498.52 cy=364.86611570247936 r=19.784212614390295 stroke=""none"" stroke-width=""1.5"" fill=""none"" />
    <polygon points = ""498.52,450 504.0852000873649,430.2157873856097 492.95479991263505,430.2157873856097"" stroke=""none"" stroke-width=""3"" fill = ""none"" />
    
    </svg>
    </div>
        ",,,,,,,,,,,,get_response,True,8DfU9mw4w1X7oILw,,,True,True,True,158.48,4.0,516.842,85.13388429752065,2.15,1.0,0.0,,,,26
40,html-keyboard-response,40,307547,0.0-40.0,,,,"
    <div style="" display: block;  position: relative;"">
    
    <svg width=1440 height=900>
    <circle cx=657 cy=450 r=13.848948830073207 stroke=""black"" stroke-width=""1"" fill=""black"" />
    <circle cx=583.6538842975207 cy=450 r=19.784212614390295 stroke=""none"" stroke-width=""1.5"" fill=""none"" />
    <circle cx=498.52 cy=535.1338842975207 r=19.784212614390295 stroke=""none"" stroke-width=""1.5"" fill=""none"" />
    <circle cx=413.38611570247934 cy=450 r=19.784212614390295 stroke=""none"" stroke-width=""1.5"" fill=""none"" />
    <circle cx=498.52 cy=364.86611570247936 r=19.784212614390295 stroke=""none"" stroke-width=""1.5"" fill=""none"" />
    <polygon points = ""498.52,450 504.0852000873649,430.2157873856097 492.95479991263505,430.2157873856097"" stroke=""none"" stroke-width=""3"" fill = ""none"" />
    
    </svg>
    </div>
        ",,,,,,,,,,,,,,,,,,,,,,,,,,,,,,26
41,html-keyboard-response,41,307702,0.0-41.0,,,,"
    <div style="" display: block;  position: relative;"">
    <svg width=1440 height=900>
    
    <circle cx=657 cy=450 r=13.848948830073207 stroke=""black"" stroke-width=""1"" fill=""black"" />
    <circle cx=498.52 cy=450 r=19.784212614390295 stroke=""black"" stroke-width=""1.5"" fill=""none"" />
    <circle cx=575.9144402704733 cy=450 r=19.784212614390295 stroke=""black"" stroke-width=""1.5"" fill=""none"" />
    <circle cx=498.52 cy=527.3944402704733 r=19.784212614390295 stroke=""black"" stroke-width=""1.5"" fill=""none"" />
    <circle cx=421.1255597295267 cy=450 r=19.784212614390295 stroke=""black"" stroke-width=""1.5"" fill=""none"" />
    <circle cx=498.52 cy=372.6055597295267 r=19.784212614390295 stroke=""black"" stroke-width=""1.5"" fill=""none"" />
    <polygon points = ""498.52,450 504.0852000873649,430.2157873856097 492.95479991263505,430.2157873856097"" stroke=""white"" stroke-width=""3"" fill = ""white"" />
    
    </svg>
    </div>
        ",,,,,,,,,,,,stimulus,,,,,,,,,,,,,,,,,,26
42,html-keyboard-response,42,308299,0.0-42.0,595.5,arrowup,,"
    <div style="" display: block;  position: relative;"">
    
    <svg width=1440 height=900>
    <circle cx=657 cy=450 r=13.848948830073207 stroke=""black"" stroke-width=""1"" fill=""black"" />
    <circle cx=575.9144402704733 cy=450 r=19.784212614390295 stroke=""none"" stroke-width=""1.5"" fill=""none"" />
    <circle cx=498.52 cy=527.3944402704733 r=19.784212614390295 stroke=""none"" stroke-width=""1.5"" fill=""none"" />
    <circle cx=421.1255597295267 cy=450 r=19.784212614390295 stroke=""none"" stroke-width=""1.5"" fill=""none"" />
    <circle cx=498.52 cy=372.6055597295267 r=19.784212614390295 stroke=""none"" stroke-width=""1.5"" fill=""none"" />
    <polygon points = ""498.52,450 504.0852000873649,430.2157873856097 492.95479991263505,430.2157873856097"" stroke=""none"" stroke-width=""3"" fill = ""none"" />
    
    </svg>
    </div>
        ",,,,,,,,,,,,get_response,True,8DfU9mw4w1X7oILw,,,True,True,True,158.48,4.0,516.842,77.39444027047331,1.95,1.0,0.0,,,,26
43,html-keyboard-response,43,308803,0.0-43.0,,,,"
    <div style="" display: block;  position: relative;"">
    
    <svg width=1440 height=900>
    <circle cx=657 cy=450 r=13.848948830073207 stroke=""black"" stroke-width=""1"" fill=""black"" />
    <circle cx=575.9144402704733 cy=450 r=19.784212614390295 stroke=""none"" stroke-width=""1.5"" fill=""none"" />
    <circle cx=498.52 cy=527.3944402704733 r=19.784212614390295 stroke=""none"" stroke-width=""1.5"" fill=""none"" />
    <circle cx=421.1255597295267 cy=450 r=19.784212614390295 stroke=""none"" stroke-width=""1.5"" fill=""none"" />
    <circle cx=498.52 cy=372.6055597295267 r=19.784212614390295 stroke=""none"" stroke-width=""1.5"" fill=""none"" />
    <polygon points = ""498.52,450 504.0852000873649,430.2157873856097 492.95479991263505,430.2157873856097"" stroke=""none"" stroke-width=""3"" fill = ""none"" />
    
    </svg>
    </div>
        ",,,,,,,,,,,,,,,,,,,,,,,,,,,,,,26
44,html-keyboard-response,44,308958,0.0-44.0,,,,"
    <div style="" display: block;  position: relative;"">
    <svg width=1440 height=900>
    
    <circle cx=657 cy=450 r=13.848948830073207 stroke=""black"" stroke-width=""1"" fill=""black"" />
    <circle cx=498.52 cy=450 r=19.784212614390295 stroke=""black"" stroke-width=""1.5"" fill=""none"" />
    <circle cx=568.8785820640667 cy=450 r=19.784212614390295 stroke=""black"" stroke-width=""1.5"" fill=""none"" />
    <circle cx=498.52 cy=520.3585820640667 r=19.784212614390295 stroke=""black"" stroke-width=""1.5"" fill=""none"" />
    <circle cx=428.16141793593334 cy=450 r=19.784212614390295 stroke=""black"" stroke-width=""1.5"" fill=""none"" />
    <circle cx=498.52 cy=379.64141793593336 r=19.784212614390295 stroke=""black"" stroke-width=""1.5"" fill=""none"" />
    <polygon points = ""498.52,450 504.0852000873649,469.7842126143903 492.95479991263505,469.7842126143903"" stroke=""white"" stroke-width=""3"" fill = ""white"" />
    
    </svg>
    </div>
        ",,,,,,,,,,,,stimulus,,,,,,,,,,,,,,,,,,26
45,html-keyboard-response,45,309451,0.0-45.0,491.7999999523163,arrowdown,,"
    <div style="" display: block;  position: relative;"">
    
    <svg width=1440 height=900>
    <circle cx=657 cy=450 r=13.848948830073207 stroke=""black"" stroke-width=""1"" fill=""black"" />
    <circle cx=568.8785820640667 cy=450 r=19.784212614390295 stroke=""none"" stroke-width=""1.5"" fill=""none"" />
    <circle cx=498.52 cy=520.3585820640667 r=19.784212614390295 stroke=""none"" stroke-width=""1.5"" fill=""none"" />
    <circle cx=428.16141793593334 cy=450 r=19.784212614390295 stroke=""none"" stroke-width=""1.5"" fill=""none"" />
    <circle cx=498.52 cy=379.64141793593336 r=19.784212614390295 stroke=""none"" stroke-width=""1.5"" fill=""none"" />
    <polygon points = ""498.52,450 504.0852000873649,469.7842126143903 492.95479991263505,469.7842126143903"" stroke=""none"" stroke-width=""3"" fill = ""none"" />
    
    </svg>
    </div>
        ",,,,,,,,,,,,get_response,True,8DfU9mw4w1X7oILw,,,True,False,True,158.48,4.0,516.842,70.35858206406664,1.77,1.0,0.0,,,,26
46,html-keyboard-response,46,309956,0.0-46.0,,,,"
    <div style="" display: block;  position: relative;"">
    
    <svg width=1440 height=900>
    <circle cx=657 cy=450 r=13.848948830073207 stroke=""black"" stroke-width=""1"" fill=""black"" />
    <circle cx=568.8785820640667 cy=450 r=19.784212614390295 stroke=""none"" stroke-width=""1.5"" fill=""none"" />
    <circle cx=498.52 cy=520.3585820640667 r=19.784212614390295 stroke=""none"" stroke-width=""1.5"" fill=""none"" />
    <circle cx=428.16141793593334 cy=450 r=19.784212614390295 stroke=""none"" stroke-width=""1.5"" fill=""none"" />
    <circle cx=498.52 cy=379.64141793593336 r=19.784212614390295 stroke=""none"" stroke-width=""1.5"" fill=""none"" />
    <polygon points = ""498.52,450 504.0852000873649,469.7842126143903 492.95479991263505,469.7842126143903"" stroke=""none"" stroke-width=""3"" fill = ""none"" />
    
    </svg>
    </div>
        ",,,,,,,,,,,,,,,,,,,,,,,,,,,,,,26
47,html-keyboard-response,47,310111,0.0-47.0,,,,"
    <div style="" display: block;  position: relative;"">
    <svg width=1440 height=900>
    
    <circle cx=657 cy=450 r=13.848948830073207 stroke=""black"" stroke-width=""1"" fill=""black"" />
    <circle cx=815.48 cy=450 r=19.784212614390295 stroke=""black"" stroke-width=""1.5"" fill=""none"" />
    <circle cx=879.4423473309697 cy=450 r=19.784212614390295 stroke=""black"" stroke-width=""1.5"" fill=""none"" />
    <circle cx=815.48 cy=513.9623473309697 r=19.784212614390295 stroke=""black"" stroke-width=""1.5"" fill=""none"" />
    <circle cx=751.5176526690303 cy=450 r=19.784212614390295 stroke=""black"" stroke-width=""1.5"" fill=""none"" />
    <circle cx=815.48 cy=386.0376526690303 r=19.784212614390295 stroke=""black"" stroke-width=""1.5"" fill=""none"" />
    <polygon points = ""815.48,450 821.045200087365,469.7842126143903 809.9147999126351,469.7842126143903"" stroke=""white"" stroke-width=""3"" fill = ""white"" />
    
    </svg>
    </div>
        ",,,,,,,,,,,,stimulus,,,,,,,,,,,,,,,,,,26
48,html-keyboard-response,48,311043,0.0-48.0,930.600000023842,arrowdown,,"
    <div style="" display: block;  position: relative;"">
    
    <svg width=1440 height=900>
    <circle cx=657 cy=450 r=13.848948830073207 stroke=""black"" stroke-width=""1"" fill=""black"" />
    <circle cx=879.4423473309697 cy=450 r=19.784212614390295 stroke=""none"" stroke-width=""1.5"" fill=""none"" />
    <circle cx=815.48 cy=513.9623473309697 r=19.784212614390295 stroke=""none"" stroke-width=""1.5"" fill=""none"" />
    <circle cx=751.5176526690303 cy=450 r=19.784212614390295 stroke=""none"" stroke-width=""1.5"" fill=""none"" />
    <circle cx=815.48 cy=386.0376526690303 r=19.784212614390295 stroke=""none"" stroke-width=""1.5"" fill=""none"" />
    <polygon points = ""815.48,450 821.045200087365,469.7842126143903 809.9147999126351,469.7842126143903"" stroke=""none"" stroke-width=""3"" fill = ""none"" />
    
    </svg>
    </div>
        ",,,,,,,,,,,,get_response,True,8DfU9mw4w1X7oILw,,,False,False,True,158.48,4.0,516.842,63.96234733096966,1.61,1.0,0.0,,,,26
49,html-keyboard-response,49,311558,0.0-49.0,,,,"
    <div style="" display: block;  position: relative;"">
    
    <svg width=1440 height=900>
    <circle cx=657 cy=450 r=13.848948830073207 stroke=""black"" stroke-width=""1"" fill=""black"" />
    <circle cx=879.4423473309697 cy=450 r=19.784212614390295 stroke=""none"" stroke-width=""1.5"" fill=""none"" />
    <circle cx=815.48 cy=513.9623473309697 r=19.784212614390295 stroke=""none"" stroke-width=""1.5"" fill=""none"" />
    <circle cx=751.5176526690303 cy=450 r=19.784212614390295 stroke=""none"" stroke-width=""1.5"" fill=""none"" />
    <circle cx=815.48 cy=386.0376526690303 r=19.784212614390295 stroke=""none"" stroke-width=""1.5"" fill=""none"" />
    <polygon points = ""815.48,450 821.045200087365,469.7842126143903 809.9147999126351,469.7842126143903"" stroke=""none"" stroke-width=""3"" fill = ""none"" />
    
    </svg>
    </div>
        ",,,,,,,,,,,,,,,,,,,,,,,,,,,,,,26
50,html-keyboard-response,50,311714,0.0-50.0,,,,"
    <div style="" display: block;  position: relative;"">
    <svg width=1440 height=900>
    
    <circle cx=657 cy=450 r=13.848948830073207 stroke=""black"" stroke-width=""1"" fill=""black"" />
    <circle cx=815.48 cy=450 r=19.784212614390295 stroke=""black"" stroke-width=""1.5"" fill=""none"" />
    <circle cx=873.6275884826997 cy=450 r=19.784212614390295 stroke=""black"" stroke-width=""1.5"" fill=""none"" />
    <circle cx=815.48 cy=508.1475884826997 r=19.784212614390295 stroke=""black"" stroke-width=""1.5"" fill=""none"" />
    <circle cx=757.3324115173003 cy=450 r=19.784212614390295 stroke=""black"" stroke-width=""1.5"" fill=""none"" />
    <circle cx=815.48 cy=391.8524115173003 r=19.784212614390295 stroke=""black"" stroke-width=""1.5"" fill=""none"" />
    <polygon points = ""815.48,450 821.045200087365,469.7842126143903 809.9147999126351,469.7842126143903"" stroke=""white"" stroke-width=""3"" fill = ""white"" />
    
    </svg>
    </div>
        ",,,,,,,,,,,,stimulus,,,,,,,,,,,,,,,,,,26
51,html-keyboard-response,51,312411,0.0-51.0,696.1999999284744,arrowdown,,"
    <div style="" display: block;  position: relative;"">
    
    <svg width=1440 height=900>
    <circle cx=657 cy=450 r=13.848948830073207 stroke=""black"" stroke-width=""1"" fill=""black"" />
    <circle cx=873.6275884826997 cy=450 r=19.784212614390295 stroke=""none"" stroke-width=""1.5"" fill=""none"" />
    <circle cx=815.48 cy=508.1475884826997 r=19.784212614390295 stroke=""none"" stroke-width=""1.5"" fill=""none"" />
    <circle cx=757.3324115173003 cy=450 r=19.784212614390295 stroke=""none"" stroke-width=""1.5"" fill=""none"" />
    <circle cx=815.48 cy=391.8524115173003 r=19.784212614390295 stroke=""none"" stroke-width=""1.5"" fill=""none"" />
    <polygon points = ""815.48,450 821.045200087365,469.7842126143903 809.9147999126351,469.7842126143903"" stroke=""none"" stroke-width=""3"" fill = ""none"" />
    
    </svg>
    </div>
        ",,,,,,,,,,,,get_response,True,8DfU9mw4w1X7oILw,,,False,False,True,158.48,4.0,516.842,58.14758848269969,1.47,1.0,0.0,,,,26
52,html-keyboard-response,52,312918,0.0-52.0,,,,"
    <div style="" display: block;  position: relative;"">
    
    <svg width=1440 height=900>
    <circle cx=657 cy=450 r=13.848948830073207 stroke=""black"" stroke-width=""1"" fill=""black"" />
    <circle cx=873.6275884826997 cy=450 r=19.784212614390295 stroke=""none"" stroke-width=""1.5"" fill=""none"" />
    <circle cx=815.48 cy=508.1475884826997 r=19.784212614390295 stroke=""none"" stroke-width=""1.5"" fill=""none"" />
    <circle cx=757.3324115173003 cy=450 r=19.784212614390295 stroke=""none"" stroke-width=""1.5"" fill=""none"" />
    <circle cx=815.48 cy=391.8524115173003 r=19.784212614390295 stroke=""none"" stroke-width=""1.5"" fill=""none"" />
    <polygon points = ""815.48,450 821.045200087365,469.7842126143903 809.9147999126351,469.7842126143903"" stroke=""none"" stroke-width=""3"" fill = ""none"" />
    
    </svg>
    </div>
        ",,,,,,,,,,,,,,,,,,,,,,,,,,,,,,26
53,html-keyboard-response,53,313073,0.0-53.0,,,,"
    <div style="" display: block;  position: relative;"">
    <svg width=1440 height=900>
    
    <circle cx=657 cy=450 r=13.848948830073207 stroke=""black"" stroke-width=""1"" fill=""black"" />
    <circle cx=498.52 cy=450 r=19.784212614390295 stroke=""black"" stroke-width=""1.5"" fill=""none"" />
    <circle cx=551.3814440751815 cy=450 r=19.784212614390295 stroke=""black"" stroke-width=""1.5"" fill=""none"" />
    <circle cx=498.52 cy=502.8614440751815 r=19.784212614390295 stroke=""black"" stroke-width=""1.5"" fill=""none"" />
    <circle cx=445.6585559248185 cy=450 r=19.784212614390295 stroke=""black"" stroke-width=""1.5"" fill=""none"" />
    <circle cx=498.52 cy=397.1385559248185 r=19.784212614390295 stroke=""black"" stroke-width=""1.5"" fill=""none"" />
    <polygon points = ""498.52,450 504.0852000873649,430.2157873856097 492.95479991263505,430.2157873856097"" stroke=""white"" stroke-width=""3"" fill = ""white"" />
    
    </svg>
    </div>
        ",,,,,,,,,,,,stimulus,,,,,,,,,,,,,,,,,,26
54,html-keyboard-response,54,313395,0.0-54.0,320.3000000715256,arrowup,,"
    <div style="" display: block;  position: relative;"">
    
    <svg width=1440 height=900>
    <circle cx=657 cy=450 r=13.848948830073207 stroke=""black"" stroke-width=""1"" fill=""black"" />
    <circle cx=551.3814440751815 cy=450 r=19.784212614390295 stroke=""none"" stroke-width=""1.5"" fill=""none"" />
    <circle cx=498.52 cy=502.8614440751815 r=19.784212614390295 stroke=""none"" stroke-width=""1.5"" fill=""none"" />
    <circle cx=445.6585559248185 cy=450 r=19.784212614390295 stroke=""none"" stroke-width=""1.5"" fill=""none"" />
    <circle cx=498.52 cy=397.1385559248185 r=19.784212614390295 stroke=""none"" stroke-width=""1.5"" fill=""none"" />
    <polygon points = ""498.52,450 504.0852000873649,430.2157873856097 492.95479991263505,430.2157873856097"" stroke=""none"" stroke-width=""3"" fill = ""none"" />
    
    </svg>
    </div>
        ",,,,,,,,,,,,get_response,True,8DfU9mw4w1X7oILw,,,True,True,True,158.48,4.0,516.842,52.86144407518153,1.33,1.0,0.0,,,,26
55,html-keyboard-response,55,313896,0.0-55.0,,,,"
    <div style="" display: block;  position: relative;"">
    
    <svg width=1440 height=900>
    <circle cx=657 cy=450 r=13.848948830073207 stroke=""black"" stroke-width=""1"" fill=""black"" />
    <circle cx=551.3814440751815 cy=450 r=19.784212614390295 stroke=""none"" stroke-width=""1.5"" fill=""none"" />
    <circle cx=498.52 cy=502.8614440751815 r=19.784212614390295 stroke=""none"" stroke-width=""1.5"" fill=""none"" />
    <circle cx=445.6585559248185 cy=450 r=19.784212614390295 stroke=""none"" stroke-width=""1.5"" fill=""none"" />
    <circle cx=498.52 cy=397.1385559248185 r=19.784212614390295 stroke=""none"" stroke-width=""1.5"" fill=""none"" />
    <polygon points = ""498.52,450 504.0852000873649,430.2157873856097 492.95479991263505,430.2157873856097"" stroke=""none"" stroke-width=""3"" fill = ""none"" />
    
    </svg>
    </div>
        ",,,,,,,,,,,,,,,,,,,,,,,,,,,,,,26
56,html-keyboard-response,56,314054,0.0-56.0,,,,"
    <div style="" display: block;  position: relative;"">
    <svg width=1440 height=900>
    
    <circle cx=657 cy=450 r=13.848948830073207 stroke=""black"" stroke-width=""1"" fill=""black"" />
    <circle cx=815.48 cy=450 r=19.784212614390295 stroke=""black"" stroke-width=""1.5"" fill=""none"" />
    <circle cx=863.535858250165 cy=450 r=19.784212614390295 stroke=""black"" stroke-width=""1.5"" fill=""none"" />
    <circle cx=815.48 cy=498.05585825016504 r=19.784212614390295 stroke=""black"" stroke-width=""1.5"" fill=""none"" />
    <circle cx=767.424141749835 cy=450 r=19.784212614390295 stroke=""black"" stroke-width=""1.5"" fill=""none"" />
    <circle cx=815.48 cy=401.94414174983496 r=19.784212614390295 stroke=""black"" stroke-width=""1.5"" fill=""none"" />
    <polygon points = ""815.48,450 821.045200087365,469.7842126143903 809.9147999126351,469.7842126143903"" stroke=""white"" stroke-width=""3"" fill = ""white"" />
    
    </svg>
    </div>
        ",,,,,,,,,,,,stimulus,,,,,,,,,,,,,,,,,,26
57,html-keyboard-response,57,315147,0.0-57.0,1091.899999976158,arrowup,,"
    <div style="" display: block;  position: relative;"">
    
    <svg width=1440 height=900>
    <circle cx=657 cy=450 r=13.848948830073207 stroke=""black"" stroke-width=""1"" fill=""black"" />
    <circle cx=863.535858250165 cy=450 r=19.784212614390295 stroke=""none"" stroke-width=""1.5"" fill=""none"" />
    <circle cx=815.48 cy=498.05585825016504 r=19.784212614390295 stroke=""none"" stroke-width=""1.5"" fill=""none"" />
    <circle cx=767.424141749835 cy=450 r=19.784212614390295 stroke=""none"" stroke-width=""1.5"" fill=""none"" />
    <circle cx=815.48 cy=401.94414174983496 r=19.784212614390295 stroke=""none"" stroke-width=""1.5"" fill=""none"" />
    <polygon points = ""815.48,450 821.045200087365,469.7842126143903 809.9147999126351,469.7842126143903"" stroke=""none"" stroke-width=""3"" fill = ""none"" />
    
    </svg>
    </div>
        ",,,,,,,,,,,,get_response,False,8DfU9mw4w1X7oILw,,,False,False,True,158.48,4.0,516.842,48.05585825016502,1.21,1.0,0.0,,,,26
58,html-keyboard-response,58,315661,0.0-58.0,,,,"
    <div style="" display: block;  position: relative;"">
    
    <svg width=1440 height=900>
    <circle cx=657 cy=450 r=13.848948830073207 stroke=""black"" stroke-width=""1"" fill=""black"" />
    <circle cx=863.535858250165 cy=450 r=19.784212614390295 stroke=""none"" stroke-width=""1.5"" fill=""none"" />
    <circle cx=815.48 cy=498.05585825016504 r=19.784212614390295 stroke=""none"" stroke-width=""1.5"" fill=""none"" />
    <circle cx=767.424141749835 cy=450 r=19.784212614390295 stroke=""none"" stroke-width=""1.5"" fill=""none"" />
    <circle cx=815.48 cy=401.94414174983496 r=19.784212614390295 stroke=""none"" stroke-width=""1.5"" fill=""none"" />
    <polygon points = ""815.48,450 821.045200087365,469.7842126143903 809.9147999126351,469.7842126143903"" stroke=""none"" stroke-width=""3"" fill = ""none"" />
    
    </svg>
    </div>
        ",,,,,,,,,,,,,,,,,,,,,,,,,,,,,,26
59,html-keyboard-response,59,315815,0.0-59.0,,,,"
    <div style="" display: block;  position: relative;"">
    <svg width=1440 height=900>
    
    <circle cx=657 cy=450 r=13.848948830073207 stroke=""black"" stroke-width=""1"" fill=""black"" />
    <circle cx=498.52 cy=450 r=19.784212614390295 stroke=""black"" stroke-width=""1.5"" fill=""none"" />
    <circle cx=560.9926157252145 cy=450 r=19.784212614390295 stroke=""black"" stroke-width=""1.5"" fill=""none"" />
    <circle cx=498.52 cy=512.4726157252145 r=19.784212614390295 stroke=""black"" stroke-width=""1.5"" fill=""none"" />
    <circle cx=436.04738427478543 cy=450 r=19.784212614390295 stroke=""black"" stroke-width=""1.5"" fill=""none"" />
    <circle cx=498.52 cy=387.52738427478545 r=19.784212614390295 stroke=""black"" stroke-width=""1.5"" fill=""none"" />
    <polygon points = ""498.52,450 504.0852000873649,430.2157873856097 492.95479991263505,430.2157873856097"" stroke=""white"" stroke-width=""3"" fill = ""white"" />
    
    </svg>
    </div>
        ",,,,,,,,,,,,stimulus,,,,,,,,,,,,,,,,,,26
60,html-keyboard-response,60,316699,0.0-60.0,882.3999999761581,arrowup,,"
    <div style="" display: block;  position: relative;"">
    
    <svg width=1440 height=900>
    <circle cx=657 cy=450 r=13.848948830073207 stroke=""black"" stroke-width=""1"" fill=""black"" />
    <circle cx=560.9926157252145 cy=450 r=19.784212614390295 stroke=""none"" stroke-width=""1.5"" fill=""none"" />
    <circle cx=498.52 cy=512.4726157252145 r=19.784212614390295 stroke=""none"" stroke-width=""1.5"" fill=""none"" />
    <circle cx=436.04738427478543 cy=450 r=19.784212614390295 stroke=""none"" stroke-width=""1.5"" fill=""none"" />
    <circle cx=498.52 cy=387.52738427478545 r=19.784212614390295 stroke=""none"" stroke-width=""1.5"" fill=""none"" />
    <polygon points = ""498.52,450 504.0852000873649,430.2157873856097 492.95479991263505,430.2157873856097"" stroke=""none"" stroke-width=""3"" fill = ""none"" />
    
    </svg>
    </div>
        ",,,,,,,,,,,,get_response,True,8DfU9mw4w1X7oILw,,,True,True,True,158.48,4.0,516.842,62.47261572521453,1.57,1.0,0.0,,,,26
61,html-keyboard-response,61,317210,0.0-61.0,,,,"
    <div style="" display: block;  position: relative;"">
    
    <svg width=1440 height=900>
    <circle cx=657 cy=450 r=13.848948830073207 stroke=""black"" stroke-width=""1"" fill=""black"" />
    <circle cx=560.9926157252145 cy=450 r=19.784212614390295 stroke=""none"" stroke-width=""1.5"" fill=""none"" />
    <circle cx=498.52 cy=512.4726157252145 r=19.784212614390295 stroke=""none"" stroke-width=""1.5"" fill=""none"" />
    <circle cx=436.04738427478543 cy=450 r=19.784212614390295 stroke=""none"" stroke-width=""1.5"" fill=""none"" />
    <circle cx=498.52 cy=387.52738427478545 r=19.784212614390295 stroke=""none"" stroke-width=""1.5"" fill=""none"" />
    <polygon points = ""498.52,450 504.0852000873649,430.2157873856097 492.95479991263505,430.2157873856097"" stroke=""none"" stroke-width=""3"" fill = ""none"" />
    
    </svg>
    </div>
        ",,,,,,,,,,,,,,,,,,,,,,,,,,,,,,26
62,html-keyboard-response,62,317363,0.0-62.0,,,,"
    <div style="" display: block;  position: relative;"">
    <svg width=1440 height=900>
    
    <circle cx=657 cy=450 r=13.848948830073207 stroke=""black"" stroke-width=""1"" fill=""black"" />
    <circle cx=498.52 cy=450 r=19.784212614390295 stroke=""black"" stroke-width=""1.5"" fill=""none"" />
    <circle cx=560.9926157252145 cy=450 r=19.784212614390295 stroke=""black"" stroke-width=""1.5"" fill=""none"" />
    <circle cx=498.52 cy=512.4726157252145 r=19.784212614390295 stroke=""black"" stroke-width=""1.5"" fill=""none"" />
    <circle cx=436.04738427478543 cy=450 r=19.784212614390295 stroke=""black"" stroke-width=""1.5"" fill=""none"" />
    <circle cx=498.52 cy=387.52738427478545 r=19.784212614390295 stroke=""black"" stroke-width=""1.5"" fill=""none"" />
    <polygon points = ""498.52,450 504.0852000873649,430.2157873856097 492.95479991263505,430.2157873856097"" stroke=""white"" stroke-width=""3"" fill = ""white"" />
    
    </svg>
    </div>
        ",,,,,,,,,,,,stimulus,,,,,,,,,,,,,,,,,,26
63,html-keyboard-response,63,318115,0.0-63.0,750.8000000715256,arrowup,,"
    <div style="" display: block;  position: relative;"">
    
    <svg width=1440 height=900>
    <circle cx=657 cy=450 r=13.848948830073207 stroke=""black"" stroke-width=""1"" fill=""black"" />
    <circle cx=560.9926157252145 cy=450 r=19.784212614390295 stroke=""none"" stroke-width=""1.5"" fill=""none"" />
    <circle cx=498.52 cy=512.4726157252145 r=19.784212614390295 stroke=""none"" stroke-width=""1.5"" fill=""none"" />
    <circle cx=436.04738427478543 cy=450 r=19.784212614390295 stroke=""none"" stroke-width=""1.5"" fill=""none"" />
    <circle cx=498.52 cy=387.52738427478545 r=19.784212614390295 stroke=""none"" stroke-width=""1.5"" fill=""none"" />
    <polygon points = ""498.52,450 504.0852000873649,430.2157873856097 492.95479991263505,430.2157873856097"" stroke=""none"" stroke-width=""3"" fill = ""none"" />
    
    </svg>
    </div>
        ",,,,,,,,,,,,get_response,True,8DfU9mw4w1X7oILw,,,True,True,True,158.48,4.0,516.842,62.47261572521453,1.57,1.0,0.0,,,,26
64,html-keyboard-response,64,318631,0.0-64.0,,,,"
    <div style="" display: block;  position: relative;"">
    
    <svg width=1440 height=900>
    <circle cx=657 cy=450 r=13.848948830073207 stroke=""black"" stroke-width=""1"" fill=""black"" />
    <circle cx=560.9926157252145 cy=450 r=19.784212614390295 stroke=""none"" stroke-width=""1.5"" fill=""none"" />
    <circle cx=498.52 cy=512.4726157252145 r=19.784212614390295 stroke=""none"" stroke-width=""1.5"" fill=""none"" />
    <circle cx=436.04738427478543 cy=450 r=19.784212614390295 stroke=""none"" stroke-width=""1.5"" fill=""none"" />
    <circle cx=498.52 cy=387.52738427478545 r=19.784212614390295 stroke=""none"" stroke-width=""1.5"" fill=""none"" />
    <polygon points = ""498.52,450 504.0852000873649,430.2157873856097 492.95479991263505,430.2157873856097"" stroke=""none"" stroke-width=""3"" fill = ""none"" />
    
    </svg>
    </div>
        ",,,,,,,,,,,,,,,,,,,,,,,,,,,,,,26
65,html-keyboard-response,65,318787,0.0-65.0,,,,"
    <div style="" display: block;  position: relative;"">
    <svg width=1440 height=900>
    
    <circle cx=657 cy=450 r=13.848948830073207 stroke=""black"" stroke-width=""1"" fill=""black"" />
    <circle cx=498.52 cy=450 r=19.784212614390295 stroke=""black"" stroke-width=""1.5"" fill=""none"" />
    <circle cx=560.9926157252145 cy=450 r=19.784212614390295 stroke=""black"" stroke-width=""1.5"" fill=""none"" />
    <circle cx=498.52 cy=512.4726157252145 r=19.784212614390295 stroke=""black"" stroke-width=""1.5"" fill=""none"" />
    <circle cx=436.04738427478543 cy=450 r=19.784212614390295 stroke=""black"" stroke-width=""1.5"" fill=""none"" />
    <circle cx=498.52 cy=387.52738427478545 r=19.784212614390295 stroke=""black"" stroke-width=""1.5"" fill=""none"" />
    <polygon points = ""498.52,450 504.0852000873649,430.2157873856097 492.95479991263505,430.2157873856097"" stroke=""white"" stroke-width=""3"" fill = ""white"" />
    
    </svg>
    </div>
        ",,,,,,,,,,,,stimulus,,,,,,,,,,,,,,,,,,26
66,html-keyboard-response,66,319979,0.0-66.0,1190.5,arrowup,,"
    <div style="" display: block;  position: relative;"">
    
    <svg width=1440 height=900>
    <circle cx=657 cy=450 r=13.848948830073207 stroke=""black"" stroke-width=""1"" fill=""black"" />
    <circle cx=560.9926157252145 cy=450 r=19.784212614390295 stroke=""none"" stroke-width=""1.5"" fill=""none"" />
    <circle cx=498.52 cy=512.4726157252145 r=19.784212614390295 stroke=""none"" stroke-width=""1.5"" fill=""none"" />
    <circle cx=436.04738427478543 cy=450 r=19.784212614390295 stroke=""none"" stroke-width=""1.5"" fill=""none"" />
    <circle cx=498.52 cy=387.52738427478545 r=19.784212614390295 stroke=""none"" stroke-width=""1.5"" fill=""none"" />
    <polygon points = ""498.52,450 504.0852000873649,430.2157873856097 492.95479991263505,430.2157873856097"" stroke=""none"" stroke-width=""3"" fill = ""none"" />
    
    </svg>
    </div>
        ",,,,,,,,,,,,get_response,True,8DfU9mw4w1X7oILw,,,True,True,True,158.48,4.0,516.842,62.47261572521453,1.57,1.0,0.0,,,,26
67,html-keyboard-response,67,320480,0.0-67.0,,,,"
    <div style="" display: block;  position: relative;"">
    
    <svg width=1440 height=900>
    <circle cx=657 cy=450 r=13.848948830073207 stroke=""black"" stroke-width=""1"" fill=""black"" />
    <circle cx=560.9926157252145 cy=450 r=19.784212614390295 stroke=""none"" stroke-width=""1.5"" fill=""none"" />
    <circle cx=498.52 cy=512.4726157252145 r=19.784212614390295 stroke=""none"" stroke-width=""1.5"" fill=""none"" />
    <circle cx=436.04738427478543 cy=450 r=19.784212614390295 stroke=""none"" stroke-width=""1.5"" fill=""none"" />
    <circle cx=498.52 cy=387.52738427478545 r=19.784212614390295 stroke=""none"" stroke-width=""1.5"" fill=""none"" />
    <polygon points = ""498.52,450 504.0852000873649,430.2157873856097 492.95479991263505,430.2157873856097"" stroke=""none"" stroke-width=""3"" fill = ""none"" />
    
    </svg>
    </div>
        ",,,,,,,,,,,,,,,,,,,,,,,,,,,,,,26
68,html-keyboard-response,68,320636,0.0-68.0,,,,"
    <div style="" display: block;  position: relative;"">
    <svg width=1440 height=900>
    
    <circle cx=657 cy=450 r=13.848948830073207 stroke=""black"" stroke-width=""1"" fill=""black"" />
    <circle cx=498.52 cy=450 r=19.784212614390295 stroke=""black"" stroke-width=""1.5"" fill=""none"" />
    <circle cx=555.3132870229223 cy=450 r=19.784212614390295 stroke=""black"" stroke-width=""1.5"" fill=""none"" />
    <circle cx=498.52 cy=506.7932870229223 r=19.784212614390295 stroke=""black"" stroke-width=""1.5"" fill=""none"" />
    <circle cx=441.7267129770777 cy=450 r=19.784212614390295 stroke=""black"" stroke-width=""1.5"" fill=""none"" />
    <circle cx=498.52 cy=393.2067129770777 r=19.784212614390295 stroke=""black"" stroke-width=""1.5"" fill=""none"" />
    <polygon points = ""498.52,450 504.0852000873649,430.2157873856097 492.95479991263505,430.2157873856097"" stroke=""white"" stroke-width=""3"" fill = ""white"" />
    
    </svg>
    </div>
        ",,,,,,,,,,,,stimulus,,,,,,,,,,,,,,,,,,26
69,html-keyboard-response,69,321475,0.0-69.0,837.6999999284744,arrowup,,"
    <div style="" display: block;  position: relative;"">
    
    <svg width=1440 height=900>
    <circle cx=657 cy=450 r=13.848948830073207 stroke=""black"" stroke-width=""1"" fill=""black"" />
    <circle cx=555.3132870229223 cy=450 r=19.784212614390295 stroke=""none"" stroke-width=""1.5"" fill=""none"" />
    <circle cx=498.52 cy=506.7932870229223 r=19.784212614390295 stroke=""none"" stroke-width=""1.5"" fill=""none"" />
    <circle cx=441.7267129770777 cy=450 r=19.784212614390295 stroke=""none"" stroke-width=""1.5"" fill=""none"" />
    <circle cx=498.52 cy=393.2067129770777 r=19.784212614390295 stroke=""none"" stroke-width=""1.5"" fill=""none"" />
    <polygon points = ""498.52,450 504.0852000873649,430.2157873856097 492.95479991263505,430.2157873856097"" stroke=""none"" stroke-width=""3"" fill = ""none"" />
    
    </svg>
    </div>
        ",,,,,,,,,,,,get_response,True,8DfU9mw4w1X7oILw,,,True,True,True,158.48,4.0,516.842,56.7932870229223,1.43,1.0,0.0,,,,26
70,html-keyboard-response,70,321991,0.0-70.0,,,,"
    <div style="" display: block;  position: relative;"">
    
    <svg width=1440 height=900>
    <circle cx=657 cy=450 r=13.848948830073207 stroke=""black"" stroke-width=""1"" fill=""black"" />
    <circle cx=555.3132870229223 cy=450 r=19.784212614390295 stroke=""none"" stroke-width=""1.5"" fill=""none"" />
    <circle cx=498.52 cy=506.7932870229223 r=19.784212614390295 stroke=""none"" stroke-width=""1.5"" fill=""none"" />
    <circle cx=441.7267129770777 cy=450 r=19.784212614390295 stroke=""none"" stroke-width=""1.5"" fill=""none"" />
    <circle cx=498.52 cy=393.2067129770777 r=19.784212614390295 stroke=""none"" stroke-width=""1.5"" fill=""none"" />
    <polygon points = ""498.52,450 504.0852000873649,430.2157873856097 492.95479991263505,430.2157873856097"" stroke=""none"" stroke-width=""3"" fill = ""none"" />
    
    </svg>
    </div>
        ",,,,,,,,,,,,,,,,,,,,,,,,,,,,,,26
71,html-keyboard-response,71,322147,0.0-71.0,,,,"
    <div style="" display: block;  position: relative;"">
    <svg width=1440 height=900>
    
    <circle cx=657 cy=450 r=13.848948830073207 stroke=""black"" stroke-width=""1"" fill=""black"" />
    <circle cx=498.52 cy=450 r=19.784212614390295 stroke=""black"" stroke-width=""1.5"" fill=""none"" />
    <circle cx=550.1502609299293 cy=450 r=19.784212614390295 stroke=""black"" stroke-width=""1.5"" fill=""none"" />
    <circle cx=498.52 cy=501.63026092992936 r=19.784212614390295 stroke=""black"" stroke-width=""1.5"" fill=""none"" />
    <circle cx=446.8897390700706 cy=450 r=19.784212614390295 stroke=""black"" stroke-width=""1.5"" fill=""none"" />
    <circle cx=498.52 cy=398.36973907007064 r=19.784212614390295 stroke=""black"" stroke-width=""1.5"" fill=""none"" />
    <polygon points = ""498.52,450 504.0852000873649,430.2157873856097 492.95479991263505,430.2157873856097"" stroke=""white"" stroke-width=""3"" fill = ""white"" />
    
    </svg>
    </div>
        ",,,,,,,,,,,,stimulus,,,,,,,,,,,,,,,,,,26
72,html-keyboard-response,72,323107,0.0-72.0,958.7000000476836,arrowup,,"
    <div style="" display: block;  position: relative;"">
    
    <svg width=1440 height=900>
    <circle cx=657 cy=450 r=13.848948830073207 stroke=""black"" stroke-width=""1"" fill=""black"" />
    <circle cx=550.1502609299293 cy=450 r=19.784212614390295 stroke=""none"" stroke-width=""1.5"" fill=""none"" />
    <circle cx=498.52 cy=501.63026092992936 r=19.784212614390295 stroke=""none"" stroke-width=""1.5"" fill=""none"" />
    <circle cx=446.8897390700706 cy=450 r=19.784212614390295 stroke=""none"" stroke-width=""1.5"" fill=""none"" />
    <circle cx=498.52 cy=398.36973907007064 r=19.784212614390295 stroke=""none"" stroke-width=""1.5"" fill=""none"" />
    <polygon points = ""498.52,450 504.0852000873649,430.2157873856097 492.95479991263505,430.2157873856097"" stroke=""none"" stroke-width=""3"" fill = ""none"" />
    
    </svg>
    </div>
        ",,,,,,,,,,,,get_response,True,8DfU9mw4w1X7oILw,,,True,True,True,158.48,4.0,516.842,51.63026092992936,1.3,1.0,0.0,,,,26
73,html-keyboard-response,73,323622,0.0-73.0,,,,"
    <div style="" display: block;  position: relative;"">
    
    <svg width=1440 height=900>
    <circle cx=657 cy=450 r=13.848948830073207 stroke=""black"" stroke-width=""1"" fill=""black"" />
    <circle cx=550.1502609299293 cy=450 r=19.784212614390295 stroke=""none"" stroke-width=""1.5"" fill=""none"" />
    <circle cx=498.52 cy=501.63026092992936 r=19.784212614390295 stroke=""none"" stroke-width=""1.5"" fill=""none"" />
    <circle cx=446.8897390700706 cy=450 r=19.784212614390295 stroke=""none"" stroke-width=""1.5"" fill=""none"" />
    <circle cx=498.52 cy=398.36973907007064 r=19.784212614390295 stroke=""none"" stroke-width=""1.5"" fill=""none"" />
    <polygon points = ""498.52,450 504.0852000873649,430.2157873856097 492.95479991263505,430.2157873856097"" stroke=""none"" stroke-width=""3"" fill = ""none"" />
    
    </svg>
    </div>
        ",,,,,,,,,,,,,,,,,,,,,,,,,,,,,,26
74,html-keyboard-response,74,323777,0.0-74.0,,,,"
    <div style="" display: block;  position: relative;"">
    <svg width=1440 height=900>
    
    <circle cx=657 cy=450 r=13.848948830073207 stroke=""black"" stroke-width=""1"" fill=""black"" />
    <circle cx=498.52 cy=450 r=19.784212614390295 stroke=""black"" stroke-width=""1.5"" fill=""none"" />
    <circle cx=545.4566008453903 cy=450 r=19.784212614390295 stroke=""black"" stroke-width=""1.5"" fill=""none"" />
    <circle cx=498.52 cy=496.93660084539033 r=19.784212614390295 stroke=""black"" stroke-width=""1.5"" fill=""none"" />
    <circle cx=451.58339915460965 cy=450 r=19.784212614390295 stroke=""black"" stroke-width=""1.5"" fill=""none"" />
    <circle cx=498.52 cy=403.06339915460967 r=19.784212614390295 stroke=""black"" stroke-width=""1.5"" fill=""none"" />
    <polygon points = ""498.52,450 504.0852000873649,469.7842126143903 492.95479991263505,469.7842126143903"" stroke=""white"" stroke-width=""3"" fill = ""white"" />
    
    </svg>
    </div>
        ",,,,,,,,,,,,stimulus,,,,,,,,,,,,,,,,,,26
75,html-keyboard-response,75,324339,0.0-75.0,560.4000000953674,arrowdown,,"
    <div style="" display: block;  position: relative;"">
    
    <svg width=1440 height=900>
    <circle cx=657 cy=450 r=13.848948830073207 stroke=""black"" stroke-width=""1"" fill=""black"" />
    <circle cx=545.4566008453903 cy=450 r=19.784212614390295 stroke=""none"" stroke-width=""1.5"" fill=""none"" />
    <circle cx=498.52 cy=496.93660084539033 r=19.784212614390295 stroke=""none"" stroke-width=""1.5"" fill=""none"" />
    <circle cx=451.58339915460965 cy=450 r=19.784212614390295 stroke=""none"" stroke-width=""1.5"" fill=""none"" />
    <circle cx=498.52 cy=403.06339915460967 r=19.784212614390295 stroke=""none"" stroke-width=""1.5"" fill=""none"" />
    <polygon points = ""498.52,450 504.0852000873649,469.7842126143903 492.95479991263505,469.7842126143903"" stroke=""none"" stroke-width=""3"" fill = ""none"" />
    
    </svg>
    </div>
        ",,,,,,,,,,,,get_response,True,8DfU9mw4w1X7oILw,,,True,False,True,158.48,4.0,516.842,46.93660084539032,1.18,1.0,0.0,,,,26
76,html-keyboard-response,76,324846,0.0-76.0,,,,"
    <div style="" display: block;  position: relative;"">
    
    <svg width=1440 height=900>
    <circle cx=657 cy=450 r=13.848948830073207 stroke=""black"" stroke-width=""1"" fill=""black"" />
    <circle cx=545.4566008453903 cy=450 r=19.784212614390295 stroke=""none"" stroke-width=""1.5"" fill=""none"" />
    <circle cx=498.52 cy=496.93660084539033 r=19.784212614390295 stroke=""none"" stroke-width=""1.5"" fill=""none"" />
    <circle cx=451.58339915460965 cy=450 r=19.784212614390295 stroke=""none"" stroke-width=""1.5"" fill=""none"" />
    <circle cx=498.52 cy=403.06339915460967 r=19.784212614390295 stroke=""none"" stroke-width=""1.5"" fill=""none"" />
    <polygon points = ""498.52,450 504.0852000873649,469.7842126143903 492.95479991263505,469.7842126143903"" stroke=""none"" stroke-width=""3"" fill = ""none"" />
    
    </svg>
    </div>
        ",,,,,,,,,,,,,,,,,,,,,,,,,,,,,,26
77,html-keyboard-response,77,325004,0.0-77.0,,,,"
    <div style="" display: block;  position: relative;"">
    <svg width=1440 height=900>
    
    <circle cx=657 cy=450 r=13.848948830073207 stroke=""black"" stroke-width=""1"" fill=""black"" />
    <circle cx=498.52 cy=450 r=19.784212614390295 stroke=""black"" stroke-width=""1.5"" fill=""none"" />
    <circle cx=541.189637132173 cy=450 r=19.784212614390295 stroke=""black"" stroke-width=""1.5"" fill=""none"" />
    <circle cx=498.52 cy=492.669637132173 r=19.784212614390295 stroke=""black"" stroke-width=""1.5"" fill=""none"" />
    <circle cx=455.85036286782696 cy=450 r=19.784212614390295 stroke=""black"" stroke-width=""1.5"" fill=""none"" />
    <circle cx=498.52 cy=407.330362867827 r=19.784212614390295 stroke=""black"" stroke-width=""1.5"" fill=""none"" />
    <polygon points = ""498.52,450 504.0852000873649,469.7842126143903 492.95479991263505,469.7842126143903"" stroke=""white"" stroke-width=""3"" fill = ""white"" />
    
    </svg>
    </div>
        ",,,,,,,,,,,,stimulus,,,,,,,,,,,,,,,,,,26
78,html-keyboard-response,78,325947,0.0-78.0,941.2000000476836,arrowup,,"
    <div style="" display: block;  position: relative;"">
    
    <svg width=1440 height=900>
    <circle cx=657 cy=450 r=13.848948830073207 stroke=""black"" stroke-width=""1"" fill=""black"" />
    <circle cx=541.189637132173 cy=450 r=19.784212614390295 stroke=""none"" stroke-width=""1.5"" fill=""none"" />
    <circle cx=498.52 cy=492.669637132173 r=19.784212614390295 stroke=""none"" stroke-width=""1.5"" fill=""none"" />
    <circle cx=455.85036286782696 cy=450 r=19.784212614390295 stroke=""none"" stroke-width=""1.5"" fill=""none"" />
    <circle cx=498.52 cy=407.330362867827 r=19.784212614390295 stroke=""none"" stroke-width=""1.5"" fill=""none"" />
    <polygon points = ""498.52,450 504.0852000873649,469.7842126143903 492.95479991263505,469.7842126143903"" stroke=""none"" stroke-width=""3"" fill = ""none"" />
    
    </svg>
    </div>
        ",,,,,,,,,,,,get_response,False,8DfU9mw4w1X7oILw,,,True,False,True,158.48,4.0,516.842,42.669637132173015,1.08,1.0,0.0,,,,26
79,html-keyboard-response,79,326463,0.0-79.0,,,,"
    <div style="" display: block;  position: relative;"">
    
    <svg width=1440 height=900>
    <circle cx=657 cy=450 r=13.848948830073207 stroke=""black"" stroke-width=""1"" fill=""black"" />
    <circle cx=541.189637132173 cy=450 r=19.784212614390295 stroke=""none"" stroke-width=""1.5"" fill=""none"" />
    <circle cx=498.52 cy=492.669637132173 r=19.784212614390295 stroke=""none"" stroke-width=""1.5"" fill=""none"" />
    <circle cx=455.85036286782696 cy=450 r=19.784212614390295 stroke=""none"" stroke-width=""1.5"" fill=""none"" />
    <circle cx=498.52 cy=407.330362867827 r=19.784212614390295 stroke=""none"" stroke-width=""1.5"" fill=""none"" />
    <polygon points = ""498.52,450 504.0852000873649,469.7842126143903 492.95479991263505,469.7842126143903"" stroke=""none"" stroke-width=""3"" fill = ""none"" />
    
    </svg>
    </div>
        ",,,,,,,,,,,,,,,,,,,,,,,,,,,,,,26
80,html-keyboard-response,80,326618,0.0-80.0,,,,"
    <div style="" display: block;  position: relative;"">
    <svg width=1440 height=900>
    
    <circle cx=657 cy=450 r=13.848948830073207 stroke=""black"" stroke-width=""1"" fill=""black"" />
    <circle cx=498.52 cy=450 r=19.784212614390295 stroke=""black"" stroke-width=""1.5"" fill=""none"" />
    <circle cx=553.9905282718249 cy=450 r=19.784212614390295 stroke=""black"" stroke-width=""1.5"" fill=""none"" />
    <circle cx=498.52 cy=505.47052827182495 r=19.784212614390295 stroke=""black"" stroke-width=""1.5"" fill=""none"" />
    <circle cx=443.04947172817504 cy=450 r=19.784212614390295 stroke=""black"" stroke-width=""1.5"" fill=""none"" />
    <circle cx=498.52 cy=394.52947172817505 r=19.784212614390295 stroke=""black"" stroke-width=""1.5"" fill=""none"" />
    <polygon points = ""498.52,450 504.0852000873649,469.7842126143903 492.95479991263505,469.7842126143903"" stroke=""white"" stroke-width=""3"" fill = ""white"" />
    
    </svg>
    </div>
        ",,,,,,,,,,,,stimulus,,,,,,,,,,,,,,,,,,26
81,html-keyboard-response,81,327235,0.0-81.0,615.5,arrowdown,,"
    <div style="" display: block;  position: relative;"">
    
    <svg width=1440 height=900>
    <circle cx=657 cy=450 r=13.848948830073207 stroke=""black"" stroke-width=""1"" fill=""black"" />
    <circle cx=553.9905282718249 cy=450 r=19.784212614390295 stroke=""none"" stroke-width=""1.5"" fill=""none"" />
    <circle cx=498.52 cy=505.47052827182495 r=19.784212614390295 stroke=""none"" stroke-width=""1.5"" fill=""none"" />
    <circle cx=443.04947172817504 cy=450 r=19.784212614390295 stroke=""none"" stroke-width=""1.5"" fill=""none"" />
    <circle cx=498.52 cy=394.52947172817505 r=19.784212614390295 stroke=""none"" stroke-width=""1.5"" fill=""none"" />
    <polygon points = ""498.52,450 504.0852000873649,469.7842126143903 492.95479991263505,469.7842126143903"" stroke=""none"" stroke-width=""3"" fill = ""none"" />
    
    </svg>
    </div>
        ",,,,,,,,,,,,get_response,True,8DfU9mw4w1X7oILw,,,True,False,True,158.48,4.0,516.842,55.470528271824925,1.4,1.0,0.0,,,,26
82,html-keyboard-response,82,327737,0.0-82.0,,,,"
    <div style="" display: block;  position: relative;"">
    
    <svg width=1440 height=900>
    <circle cx=657 cy=450 r=13.848948830073207 stroke=""black"" stroke-width=""1"" fill=""black"" />
    <circle cx=553.9905282718249 cy=450 r=19.784212614390295 stroke=""none"" stroke-width=""1.5"" fill=""none"" />
    <circle cx=498.52 cy=505.47052827182495 r=19.784212614390295 stroke=""none"" stroke-width=""1.5"" fill=""none"" />
    <circle cx=443.04947172817504 cy=450 r=19.784212614390295 stroke=""none"" stroke-width=""1.5"" fill=""none"" />
    <circle cx=498.52 cy=394.52947172817505 r=19.784212614390295 stroke=""none"" stroke-width=""1.5"" fill=""none"" />
    <polygon points = ""498.52,450 504.0852000873649,469.7842126143903 492.95479991263505,469.7842126143903"" stroke=""none"" stroke-width=""3"" fill = ""none"" />
    
    </svg>
    </div>
        ",,,,,,,,,,,,,,,,,,,,,,,,,,,,,,26
83,html-keyboard-response,83,327892,0.0-83.0,,,,"
    <div style="" display: block;  position: relative;"">
    <svg width=1440 height=900>
    
    <circle cx=657 cy=450 r=13.848948830073207 stroke=""black"" stroke-width=""1"" fill=""black"" />
    <circle cx=498.52 cy=450 r=19.784212614390295 stroke=""black"" stroke-width=""1.5"" fill=""none"" />
    <circle cx=553.9905282718249 cy=450 r=19.784212614390295 stroke=""black"" stroke-width=""1.5"" fill=""none"" />
    <circle cx=498.52 cy=505.47052827182495 r=19.784212614390295 stroke=""black"" stroke-width=""1.5"" fill=""none"" />
    <circle cx=443.04947172817504 cy=450 r=19.784212614390295 stroke=""black"" stroke-width=""1.5"" fill=""none"" />
    <circle cx=498.52 cy=394.52947172817505 r=19.784212614390295 stroke=""black"" stroke-width=""1.5"" fill=""none"" />
    <polygon points = ""498.52,450 504.0852000873649,469.7842126143903 492.95479991263505,469.7842126143903"" stroke=""white"" stroke-width=""3"" fill = ""white"" />
    
    </svg>
    </div>
        ",,,,,,,,,,,,stimulus,,,,,,,,,,,,,,,,,,26
84,html-keyboard-response,84,328523,0.0-84.0,629.6999999284744,arrowdown,,"
    <div style="" display: block;  position: relative;"">
    
    <svg width=1440 height=900>
    <circle cx=657 cy=450 r=13.848948830073207 stroke=""black"" stroke-width=""1"" fill=""black"" />
    <circle cx=553.9905282718249 cy=450 r=19.784212614390295 stroke=""none"" stroke-width=""1.5"" fill=""none"" />
    <circle cx=498.52 cy=505.47052827182495 r=19.784212614390295 stroke=""none"" stroke-width=""1.5"" fill=""none"" />
    <circle cx=443.04947172817504 cy=450 r=19.784212614390295 stroke=""none"" stroke-width=""1.5"" fill=""none"" />
    <circle cx=498.52 cy=394.52947172817505 r=19.784212614390295 stroke=""none"" stroke-width=""1.5"" fill=""none"" />
    <polygon points = ""498.52,450 504.0852000873649,469.7842126143903 492.95479991263505,469.7842126143903"" stroke=""none"" stroke-width=""3"" fill = ""none"" />
    
    </svg>
    </div>
        ",,,,,,,,,,,,get_response,True,8DfU9mw4w1X7oILw,,,True,False,True,158.48,4.0,516.842,55.470528271824925,1.4,1.0,0.0,,,,26
85,html-keyboard-response,85,329038,0.0-85.0,,,,"
    <div style="" display: block;  position: relative;"">
    
    <svg width=1440 height=900>
    <circle cx=657 cy=450 r=13.848948830073207 stroke=""black"" stroke-width=""1"" fill=""black"" />
    <circle cx=553.9905282718249 cy=450 r=19.784212614390295 stroke=""none"" stroke-width=""1.5"" fill=""none"" />
    <circle cx=498.52 cy=505.47052827182495 r=19.784212614390295 stroke=""none"" stroke-width=""1.5"" fill=""none"" />
    <circle cx=443.04947172817504 cy=450 r=19.784212614390295 stroke=""none"" stroke-width=""1.5"" fill=""none"" />
    <circle cx=498.52 cy=394.52947172817505 r=19.784212614390295 stroke=""none"" stroke-width=""1.5"" fill=""none"" />
    <polygon points = ""498.52,450 504.0852000873649,469.7842126143903 492.95479991263505,469.7842126143903"" stroke=""none"" stroke-width=""3"" fill = ""none"" />
    
    </svg>
    </div>
        ",,,,,,,,,,,,,,,,,,,,,,,,,,,,,,26
86,html-keyboard-response,86,329193,0.0-86.0,,,,"
    <div style="" display: block;  position: relative;"">
    <svg width=1440 height=900>
    
    <circle cx=657 cy=450 r=13.848948830073207 stroke=""black"" stroke-width=""1"" fill=""black"" />
    <circle cx=815.48 cy=450 r=19.784212614390295 stroke=""black"" stroke-width=""1.5"" fill=""none"" />
    <circle cx=870.950528271825 cy=450 r=19.784212614390295 stroke=""black"" stroke-width=""1.5"" fill=""none"" />
    <circle cx=815.48 cy=505.47052827182495 r=19.784212614390295 stroke=""black"" stroke-width=""1.5"" fill=""none"" />
    <circle cx=760.0094717281751 cy=450 r=19.784212614390295 stroke=""black"" stroke-width=""1.5"" fill=""none"" />
    <circle cx=815.48 cy=394.52947172817505 r=19.784212614390295 stroke=""black"" stroke-width=""1.5"" fill=""none"" />
    <polygon points = ""815.48,450 821.045200087365,430.2157873856097 809.9147999126351,430.2157873856097"" stroke=""white"" stroke-width=""3"" fill = ""white"" />
    
    </svg>
    </div>
        ",,,,,,,,,,,,stimulus,,,,,,,,,,,,,,,,,,26
87,html-keyboard-response,87,330411,0.0-87.0,1216.6999999284744,arrowdown,,"
    <div style="" display: block;  position: relative;"">
    
    <svg width=1440 height=900>
    <circle cx=657 cy=450 r=13.848948830073207 stroke=""black"" stroke-width=""1"" fill=""black"" />
    <circle cx=870.950528271825 cy=450 r=19.784212614390295 stroke=""none"" stroke-width=""1.5"" fill=""none"" />
    <circle cx=815.48 cy=505.47052827182495 r=19.784212614390295 stroke=""none"" stroke-width=""1.5"" fill=""none"" />
    <circle cx=760.0094717281751 cy=450 r=19.784212614390295 stroke=""none"" stroke-width=""1.5"" fill=""none"" />
    <circle cx=815.48 cy=394.52947172817505 r=19.784212614390295 stroke=""none"" stroke-width=""1.5"" fill=""none"" />
    <polygon points = ""815.48,450 821.045200087365,430.2157873856097 809.9147999126351,430.2157873856097"" stroke=""none"" stroke-width=""3"" fill = ""none"" />
    
    </svg>
    </div>
        ",,,,,,,,,,,,get_response,False,8DfU9mw4w1X7oILw,,,False,True,True,158.48,4.0,516.842,55.470528271824925,1.4,1.0,0.0,,,,26
88,html-keyboard-response,88,330917,0.0-88.0,,,,"
    <div style="" display: block;  position: relative;"">
    
    <svg width=1440 height=900>
    <circle cx=657 cy=450 r=13.848948830073207 stroke=""black"" stroke-width=""1"" fill=""black"" />
    <circle cx=870.950528271825 cy=450 r=19.784212614390295 stroke=""none"" stroke-width=""1.5"" fill=""none"" />
    <circle cx=815.48 cy=505.47052827182495 r=19.784212614390295 stroke=""none"" stroke-width=""1.5"" fill=""none"" />
    <circle cx=760.0094717281751 cy=450 r=19.784212614390295 stroke=""none"" stroke-width=""1.5"" fill=""none"" />
    <circle cx=815.48 cy=394.52947172817505 r=19.784212614390295 stroke=""none"" stroke-width=""1.5"" fill=""none"" />
    <polygon points = ""815.48,450 821.045200087365,430.2157873856097 809.9147999126351,430.2157873856097"" stroke=""none"" stroke-width=""3"" fill = ""none"" />
    
    </svg>
    </div>
        ",,,,,,,,,,,,,,,,,,,,,,,,,,,,,,26
89,html-keyboard-response,89,331073,0.0-89.0,,,,"
    <div style="" display: block;  position: relative;"">
    <svg width=1440 height=900>
    
    <circle cx=657 cy=450 r=13.848948830073207 stroke=""black"" stroke-width=""1"" fill=""black"" />
    <circle cx=815.48 cy=450 r=19.784212614390295 stroke=""black"" stroke-width=""1.5"" fill=""none"" />
    <circle cx=887.5916867533724 cy=450 r=19.784212614390295 stroke=""black"" stroke-width=""1.5"" fill=""none"" />
    <circle cx=815.48 cy=522.1116867533724 r=19.784212614390295 stroke=""black"" stroke-width=""1.5"" fill=""none"" />
    <circle cx=743.3683132466276 cy=450 r=19.784212614390295 stroke=""black"" stroke-width=""1.5"" fill=""none"" />
    <circle cx=815.48 cy=377.8883132466276 r=19.784212614390295 stroke=""black"" stroke-width=""1.5"" fill=""none"" />
    <polygon points = ""815.48,450 821.045200087365,469.7842126143903 809.9147999126351,469.7842126143903"" stroke=""white"" stroke-width=""3"" fill = ""white"" />
    
    </svg>
    </div>
        ",,,,,,,,,,,,stimulus,,,,,,,,,,,,,,,,,,26
90,html-keyboard-response,90,332643,0.0-90.0,1569.2999999523165,arrowdown,,"
    <div style="" display: block;  position: relative;"">
    
    <svg width=1440 height=900>
    <circle cx=657 cy=450 r=13.848948830073207 stroke=""black"" stroke-width=""1"" fill=""black"" />
    <circle cx=887.5916867533724 cy=450 r=19.784212614390295 stroke=""none"" stroke-width=""1.5"" fill=""none"" />
    <circle cx=815.48 cy=522.1116867533724 r=19.784212614390295 stroke=""none"" stroke-width=""1.5"" fill=""none"" />
    <circle cx=743.3683132466276 cy=450 r=19.784212614390295 stroke=""none"" stroke-width=""1.5"" fill=""none"" />
    <circle cx=815.48 cy=377.8883132466276 r=19.784212614390295 stroke=""none"" stroke-width=""1.5"" fill=""none"" />
    <polygon points = ""815.48,450 821.045200087365,469.7842126143903 809.9147999126351,469.7842126143903"" stroke=""none"" stroke-width=""3"" fill = ""none"" />
    
    </svg>
    </div>
        ",,,,,,,,,,,,get_response,True,8DfU9mw4w1X7oILw,,,False,False,True,158.48,4.0,516.842,72.11168675337241,1.82,1.0,0.0,,,,26
91,html-keyboard-response,91,333160,0.0-91.0,,,,"
    <div style="" display: block;  position: relative;"">
    
    <svg width=1440 height=900>
    <circle cx=657 cy=450 r=13.848948830073207 stroke=""black"" stroke-width=""1"" fill=""black"" />
    <circle cx=887.5916867533724 cy=450 r=19.784212614390295 stroke=""none"" stroke-width=""1.5"" fill=""none"" />
    <circle cx=815.48 cy=522.1116867533724 r=19.784212614390295 stroke=""none"" stroke-width=""1.5"" fill=""none"" />
    <circle cx=743.3683132466276 cy=450 r=19.784212614390295 stroke=""none"" stroke-width=""1.5"" fill=""none"" />
    <circle cx=815.48 cy=377.8883132466276 r=19.784212614390295 stroke=""none"" stroke-width=""1.5"" fill=""none"" />
    <polygon points = ""815.48,450 821.045200087365,469.7842126143903 809.9147999126351,469.7842126143903"" stroke=""none"" stroke-width=""3"" fill = ""none"" />
    
    </svg>
    </div>
        ",,,,,,,,,,,,,,,,,,,,,,,,,,,,,,26
92,html-keyboard-response,92,333317,0.0-92.0,,,,"
    <div style="" display: block;  position: relative;"">
    <svg width=1440 height=900>
    
    <circle cx=657 cy=450 r=13.848948830073207 stroke=""black"" stroke-width=""1"" fill=""black"" />
    <circle cx=498.52 cy=450 r=19.784212614390295 stroke=""black"" stroke-width=""1.5"" fill=""none"" />
    <circle cx=570.6316867533724 cy=450 r=19.784212614390295 stroke=""black"" stroke-width=""1.5"" fill=""none"" />
    <circle cx=498.52 cy=522.1116867533724 r=19.784212614390295 stroke=""black"" stroke-width=""1.5"" fill=""none"" />
    <circle cx=426.4083132466276 cy=450 r=19.784212614390295 stroke=""black"" stroke-width=""1.5"" fill=""none"" />
    <circle cx=498.52 cy=377.8883132466276 r=19.784212614390295 stroke=""black"" stroke-width=""1.5"" fill=""none"" />
    <polygon points = ""498.52,450 504.0852000873649,430.2157873856097 492.95479991263505,430.2157873856097"" stroke=""white"" stroke-width=""3"" fill = ""white"" />
    
    </svg>
    </div>
        ",,,,,,,,,,,,stimulus,,,,,,,,,,,,,,,,,,26
93,html-keyboard-response,93,334043,0.0-93.0,724.7999999523163,arrowup,,"
    <div style="" display: block;  position: relative;"">
    
    <svg width=1440 height=900>
    <circle cx=657 cy=450 r=13.848948830073207 stroke=""black"" stroke-width=""1"" fill=""black"" />
    <circle cx=570.6316867533724 cy=450 r=19.784212614390295 stroke=""none"" stroke-width=""1.5"" fill=""none"" />
    <circle cx=498.52 cy=522.1116867533724 r=19.784212614390295 stroke=""none"" stroke-width=""1.5"" fill=""none"" />
    <circle cx=426.4083132466276 cy=450 r=19.784212614390295 stroke=""none"" stroke-width=""1.5"" fill=""none"" />
    <circle cx=498.52 cy=377.8883132466276 r=19.784212614390295 stroke=""none"" stroke-width=""1.5"" fill=""none"" />
    <polygon points = ""498.52,450 504.0852000873649,430.2157873856097 492.95479991263505,430.2157873856097"" stroke=""none"" stroke-width=""3"" fill = ""none"" />
    
    </svg>
    </div>
        ",,,,,,,,,,,,get_response,True,8DfU9mw4w1X7oILw,,,True,True,True,158.48,4.0,516.842,72.11168675337241,1.82,1.0,0.0,,,,26
94,html-keyboard-response,94,334548,0.0-94.0,,,,"
    <div style="" display: block;  position: relative;"">
    
    <svg width=1440 height=900>
    <circle cx=657 cy=450 r=13.848948830073207 stroke=""black"" stroke-width=""1"" fill=""black"" />
    <circle cx=570.6316867533724 cy=450 r=19.784212614390295 stroke=""none"" stroke-width=""1.5"" fill=""none"" />
    <circle cx=498.52 cy=522.1116867533724 r=19.784212614390295 stroke=""none"" stroke-width=""1.5"" fill=""none"" />
    <circle cx=426.4083132466276 cy=450 r=19.784212614390295 stroke=""none"" stroke-width=""1.5"" fill=""none"" />
    <circle cx=498.52 cy=377.8883132466276 r=19.784212614390295 stroke=""none"" stroke-width=""1.5"" fill=""none"" />
    <polygon points = ""498.52,450 504.0852000873649,430.2157873856097 492.95479991263505,430.2157873856097"" stroke=""none"" stroke-width=""3"" fill = ""none"" />
    
    </svg>
    </div>
        ",,,,,,,,,,,,,,,,,,,,,,,,,,,,,,26
95,html-keyboard-response,95,334703,0.0-95.0,,,,"
    <div style="" display: block;  position: relative;"">
    <svg width=1440 height=900>
    
    <circle cx=657 cy=450 r=13.848948830073207 stroke=""black"" stroke-width=""1"" fill=""black"" />
    <circle cx=498.52 cy=450 r=19.784212614390295 stroke=""black"" stroke-width=""1.5"" fill=""none"" />
    <circle cx=570.6316867533724 cy=450 r=19.784212614390295 stroke=""black"" stroke-width=""1.5"" fill=""none"" />
    <circle cx=498.52 cy=522.1116867533724 r=19.784212614390295 stroke=""black"" stroke-width=""1.5"" fill=""none"" />
    <circle cx=426.4083132466276 cy=450 r=19.784212614390295 stroke=""black"" stroke-width=""1.5"" fill=""none"" />
    <circle cx=498.52 cy=377.8883132466276 r=19.784212614390295 stroke=""black"" stroke-width=""1.5"" fill=""none"" />
    <polygon points = ""498.52,450 504.0852000873649,469.7842126143903 492.95479991263505,469.7842126143903"" stroke=""white"" stroke-width=""3"" fill = ""white"" />
    
    </svg>
    </div>
        ",,,,,,,,,,,,stimulus,,,,,,,,,,,,,,,,,,26
96,html-keyboard-response,96,335243,0.0-96.0,538.8999999761581,arrowdown,,"
    <div style="" display: block;  position: relative;"">
    
    <svg width=1440 height=900>
    <circle cx=657 cy=450 r=13.848948830073207 stroke=""black"" stroke-width=""1"" fill=""black"" />
    <circle cx=570.6316867533724 cy=450 r=19.784212614390295 stroke=""none"" stroke-width=""1.5"" fill=""none"" />
    <circle cx=498.52 cy=522.1116867533724 r=19.784212614390295 stroke=""none"" stroke-width=""1.5"" fill=""none"" />
    <circle cx=426.4083132466276 cy=450 r=19.784212614390295 stroke=""none"" stroke-width=""1.5"" fill=""none"" />
    <circle cx=498.52 cy=377.8883132466276 r=19.784212614390295 stroke=""none"" stroke-width=""1.5"" fill=""none"" />
    <polygon points = ""498.52,450 504.0852000873649,469.7842126143903 492.95479991263505,469.7842126143903"" stroke=""none"" stroke-width=""3"" fill = ""none"" />
    
    </svg>
    </div>
        ",,,,,,,,,,,,get_response,True,8DfU9mw4w1X7oILw,,,True,False,True,158.48,4.0,516.842,72.11168675337241,1.82,1.0,0.0,,,,26
97,html-keyboard-response,97,335758,0.0-97.0,,,,"
    <div style="" display: block;  position: relative;"">
    
    <svg width=1440 height=900>
    <circle cx=657 cy=450 r=13.848948830073207 stroke=""black"" stroke-width=""1"" fill=""black"" />
    <circle cx=570.6316867533724 cy=450 r=19.784212614390295 stroke=""none"" stroke-width=""1.5"" fill=""none"" />
    <circle cx=498.52 cy=522.1116867533724 r=19.784212614390295 stroke=""none"" stroke-width=""1.5"" fill=""none"" />
    <circle cx=426.4083132466276 cy=450 r=19.784212614390295 stroke=""none"" stroke-width=""1.5"" fill=""none"" />
    <circle cx=498.52 cy=377.8883132466276 r=19.784212614390295 stroke=""none"" stroke-width=""1.5"" fill=""none"" />
    <polygon points = ""498.52,450 504.0852000873649,469.7842126143903 492.95479991263505,469.7842126143903"" stroke=""none"" stroke-width=""3"" fill = ""none"" />
    
    </svg>
    </div>
        ",,,,,,,,,,,,,,,,,,,,,,,,,,,,,,26
98,html-keyboard-response,98,335914,0.0-98.0,,,,"
    <div style="" display: block;  position: relative;"">
    <svg width=1440 height=900>
    
    <circle cx=657 cy=450 r=13.848948830073207 stroke=""black"" stroke-width=""1"" fill=""black"" />
    <circle cx=498.52 cy=450 r=19.784212614390295 stroke=""black"" stroke-width=""1.5"" fill=""none"" />
    <circle cx=564.0760788667021 cy=450 r=19.784212614390295 stroke=""black"" stroke-width=""1.5"" fill=""none"" />
    <circle cx=498.52 cy=515.5560788667021 r=19.784212614390295 stroke=""black"" stroke-width=""1.5"" fill=""none"" />
    <circle cx=432.9639211332978 cy=450 r=19.784212614390295 stroke=""black"" stroke-width=""1.5"" fill=""none"" />
    <circle cx=498.52 cy=384.4439211332978 r=19.784212614390295 stroke=""black"" stroke-width=""1.5"" fill=""none"" />
    <polygon points = ""498.52,450 504.0852000873649,430.2157873856097 492.95479991263505,430.2157873856097"" stroke=""white"" stroke-width=""3"" fill = ""white"" />
    
    </svg>
    </div>
        ",,,,,,,,,,,,stimulus,,,,,,,,,,,,,,,,,,26
99,html-keyboard-response,99,336467,0.0-99.0,552.1000000238419,arrowup,,"
    <div style="" display: block;  position: relative;"">
    
    <svg width=1440 height=900>
    <circle cx=657 cy=450 r=13.848948830073207 stroke=""black"" stroke-width=""1"" fill=""black"" />
    <circle cx=564.0760788667021 cy=450 r=19.784212614390295 stroke=""none"" stroke-width=""1.5"" fill=""none"" />
    <circle cx=498.52 cy=515.5560788667021 r=19.784212614390295 stroke=""none"" stroke-width=""1.5"" fill=""none"" />
    <circle cx=432.9639211332978 cy=450 r=19.784212614390295 stroke=""none"" stroke-width=""1.5"" fill=""none"" />
    <circle cx=498.52 cy=384.4439211332978 r=19.784212614390295 stroke=""none"" stroke-width=""1.5"" fill=""none"" />
    <polygon points = ""498.52,450 504.0852000873649,430.2157873856097 492.95479991263505,430.2157873856097"" stroke=""none"" stroke-width=""3"" fill = ""none"" />
    
    </svg>
    </div>
        ",,,,,,,,,,,,get_response,True,8DfU9mw4w1X7oILw,,,True,True,True,158.48,4.0,516.842,65.55607886670218,1.65,1.0,0.88,,,,26
100,html-keyboard-response,100,344931,0.0-100.0,8463.399999976158,arrowdown,,"<div id=""continue""> 
<h2 class=""bolded-blue"">Great Job! You have completed half of the study!</h2>
<p>Before you start the session 2, let&#39;s measure your viewing distance again using the virtual chinrest.</p>
<p>Please press the <b>down</b> arrow key to continue. </p>
</div>",,,,,,,,,,,,,,,,,,,,,,,,,,,,,,26
101,virtual-chinrest,101,387096,0.0-101.0,42164.40000009537,,,,,,85.6,53.98,362.0,4.23,524.95,9.322210566581909,38.83199134094773,37.08282656319875,23.176766601999216,,,,,,,,,,,,,,,,,,,26
102,html-keyboard-response,102,413849,0.0-102.0,26752.39999997616,arrowdown,,"<div><h2 class=""bolded-blue"">Alright, let&#39;s do the peripheral vision test one more time!</h2>
<p>Please do not move around and keep your eye on the <b>black dot</b> all the time. Click <b>up</b> or <b>down</b> to indicate the opening
    of the center circle. The test is difficult for everyone, so if you are not sure, just take your best guess! </p> 
    <p>Now, press the <b>down</b> arrow key to start the task when you are ready!</p></div>",,,,,,,,,,,,,,,,,,,,,,,,,,,,,,26
103,html-keyboard-response,103,414360,0.0-103.0,,,,"
    <div style="" display: block;  position: relative;"">
    
    <svg width=1440 height=900>
    <circle cx=657 cy=450 r=13.57795066721886 stroke=""black"" stroke-width=""1"" fill=""black"" />
    <circle cx=567.1860788667021 cy=450 r=19.39707238174123 stroke=""none"" stroke-width=""1.5"" fill=""none"" />
    <circle cx=501.63 cy=515.5560788667021 r=19.39707238174123 stroke=""none"" stroke-width=""1.5"" fill=""none"" />
    <circle cx=436.0739211332978 cy=450 r=19.39707238174123 stroke=""none"" stroke-width=""1.5"" fill=""none"" />
    <circle cx=501.63 cy=384.4439211332978 r=19.39707238174123 stroke=""none"" stroke-width=""1.5"" fill=""none"" />
    <polygon points = ""501.63,450 507.0862994756219,469.3970723817412 496.1737005243781,469.3970723817412"" stroke=""none"" stroke-width=""3"" fill = ""none"" />
    
    </svg>
    </div>
        ",,,,,,,,,,,,,,,,,,,,,,,,,,,,,,26
104,html-keyboard-response,104,414513,0.0-104.0,,,,"
    <div style="" display: block;  position: relative;"">
    <svg width=1440 height=900>
    
    <circle cx=657 cy=450 r=13.57795066721886 stroke=""black"" stroke-width=""1"" fill=""black"" />
    <circle cx=812.37 cy=450 r=19.39707238174123 stroke=""black"" stroke-width=""1.5"" fill=""none"" />
    <circle cx=913.3605 cy=450 r=19.39707238174123 stroke=""black"" stroke-width=""1.5"" fill=""none"" />
    <circle cx=812.37 cy=550.9905 r=19.39707238174123 stroke=""black"" stroke-width=""1.5"" fill=""none"" />
    <circle cx=711.3795 cy=450 r=19.39707238174123 stroke=""black"" stroke-width=""1.5"" fill=""none"" />
    <circle cx=812.37 cy=349.0095 r=19.39707238174123 stroke=""black"" stroke-width=""1.5"" fill=""none"" />
    <polygon points = ""812.37,450 817.8262994756219,430.6029276182588 806.9137005243781,430.6029276182588"" stroke=""white"" stroke-width=""3"" fill = ""white"" />
    
    </svg>
    </div>
        ",,,,,,,,,,,,stimulus,,,,,,,,,,,,,,,,,,26
105,html-keyboard-response,105,414817,0.0-105.0,302.90000009536743,arrowup,,"
    <div style="" display: block;  position: relative;"">
    
    <svg width=1440 height=900>
    <circle cx=657 cy=450 r=13.57795066721886 stroke=""black"" stroke-width=""1"" fill=""black"" />
    <circle cx=913.3605 cy=450 r=19.39707238174123 stroke=""none"" stroke-width=""1.5"" fill=""none"" />
    <circle cx=812.37 cy=550.9905 r=19.39707238174123 stroke=""none"" stroke-width=""1.5"" fill=""none"" />
    <circle cx=711.3795 cy=450 r=19.39707238174123 stroke=""none"" stroke-width=""1.5"" fill=""none"" />
    <circle cx=812.37 cy=349.0095 r=19.39707238174123 stroke=""none"" stroke-width=""1.5"" fill=""none"" />
