"trial_type","trial_index","time_elapsed","internal_node_id","rt","response","success","stimulus","start_time","start_time_unix","item_width_mm","item_height_mm","item_width_px","px2mm","view_dist_mm","item_width_deg","px2deg","win_width_deg","win_height_deg","trialType","correct","participantID","criticalSpacing","criticalSpacing_deg","isLeft","isUp","isEccen4","eccentricity","eccentricity_deg","viewingDistanceMean","critical_spacing","critical_spacing_deg","crowding_session","correctRate","viewDistance_1","viewDistance_2","viewDistance_3"
"pavlovia","0","6","0.0-0.0","","","","","","","","","","","","","","","","","","","","","","","","","","","","","","","","",""
"survey-text","1","5569","0.0-1.0","5513.199999999255","{""Q0"":""""}","","","","","","","","","","","","","","","","","","","","","","","","","","","","","","",""
"fullscreen","2","51051","0.0-2.0","","","true","","","","","","","","","","","","","","","","","","","","","","","","","","","","","",""
"html-keyboard-response","3","55082","0.0-3.0","4029.599999997765"," ","","<h1>Consent Form</h1>
       <p>By answering the following questions, you are participating in a study being performed by cognitive scientists in the Stanford Department of Psychology. If you have questions about this research, please contact us at stanfordpsych251@gmail.com. You must be at least 18 years old to participate. Your participation in this research is voluntary. You may decline to answer any or all of the following questions. You may decline further participation by closing the window, at any time, without adverse consequences. Your anonymity is assured; the researchers who have requested your participation will not receive any personal information about you.</p>
       <p>Press <b>any key</b> to start the experiment!</p>","","","","","","","","","","","","","","","","","","","","","","","","","","","","",""
"html-keyboard-response","4","57468","0.0-4.0","2385"," ","","<h1>Welcome to the Visual Crowding Experiment!</h1>
       <p>This test will take <b>10-12</b> minutes to complete.</p>
       <p>Press any key to start the experiment!</p>","11/30/2021, 11:54:25 PM","1638338065034","","","","","","","","","","","","","","","","","","","","","","","","","","",""
"html-keyboard-response","5","70441","0.0-5.0","12972.39999999851","arrowdown","","<div> 
<p> Before you begin this study, let&#39;s quickly test how far away you are sitting. You might know that vision tests at a doctor&#39;s practice often involve chinrests, the doctor basically asks you to sit away from a screen in a specific distance. We do this here with a <b>virtual chinrest</b>. </p>
<p> Please press the <b>down</b> arrow to continue.
</p>
</div>","","","","","","","","","","","","","","","","","","","","","","","","","","","","",""
"virtual-chinrest","6","157057","0.0-6.0","86616","","","","","","85.6","53.98","250","2.92","540.12","9.061489448675117","27.58928335303117","46.3948259772166","28.996766235760372","","","","","","","","","","","","","","","","","",""
"html-keyboard-response","7","181304","0.0-7.0","24244.900000002235","arrowdown","","
	<h2 class=""bolded-blue"">Now, you will take a peripheral vision test!</h2>
<p> 
	<b>
		<font size=""140%"">1. </font>
	</b>
	<em><b>Please use both eyes for the following task.</b></em> First, you will see a screen (like the one in the image below) showing a <b>black dot</b> in the middle of the screen, with a group of circles displayed on either the <span class=""bolded-blue"">left</span> or <span class=""bolded-blue"">right</span> of the black dot for 150 ms. <span class=""bolded-blue"">Please make sure to focus on the black dot all the time!</span>

	<div>
		<img src=""example.png"" alt=""example"" style=""border: 2px solid black"" width=""600""/> 
	</div>
	
	<b>
		<font size=""140%"">2. </font>
	</b>
	Your task is to identify whether the opening of the <b class=""bolded-blue"">center circle</b> is upward by pressing UP or downward by pressing DOWN on your keyboard. The opening of the circle will only be upward or downward, not towards left or right.

	<div>
		<img src=""arrow_keys+.png"" alt=""arrows"" style=""border: 2px solid black"" width=""600""/>
	</div>
	<br>

<p>Please press the <b>down</b> arrow key to start the <span class=""bolded-blue"">practice task</span> (this first practice task will not count toward your final results).</p>
</p>
","","","","","","","","","","","","","","","","","","","","","","","","","","","","",""
"html-keyboard-response","8","181807","0.0-8.0","null","null","","
    <div style="" display: block;  position: relative;"">
    
    <svg width=1280 height=800>
    <circle cx=577 cy=400 r=7.987761101654949 stroke=""black"" stroke-width=""1"" fill=""black"" />
    <circle cx=NaN cy=400 r=11.4110872880785 stroke=""none"" stroke-width=""1.5"" fill=""none"" />
    <circle cx=485.59000000000003 cy=NaN r=11.4110872880785 stroke=""none"" stroke-width=""1.5"" fill=""none"" />
    <circle cx=NaN cy=400 r=11.4110872880785 stroke=""none"" stroke-width=""1.5"" fill=""none"" />
    <circle cx=485.59000000000003 cy=NaN r=11.4110872880785 stroke=""none"" stroke-width=""1.5"" fill=""none"" />
    <polygon points = ""485.59000000000003,400 488.7998817987001,411.4110872880785 482.3801182013,411.4110872880785"" stroke=""none"" stroke-width=""3"" fill = ""none"" />
    
    </svg>
    </div>
        ","","","","","","","","","","","","","","","","","","","","","","","","","","","","",""
"html-keyboard-response","9","181963","0.0-9.0","null","null","","
    <div style="" display: block;  position: relative;"">
    <svg width=1280 height=800>
    
    <circle cx=577 cy=400 r=7.987761101654949 stroke=""black"" stroke-width=""1"" fill=""black"" />
    <circle cx=485.59000000000003 cy=400 r=11.4110872880785 stroke=""black"" stroke-width=""1.5"" fill=""none"" />
    <circle cx=545.0065000000001 cy=400 r=11.4110872880785 stroke=""black"" stroke-width=""1.5"" fill=""none"" />
    <circle cx=485.59000000000003 cy=459.4165 r=11.4110872880785 stroke=""black"" stroke-width=""1.5"" fill=""none"" />
    <circle cx=426.17350000000005 cy=400 r=11.4110872880785 stroke=""black"" stroke-width=""1.5"" fill=""none"" />
    <circle cx=485.59000000000003 cy=340.5835 r=11.4110872880785 stroke=""black"" stroke-width=""1.5"" fill=""none"" />
    <polygon points = ""485.59000000000003,400 488.7998817987001,411.4110872880785 482.3801182013,411.4110872880785"" stroke=""white"" stroke-width=""3"" fill = ""white"" />
    
    </svg>
    </div>
        ","","","","","","","","","","","","stimulus","","","","","","","","","","","","","","","","",""
"html-keyboard-response","10","188992","0.0-10.0","7028","arrowdown","","
    <div style="" display: block;  position: relative;"">
    
    <svg width=1280 height=800>
    <circle cx=577 cy=400 r=7.987761101654949 stroke=""black"" stroke-width=""1"" fill=""black"" />
    <circle cx=545.0065000000001 cy=400 r=11.4110872880785 stroke=""none"" stroke-width=""1.5"" fill=""none"" />
    <circle cx=485.59000000000003 cy=459.4165 r=11.4110872880785 stroke=""none"" stroke-width=""1.5"" fill=""none"" />
    <circle cx=426.17350000000005 cy=400 r=11.4110872880785 stroke=""none"" stroke-width=""1.5"" fill=""none"" />
    <circle cx=485.59000000000003 cy=340.5835 r=11.4110872880785 stroke=""none"" stroke-width=""1.5"" fill=""none"" />
    <polygon points = ""485.59000000000003,400 488.7998817987001,411.4110872880785 482.3801182013,411.4110872880785"" stroke=""none"" stroke-width=""3"" fill = ""none"" />
    
    </svg>
    </div>
        ","","","","","","","","","","","","practice_get_response","true","aqgAqqtujyVpu9RL","59.4165","2.6","true","false","true","91.41","4","449.196","","","","","","",""
"html-keyboard-response","11","189495","0.0-11.0","null","null","","
    <div style="" display: block;  position: relative;"">
    
    <svg width=1280 height=800>
    <circle cx=577 cy=400 r=7.987761101654949 stroke=""black"" stroke-width=""1"" fill=""black"" />
    <circle cx=545.0065000000001 cy=400 r=11.4110872880785 stroke=""none"" stroke-width=""1.5"" fill=""none"" />
    <circle cx=485.59000000000003 cy=459.4165 r=11.4110872880785 stroke=""none"" stroke-width=""1.5"" fill=""none"" />
    <circle cx=426.17350000000005 cy=400 r=11.4110872880785 stroke=""none"" stroke-width=""1.5"" fill=""none"" />
    <circle cx=485.59000000000003 cy=340.5835 r=11.4110872880785 stroke=""none"" stroke-width=""1.5"" fill=""none"" />
    <polygon points = ""485.59000000000003,400 488.7998817987001,411.4110872880785 482.3801182013,411.4110872880785"" stroke=""none"" stroke-width=""3"" fill = ""none"" />
    
    </svg>
    </div>
        ","","","","","","","","","","","","","","","","","","","","","","","","","","","","",""
"html-keyboard-response","12","189647","0.0-12.0","null","null","","
    <div style="" display: block;  position: relative;"">
    <svg width=1280 height=800>
    
    <circle cx=577 cy=400 r=7.987761101654949 stroke=""black"" stroke-width=""1"" fill=""black"" />
    <circle cx=668.41 cy=400 r=11.4110872880785 stroke=""black"" stroke-width=""1.5"" fill=""none"" />
    <circle cx=727.8265 cy=400 r=11.4110872880785 stroke=""black"" stroke-width=""1.5"" fill=""none"" />
    <circle cx=668.41 cy=459.4165 r=11.4110872880785 stroke=""black"" stroke-width=""1.5"" fill=""none"" />
    <circle cx=608.9934999999999 cy=400 r=11.4110872880785 stroke=""black"" stroke-width=""1.5"" fill=""none"" />
    <circle cx=668.41 cy=340.5835 r=11.4110872880785 stroke=""black"" stroke-width=""1.5"" fill=""none"" />
    <polygon points = ""668.41,400 671.6198817987,388.5889127119215 665.2001182012999,388.5889127119215"" stroke=""white"" stroke-width=""3"" fill = ""white"" />
    
    </svg>
    </div>
        ","","","","","","","","","","","","stimulus","","","","","","","","","","","","","","","","",""
"html-keyboard-response","13","190381","0.0-13.0","733.1000000014901","arrowup","","
    <div style="" display: block;  position: relative;"">
    
    <svg width=1280 height=800>
    <circle cx=577 cy=400 r=7.987761101654949 stroke=""black"" stroke-width=""1"" fill=""black"" />
    <circle cx=727.8265 cy=400 r=11.4110872880785 stroke=""none"" stroke-width=""1.5"" fill=""none"" />
    <circle cx=668.41 cy=459.4165 r=11.4110872880785 stroke=""none"" stroke-width=""1.5"" fill=""none"" />
    <circle cx=608.9934999999999 cy=400 r=11.4110872880785 stroke=""none"" stroke-width=""1.5"" fill=""none"" />
    <circle cx=668.41 cy=340.5835 r=11.4110872880785 stroke=""none"" stroke-width=""1.5"" fill=""none"" />
    <polygon points = ""668.41,400 671.6198817987,388.5889127119215 665.2001182012999,388.5889127119215"" stroke=""none"" stroke-width=""3"" fill = ""none"" />
    
    </svg>
    </div>
        ","","","","","","","","","","","","practice_get_response","true","aqgAqqtujyVpu9RL","59.4165","2.6","false","true","true","91.41","4","449.196","","","","","","",""
"html-keyboard-response","14","190885","0.0-14.0","null","null","","
    <div style="" display: block;  position: relative;"">
    
    <svg width=1280 height=800>
    <circle cx=577 cy=400 r=7.987761101654949 stroke=""black"" stroke-width=""1"" fill=""black"" />
    <circle cx=727.8265 cy=400 r=11.4110872880785 stroke=""none"" stroke-width=""1.5"" fill=""none"" />
    <circle cx=668.41 cy=459.4165 r=11.4110872880785 stroke=""none"" stroke-width=""1.5"" fill=""none"" />
    <circle cx=608.9934999999999 cy=400 r=11.4110872880785 stroke=""none"" stroke-width=""1.5"" fill=""none"" />
    <circle cx=668.41 cy=340.5835 r=11.4110872880785 stroke=""none"" stroke-width=""1.5"" fill=""none"" />
    <polygon points = ""668.41,400 671.6198817987,388.5889127119215 665.2001182012999,388.5889127119215"" stroke=""none"" stroke-width=""3"" fill = ""none"" />
    
    </svg>
    </div>
        ","","","","","","","","","","","","","","","","","","","","","","","","","","","","",""
"html-keyboard-response","15","191039","0.0-15.0","null","null","","
    <div style="" display: block;  position: relative;"">
    <svg width=1280 height=800>
    
    <circle cx=577 cy=400 r=7.987761101654949 stroke=""black"" stroke-width=""1"" fill=""black"" />
    <circle cx=485.59000000000003 cy=400 r=11.4110872880785 stroke=""black"" stroke-width=""1.5"" fill=""none"" />
    <circle cx=545.0065000000001 cy=400 r=11.4110872880785 stroke=""black"" stroke-width=""1.5"" fill=""none"" />
    <circle cx=485.59000000000003 cy=459.4165 r=11.4110872880785 stroke=""black"" stroke-width=""1.5"" fill=""none"" />
    <circle cx=426.17350000000005 cy=400 r=11.4110872880785 stroke=""black"" stroke-width=""1.5"" fill=""none"" />
    <circle cx=485.59000000000003 cy=340.5835 r=11.4110872880785 stroke=""black"" stroke-width=""1.5"" fill=""none"" />
    <polygon points = ""485.59000000000003,400 488.7998817987001,411.4110872880785 482.3801182013,411.4110872880785"" stroke=""white"" stroke-width=""3"" fill = ""white"" />
    
    </svg>
    </div>
        ","","","","","","","","","","","","stimulus","","","","","","","","","","","","","","","","",""
"html-keyboard-response","16","191493","0.0-16.0","452.70000000298023","arrowdown","","
    <div style="" display: block;  position: relative;"">
    
    <svg width=1280 height=800>
    <circle cx=577 cy=400 r=7.987761101654949 stroke=""black"" stroke-width=""1"" fill=""black"" />
    <circle cx=545.0065000000001 cy=400 r=11.4110872880785 stroke=""none"" stroke-width=""1.5"" fill=""none"" />
    <circle cx=485.59000000000003 cy=459.4165 r=11.4110872880785 stroke=""none"" stroke-width=""1.5"" fill=""none"" />
    <circle cx=426.17350000000005 cy=400 r=11.4110872880785 stroke=""none"" stroke-width=""1.5"" fill=""none"" />
    <circle cx=485.59000000000003 cy=340.5835 r=11.4110872880785 stroke=""none"" stroke-width=""1.5"" fill=""none"" />
    <polygon points = ""485.59000000000003,400 488.7998817987001,411.4110872880785 482.3801182013,411.4110872880785"" stroke=""none"" stroke-width=""3"" fill = ""none"" />
    
    </svg>
    </div>
        ","","","","","","","","","","","","practice_get_response","true","aqgAqqtujyVpu9RL","59.4165","2.6","true","false","true","91.41","4","449.196","","","","","","",""
"html-keyboard-response","17","191996","0.0-17.0","null","null","","
    <div style="" display: block;  position: relative;"">
    
    <svg width=1280 height=800>
    <circle cx=577 cy=400 r=7.987761101654949 stroke=""black"" stroke-width=""1"" fill=""black"" />
    <circle cx=545.0065000000001 cy=400 r=11.4110872880785 stroke=""none"" stroke-width=""1.5"" fill=""none"" />
    <circle cx=485.59000000000003 cy=459.4165 r=11.4110872880785 stroke=""none"" stroke-width=""1.5"" fill=""none"" />
    <circle cx=426.17350000000005 cy=400 r=11.4110872880785 stroke=""none"" stroke-width=""1.5"" fill=""none"" />
    <circle cx=485.59000000000003 cy=340.5835 r=11.4110872880785 stroke=""none"" stroke-width=""1.5"" fill=""none"" />
    <polygon points = ""485.59000000000003,400 488.7998817987001,411.4110872880785 482.3801182013,411.4110872880785"" stroke=""none"" stroke-width=""3"" fill = ""none"" />
    
    </svg>
    </div>
        ","","","","","","","","","","","","","","","","","","","","","","","","","","","","",""
"html-keyboard-response","18","192152","0.0-18.0","null","null","","
    <div style="" display: block;  position: relative;"">
    <svg width=1280 height=800>
    
    <circle cx=577 cy=400 r=7.987761101654949 stroke=""black"" stroke-width=""1"" fill=""black"" />
    <circle cx=668.41 cy=400 r=11.4110872880785 stroke=""black"" stroke-width=""1.5"" fill=""none"" />
    <circle cx=722.425 cy=400 r=11.4110872880785 stroke=""black"" stroke-width=""1.5"" fill=""none"" />
    <circle cx=668.41 cy=454.015 r=11.4110872880785 stroke=""black"" stroke-width=""1.5"" fill=""none"" />
    <circle cx=614.395 cy=400 r=11.4110872880785 stroke=""black"" stroke-width=""1.5"" fill=""none"" />
    <circle cx=668.41 cy=345.985 r=11.4110872880785 stroke=""black"" stroke-width=""1.5"" fill=""none"" />
    <polygon points = ""668.41,400 671.6198817987,388.5889127119215 665.2001182012999,388.5889127119215"" stroke=""white"" stroke-width=""3"" fill = ""white"" />
    
    </svg>
    </div>
        ","","","","","","","","","","","","stimulus","","","","","","","","","","","","","","","","",""
"html-keyboard-response","19","192597","0.0-19.0","443.80000000074506","arrowup","","
    <div style="" display: block;  position: relative;"">
    
    <svg width=1280 height=800>
    <circle cx=577 cy=400 r=7.987761101654949 stroke=""black"" stroke-width=""1"" fill=""black"" />
    <circle cx=722.425 cy=400 r=11.4110872880785 stroke=""none"" stroke-width=""1.5"" fill=""none"" />
    <circle cx=668.41 cy=454.015 r=11.4110872880785 stroke=""none"" stroke-width=""1.5"" fill=""none"" />
    <circle cx=614.395 cy=400 r=11.4110872880785 stroke=""none"" stroke-width=""1.5"" fill=""none"" />
    <circle cx=668.41 cy=345.985 r=11.4110872880785 stroke=""none"" stroke-width=""1.5"" fill=""none"" />
    <polygon points = ""668.41,400 671.6198817987,388.5889127119215 665.2001182012999,388.5889127119215"" stroke=""none"" stroke-width=""3"" fill = ""none"" />
    
    </svg>
    </div>
        ","","","","","","","","","","","","practice_get_response","true","aqgAqqtujyVpu9RL","54.01499999999999","2.36","false","true","true","91.41","4","449.196","","","","","","",""
"html-keyboard-response","20","193099","0.0-20.0","null","null","","
    <div style="" display: block;  position: relative;"">
    
    <svg width=1280 height=800>
    <circle cx=577 cy=400 r=7.987761101654949 stroke=""black"" stroke-width=""1"" fill=""black"" />
    <circle cx=722.425 cy=400 r=11.4110872880785 stroke=""none"" stroke-width=""1.5"" fill=""none"" />
    <circle cx=668.41 cy=454.015 r=11.4110872880785 stroke=""none"" stroke-width=""1.5"" fill=""none"" />
    <circle cx=614.395 cy=400 r=11.4110872880785 stroke=""none"" stroke-width=""1.5"" fill=""none"" />
    <circle cx=668.41 cy=345.985 r=11.4110872880785 stroke=""none"" stroke-width=""1.5"" fill=""none"" />
    <polygon points = ""668.41,400 671.6198817987,388.5889127119215 665.2001182012999,388.5889127119215"" stroke=""none"" stroke-width=""3"" fill = ""none"" />
    
    </svg>
    </div>
        ","","","","","","","","","","","","","","","","","","","","","","","","","","","","",""
"html-keyboard-response","21","193253","0.0-21.0","null","null","","
    <div style="" display: block;  position: relative;"">
    <svg width=1280 height=800>
    
    <circle cx=577 cy=400 r=7.987761101654949 stroke=""black"" stroke-width=""1"" fill=""black"" />
    <circle cx=485.59000000000003 cy=400 r=11.4110872880785 stroke=""black"" stroke-width=""1.5"" fill=""none"" />
    <circle cx=534.6945454545455 cy=400 r=11.4110872880785 stroke=""black"" stroke-width=""1.5"" fill=""none"" />
    <circle cx=485.59000000000003 cy=449.1045454545455 r=11.4110872880785 stroke=""black"" stroke-width=""1.5"" fill=""none"" />
    <circle cx=436.48545454545456 cy=400 r=11.4110872880785 stroke=""black"" stroke-width=""1.5"" fill=""none"" />
    <circle cx=485.59000000000003 cy=350.8954545454545 r=11.4110872880785 stroke=""black"" stroke-width=""1.5"" fill=""none"" />
    <polygon points = ""485.59000000000003,400 488.7998817987001,411.4110872880785 482.3801182013,411.4110872880785"" stroke=""white"" stroke-width=""3"" fill = ""white"" />
    
    </svg>
    </div>
        ","","","","","","","","","","","","stimulus","","","","","","","","","","","","","","","","",""
"html-keyboard-response","22","193597","0.0-22.0","342.4000000022352","arrowdown","","
    <div style="" display: block;  position: relative;"">
    
    <svg width=1280 height=800>
    <circle cx=577 cy=400 r=7.987761101654949 stroke=""black"" stroke-width=""1"" fill=""black"" />
    <circle cx=534.6945454545455 cy=400 r=11.4110872880785 stroke=""none"" stroke-width=""1.5"" fill=""none"" />
    <circle cx=485.59000000000003 cy=449.1045454545455 r=11.4110872880785 stroke=""none"" stroke-width=""1.5"" fill=""none"" />
    <circle cx=436.48545454545456 cy=400 r=11.4110872880785 stroke=""none"" stroke-width=""1.5"" fill=""none"" />
    <circle cx=485.59000000000003 cy=350.8954545454545 r=11.4110872880785 stroke=""none"" stroke-width=""1.5"" fill=""none"" />
    <polygon points = ""485.59000000000003,400 488.7998817987001,411.4110872880785 482.3801182013,411.4110872880785"" stroke=""none"" stroke-width=""3"" fill = ""none"" />
    
    </svg>
    </div>
        ","","","","","","","","","","","","practice_get_response","true","aqgAqqtujyVpu9RL","49.104545454545445","2.15","true","false","true","91.41","4","449.196","","","","","","",""
"html-keyboard-response","23","196623","0.0-23.0","3025.599999997765","arrowdown","","<div> 
<h2 class=""bolded-blue"">Well done!</h2>
<p> Now that you have the hang of it, we&#39;ll start the study. This session has 25 trials and takes about 2 minute to complete. </p> 
<p>If you are ready for the real deal, please press the <b>down</b> arrow to continue.
</p>
</div>","","","","","","","","","","","","","","","","","","","","","","","","","","","","",""
"html-keyboard-response","24","200157","0.0-24.0","3532.2000000029802","arrowdown","","<div id=""continue""> 
<p>Again, please keep the <b>full screen</b> mode for the best experience.</p>
<p>Please do not move around and keep your eye on the black dot. Click <b>up</b> or <b>down</b> key on your keyboard to indicate the opening of the center circle. Make your best guess!</p>
<p>Please press the <b>down</b> arrow key to start the session 1. </p>
</div>","","","","","","","","","","","","","","","","","","","","","","","","","","","","",""
"html-keyboard-response","25","200661","0.0-25.0","null","null","","
    <div style="" display: block;  position: relative;"">
    
    <svg width=1280 height=800>
    <circle cx=577 cy=400 r=7.987761101654949 stroke=""black"" stroke-width=""1"" fill=""black"" />
    <circle cx=534.6945454545455 cy=400 r=11.4110872880785 stroke=""none"" stroke-width=""1.5"" fill=""none"" />
    <circle cx=485.59000000000003 cy=449.1045454545455 r=11.4110872880785 stroke=""none"" stroke-width=""1.5"" fill=""none"" />
    <circle cx=436.48545454545456 cy=400 r=11.4110872880785 stroke=""none"" stroke-width=""1.5"" fill=""none"" />
    <circle cx=485.59000000000003 cy=350.8954545454545 r=11.4110872880785 stroke=""none"" stroke-width=""1.5"" fill=""none"" />
    <polygon points = ""485.59000000000003,400 488.7998817987001,411.4110872880785 482.3801182013,411.4110872880785"" stroke=""none"" stroke-width=""3"" fill = ""none"" />
    
    </svg>
    </div>
        ","","","","","","","","","","","","","","","","","","","","","","","","","","","","",""
"html-keyboard-response","26","200816","0.0-26.0","null","null","","
    <div style="" display: block;  position: relative;"">
    <svg width=1280 height=800>
    
    <circle cx=577 cy=400 r=7.987761101654949 stroke=""black"" stroke-width=""1"" fill=""black"" />
    <circle cx=485.59000000000003 cy=400 r=11.4110872880785 stroke=""black"" stroke-width=""1.5"" fill=""none"" />
    <circle cx=545.0065000000001 cy=400 r=11.4110872880785 stroke=""black"" stroke-width=""1.5"" fill=""none"" />
    <circle cx=485.59000000000003 cy=459.4165 r=11.4110872880785 stroke=""black"" stroke-width=""1.5"" fill=""none"" />
    <circle cx=426.17350000000005 cy=400 r=11.4110872880785 stroke=""black"" stroke-width=""1.5"" fill=""none"" />
    <circle cx=485.59000000000003 cy=340.5835 r=11.4110872880785 stroke=""black"" stroke-width=""1.5"" fill=""none"" />
    <polygon points = ""485.59000000000003,400 488.7998817987001,411.4110872880785 482.3801182013,411.4110872880785"" stroke=""white"" stroke-width=""3"" fill = ""white"" />
    
    </svg>
    </div>
        ","","","","","","","","","","","","stimulus","","","","","","","","","","","","","","","","",""
"html-keyboard-response","27","201271","0.0-27.0","454.3999999985099","arrowdown","","
    <div style="" display: block;  position: relative;"">
    
    <svg width=1280 height=800>
    <circle cx=577 cy=400 r=7.987761101654949 stroke=""black"" stroke-width=""1"" fill=""black"" />
    <circle cx=545.0065000000001 cy=400 r=11.4110872880785 stroke=""none"" stroke-width=""1.5"" fill=""none"" />
    <circle cx=485.59000000000003 cy=459.4165 r=11.4110872880785 stroke=""none"" stroke-width=""1.5"" fill=""none"" />
    <circle cx=426.17350000000005 cy=400 r=11.4110872880785 stroke=""none"" stroke-width=""1.5"" fill=""none"" />
    <circle cx=485.59000000000003 cy=340.5835 r=11.4110872880785 stroke=""none"" stroke-width=""1.5"" fill=""none"" />
    <polygon points = ""485.59000000000003,400 488.7998817987001,411.4110872880785 482.3801182013,411.4110872880785"" stroke=""none"" stroke-width=""3"" fill = ""none"" />
    
    </svg>
    </div>
        ","","","","","","","","","","","","get_response","true","aqgAqqtujyVpu9RL","","","true","false","true","91.41","4","449.196","59.4165","2.6","1","0","","",""
"html-keyboard-response","28","201775","0.0-28.0","null","null","","
    <div style="" display: block;  position: relative;"">
    
    <svg width=1280 height=800>
    <circle cx=577 cy=400 r=7.987761101654949 stroke=""black"" stroke-width=""1"" fill=""black"" />
    <circle cx=545.0065000000001 cy=400 r=11.4110872880785 stroke=""none"" stroke-width=""1.5"" fill=""none"" />
    <circle cx=485.59000000000003 cy=459.4165 r=11.4110872880785 stroke=""none"" stroke-width=""1.5"" fill=""none"" />
    <circle cx=426.17350000000005 cy=400 r=11.4110872880785 stroke=""none"" stroke-width=""1.5"" fill=""none"" />
    <circle cx=485.59000000000003 cy=340.5835 r=11.4110872880785 stroke=""none"" stroke-width=""1.5"" fill=""none"" />
    <polygon points = ""485.59000000000003,400 488.7998817987001,411.4110872880785 482.3801182013,411.4110872880785"" stroke=""none"" stroke-width=""3"" fill = ""none"" />
    
    </svg>
    </div>
        ","","","","","","","","","","","","","","","","","","","","","","","","","","","","",""
"html-keyboard-response","29","201931","0.0-29.0","null","null","","
    <div style="" display: block;  position: relative;"">
    <svg width=1280 height=800>
    
    <circle cx=577 cy=400 r=7.987761101654949 stroke=""black"" stroke-width=""1"" fill=""black"" />
    <circle cx=485.59000000000003 cy=400 r=11.4110872880785 stroke=""black"" stroke-width=""1.5"" fill=""none"" />
    <circle cx=545.0065000000001 cy=400 r=11.4110872880785 stroke=""black"" stroke-width=""1.5"" fill=""none"" />
    <circle cx=485.59000000000003 cy=459.4165 r=11.4110872880785 stroke=""black"" stroke-width=""1.5"" fill=""none"" />
    <circle cx=426.17350000000005 cy=400 r=11.4110872880785 stroke=""black"" stroke-width=""1.5"" fill=""none"" />
    <circle cx=485.59000000000003 cy=340.5835 r=11.4110872880785 stroke=""black"" stroke-width=""1.5"" fill=""none"" />
    <polygon points = ""485.59000000000003,400 488.7998817987001,411.4110872880785 482.3801182013,411.4110872880785"" stroke=""white"" stroke-width=""3"" fill = ""white"" />
    
    </svg>
    </div>
        ","","","","","","","","","","","","stimulus","","","","","","","","","","","","","","","","",""
"html-keyboard-response","30","202268","0.0-30.0","336.69999999925494","arrowdown","","
    <div style="" display: block;  position: relative;"">
    
    <svg width=1280 height=800>
    <circle cx=577 cy=400 r=7.987761101654949 stroke=""black"" stroke-width=""1"" fill=""black"" />
    <circle cx=545.0065000000001 cy=400 r=11.4110872880785 stroke=""none"" stroke-width=""1.5"" fill=""none"" />
    <circle cx=485.59000000000003 cy=459.4165 r=11.4110872880785 stroke=""none"" stroke-width=""1.5"" fill=""none"" />
    <circle cx=426.17350000000005 cy=400 r=11.4110872880785 stroke=""none"" stroke-width=""1.5"" fill=""none"" />
    <circle cx=485.59000000000003 cy=340.5835 r=11.4110872880785 stroke=""none"" stroke-width=""1.5"" fill=""none"" />
    <polygon points = ""485.59000000000003,400 488.7998817987001,411.4110872880785 482.3801182013,411.4110872880785"" stroke=""none"" stroke-width=""3"" fill = ""none"" />
    
    </svg>
    </div>
        ","","","","","","","","","","","","get_response","true","aqgAqqtujyVpu9RL","","","true","false","true","91.41","4","449.196","59.4165","2.6","1","0","","",""
"html-keyboard-response","31","202772","0.0-31.0","null","null","","
    <div style="" display: block;  position: relative;"">
    
    <svg width=1280 height=800>
    <circle cx=577 cy=400 r=7.987761101654949 stroke=""black"" stroke-width=""1"" fill=""black"" />
    <circle cx=545.0065000000001 cy=400 r=11.4110872880785 stroke=""none"" stroke-width=""1.5"" fill=""none"" />
    <circle cx=485.59000000000003 cy=459.4165 r=11.4110872880785 stroke=""none"" stroke-width=""1.5"" fill=""none"" />
    <circle cx=426.17350000000005 cy=400 r=11.4110872880785 stroke=""none"" stroke-width=""1.5"" fill=""none"" />
    <circle cx=485.59000000000003 cy=340.5835 r=11.4110872880785 stroke=""none"" stroke-width=""1.5"" fill=""none"" />
    <polygon points = ""485.59000000000003,400 488.7998817987001,411.4110872880785 482.3801182013,411.4110872880785"" stroke=""none"" stroke-width=""3"" fill = ""none"" />
    
    </svg>
    </div>
        ","","","","","","","","","","","","","","","","","","","","","","","","","","","","",""
"html-keyboard-response","32","202924","0.0-32.0","null","null","","
    <div style="" display: block;  position: relative;"">
    <svg width=1280 height=800>
    
    <circle cx=577 cy=400 r=7.987761101654949 stroke=""black"" stroke-width=""1"" fill=""black"" />
    <circle cx=668.41 cy=400 r=11.4110872880785 stroke=""black"" stroke-width=""1.5"" fill=""none"" />
    <circle cx=727.8265 cy=400 r=11.4110872880785 stroke=""black"" stroke-width=""1.5"" fill=""none"" />
    <circle cx=668.41 cy=459.4165 r=11.4110872880785 stroke=""black"" stroke-width=""1.5"" fill=""none"" />
    <circle cx=608.9934999999999 cy=400 r=11.4110872880785 stroke=""black"" stroke-width=""1.5"" fill=""none"" />
    <circle cx=668.41 cy=340.5835 r=11.4110872880785 stroke=""black"" stroke-width=""1.5"" fill=""none"" />
    <polygon points = ""668.41,400 671.6198817987,388.5889127119215 665.2001182012999,388.5889127119215"" stroke=""white"" stroke-width=""3"" fill = ""white"" />
    
    </svg>
    </div>
        ","","","","","","","","","","","","stimulus","","","","","","","","","","","","","","","","",""
"html-keyboard-response","33","203268","0.0-33.0","343.6000000014901","arrowup","","
    <div style="" display: block;  position: relative;"">
    
    <svg width=1280 height=800>
    <circle cx=577 cy=400 r=7.987761101654949 stroke=""black"" stroke-width=""1"" fill=""black"" />
    <circle cx=727.8265 cy=400 r=11.4110872880785 stroke=""none"" stroke-width=""1.5"" fill=""none"" />
    <circle cx=668.41 cy=459.4165 r=11.4110872880785 stroke=""none"" stroke-width=""1.5"" fill=""none"" />
    <circle cx=608.9934999999999 cy=400 r=11.4110872880785 stroke=""none"" stroke-width=""1.5"" fill=""none"" />
    <circle cx=668.41 cy=340.5835 r=11.4110872880785 stroke=""none"" stroke-width=""1.5"" fill=""none"" />
    <polygon points = ""668.41,400 671.6198817987,388.5889127119215 665.2001182012999,388.5889127119215"" stroke=""none"" stroke-width=""3"" fill = ""none"" />
    
    </svg>
    </div>
        ","","","","","","","","","","","","get_response","true","aqgAqqtujyVpu9RL","","","false","true","true","91.41","4","449.196","59.4165","2.6","1","0","","",""
"html-keyboard-response","34","203773","0.0-34.0","null","null","","
    <div style="" display: block;  position: relative;"">
    
    <svg width=1280 height=800>
    <circle cx=577 cy=400 r=7.987761101654949 stroke=""black"" stroke-width=""1"" fill=""black"" />
    <circle cx=727.8265 cy=400 r=11.4110872880785 stroke=""none"" stroke-width=""1.5"" fill=""none"" />
    <circle cx=668.41 cy=459.4165 r=11.4110872880785 stroke=""none"" stroke-width=""1.5"" fill=""none"" />
    <circle cx=608.9934999999999 cy=400 r=11.4110872880785 stroke=""none"" stroke-width=""1.5"" fill=""none"" />
    <circle cx=668.41 cy=340.5835 r=11.4110872880785 stroke=""none"" stroke-width=""1.5"" fill=""none"" />
    <polygon points = ""668.41,400 671.6198817987,388.5889127119215 665.2001182012999,388.5889127119215"" stroke=""none"" stroke-width=""3"" fill = ""none"" />
    
    </svg>
    </div>
        ","","","","","","","","","","","","","","","","","","","","","","","","","","","","",""
"html-keyboard-response","35","203927","0.0-35.0","null","null","","
    <div style="" display: block;  position: relative;"">
    <svg width=1280 height=800>
    
    <circle cx=577 cy=400 r=7.987761101654949 stroke=""black"" stroke-width=""1"" fill=""black"" />
    <circle cx=485.59000000000003 cy=400 r=11.4110872880785 stroke=""black"" stroke-width=""1.5"" fill=""none"" />
    <circle cx=539.605 cy=400 r=11.4110872880785 stroke=""black"" stroke-width=""1.5"" fill=""none"" />
    <circle cx=485.59000000000003 cy=454.015 r=11.4110872880785 stroke=""black"" stroke-width=""1.5"" fill=""none"" />
    <circle cx=431.57500000000005 cy=400 r=11.4110872880785 stroke=""black"" stroke-width=""1.5"" fill=""none"" />
    <circle cx=485.59000000000003 cy=345.985 r=11.4110872880785 stroke=""black"" stroke-width=""1.5"" fill=""none"" />
    <polygon points = ""485.59000000000003,400 488.7998817987001,388.5889127119215 482.3801182013,388.5889127119215"" stroke=""white"" stroke-width=""3"" fill = ""white"" />
    
    </svg>
    </div>
        ","","","","","","","","","","","","stimulus","","","","","","","","","","","","","","","","",""
"html-keyboard-response","36","204271","0.0-36.0","342.3999999985099","arrowup","","
    <div style="" display: block;  position: relative;"">
    
    <svg width=1280 height=800>
    <circle cx=577 cy=400 r=7.987761101654949 stroke=""black"" stroke-width=""1"" fill=""black"" />
    <circle cx=539.605 cy=400 r=11.4110872880785 stroke=""none"" stroke-width=""1.5"" fill=""none"" />
    <circle cx=485.59000000000003 cy=454.015 r=11.4110872880785 stroke=""none"" stroke-width=""1.5"" fill=""none"" />
    <circle cx=431.57500000000005 cy=400 r=11.4110872880785 stroke=""none"" stroke-width=""1.5"" fill=""none"" />
    <circle cx=485.59000000000003 cy=345.985 r=11.4110872880785 stroke=""none"" stroke-width=""1.5"" fill=""none"" />
    <polygon points = ""485.59000000000003,400 488.7998817987001,388.5889127119215 482.3801182013,388.5889127119215"" stroke=""none"" stroke-width=""3"" fill = ""none"" />
    
    </svg>
    </div>
        ","","","","","","","","","","","","get_response","true","aqgAqqtujyVpu9RL","","","true","true","true","91.41","4","449.196","54.01499999999999","2.36","1","0","","",""
"html-keyboard-response","37","204772","0.0-37.0","null","null","","
    <div style="" display: block;  position: relative;"">
    
    <svg width=1280 height=800>
    <circle cx=577 cy=400 r=7.987761101654949 stroke=""black"" stroke-width=""1"" fill=""black"" />
    <circle cx=539.605 cy=400 r=11.4110872880785 stroke=""none"" stroke-width=""1.5"" fill=""none"" />
    <circle cx=485.59000000000003 cy=454.015 r=11.4110872880785 stroke=""none"" stroke-width=""1.5"" fill=""none"" />
    <circle cx=431.57500000000005 cy=400 r=11.4110872880785 stroke=""none"" stroke-width=""1.5"" fill=""none"" />
    <circle cx=485.59000000000003 cy=345.985 r=11.4110872880785 stroke=""none"" stroke-width=""1.5"" fill=""none"" />
    <polygon points = ""485.59000000000003,400 488.7998817987001,388.5889127119215 482.3801182013,388.5889127119215"" stroke=""none"" stroke-width=""3"" fill = ""none"" />
    
    </svg>
    </div>
        ","","","","","","","","","","","","","","","","","","","","","","","","","","","","",""
"html-keyboard-response","38","204928","0.0-38.0","null","null","","
    <div style="" display: block;  position: relative;"">
    <svg width=1280 height=800>
    
    <circle cx=577 cy=400 r=7.987761101654949 stroke=""black"" stroke-width=""1"" fill=""black"" />
    <circle cx=668.41 cy=400 r=11.4110872880785 stroke=""black"" stroke-width=""1.5"" fill=""none"" />
    <circle cx=717.5145454545454 cy=400 r=11.4110872880785 stroke=""black"" stroke-width=""1.5"" fill=""none"" />
    <circle cx=668.41 cy=449.1045454545455 r=11.4110872880785 stroke=""black"" stroke-width=""1.5"" fill=""none"" />
    <circle cx=619.3054545454545 cy=400 r=11.4110872880785 stroke=""black"" stroke-width=""1.5"" fill=""none"" />
    <circle cx=668.41 cy=350.8954545454545 r=11.4110872880785 stroke=""black"" stroke-width=""1.5"" fill=""none"" />
    <polygon points = ""668.41,400 671.6198817987,388.5889127119215 665.2001182012999,388.5889127119215"" stroke=""white"" stroke-width=""3"" fill = ""white"" />
    
    </svg>
    </div>
        ","","","","","","","","","","","","stimulus","","","","","","","","","","","","","","","","",""
"html-keyboard-response","39","205189","0.0-39.0","259.69999999925494","arrowdown","","
    <div style="" display: block;  position: relative;"">
    
    <svg width=1280 height=800>
    <circle cx=577 cy=400 r=7.987761101654949 stroke=""black"" stroke-width=""1"" fill=""black"" />
    <circle cx=717.5145454545454 cy=400 r=11.4110872880785 stroke=""none"" stroke-width=""1.5"" fill=""none"" />
    <circle cx=668.41 cy=449.1045454545455 r=11.4110872880785 stroke=""none"" stroke-width=""1.5"" fill=""none"" />
    <circle cx=619.3054545454545 cy=400 r=11.4110872880785 stroke=""none"" stroke-width=""1.5"" fill=""none"" />
    <circle cx=668.41 cy=350.8954545454545 r=11.4110872880785 stroke=""none"" stroke-width=""1.5"" fill=""none"" />
    <polygon points = ""668.41,400 671.6198817987,388.5889127119215 665.2001182012999,388.5889127119215"" stroke=""none"" stroke-width=""3"" fill = ""none"" />
    
    </svg>
    </div>
        ","","","","","","","","","","","","get_response","false","aqgAqqtujyVpu9RL","","","false","true","true","91.41","4","449.196","49.104545454545445","2.15","1","0","","",""
"html-keyboard-response","40","205693","0.0-40.0","null","null","","
    <div style="" display: block;  position: relative;"">
    
    <svg width=1280 height=800>
    <circle cx=577 cy=400 r=7.987761101654949 stroke=""black"" stroke-width=""1"" fill=""black"" />
    <circle cx=717.5145454545454 cy=400 r=11.4110872880785 stroke=""none"" stroke-width=""1.5"" fill=""none"" />
    <circle cx=668.41 cy=449.1045454545455 r=11.4110872880785 stroke=""none"" stroke-width=""1.5"" fill=""none"" />
    <circle cx=619.3054545454545 cy=400 r=11.4110872880785 stroke=""none"" stroke-width=""1.5"" fill=""none"" />
    <circle cx=668.41 cy=350.8954545454545 r=11.4110872880785 stroke=""none"" stroke-width=""1.5"" fill=""none"" />
    <polygon points = ""668.41,400 671.6198817987,388.5889127119215 665.2001182012999,388.5889127119215"" stroke=""none"" stroke-width=""3"" fill = ""none"" />
    
    </svg>
    </div>
        ","","","","","","","","","","","","","","","","","","","","","","","","","","","","",""
"html-keyboard-response","41","205847","0.0-41.0","null","null","","
    <div style="" display: block;  position: relative;"">
    <svg width=1280 height=800>
    
    <circle cx=577 cy=400 r=7.987761101654949 stroke=""black"" stroke-width=""1"" fill=""black"" />
    <circle cx=485.59000000000003 cy=400 r=11.4110872880785 stroke=""black"" stroke-width=""1.5"" fill=""none"" />
    <circle cx=549.4259090909092 cy=400 r=11.4110872880785 stroke=""black"" stroke-width=""1.5"" fill=""none"" />
    <circle cx=485.59000000000003 cy=463.83590909090907 r=11.4110872880785 stroke=""black"" stroke-width=""1.5"" fill=""none"" />
    <circle cx=421.75409090909096 cy=400 r=11.4110872880785 stroke=""black"" stroke-width=""1.5"" fill=""none"" />
    <circle cx=485.59000000000003 cy=336.16409090909093 r=11.4110872880785 stroke=""black"" stroke-width=""1.5"" fill=""none"" />
    <polygon points = ""485.59000000000003,400 488.7998817987001,388.5889127119215 482.3801182013,388.5889127119215"" stroke=""white"" stroke-width=""3"" fill = ""white"" />
    
    </svg>
    </div>
        ","","","","","","","","","","","","stimulus","","","","","","","","","","","","","","","","",""
"html-keyboard-response","42","206284","0.0-42.0","436.5999999977648","arrowup","","
    <div style="" display: block;  position: relative;"">
    
    <svg width=1280 height=800>
    <circle cx=577 cy=400 r=7.987761101654949 stroke=""black"" stroke-width=""1"" fill=""black"" />
    <circle cx=549.4259090909092 cy=400 r=11.4110872880785 stroke=""none"" stroke-width=""1.5"" fill=""none"" />
    <circle cx=485.59000000000003 cy=463.83590909090907 r=11.4110872880785 stroke=""none"" stroke-width=""1.5"" fill=""none"" />
    <circle cx=421.75409090909096 cy=400 r=11.4110872880785 stroke=""none"" stroke-width=""1.5"" fill=""none"" />
    <circle cx=485.59000000000003 cy=336.16409090909093 r=11.4110872880785 stroke=""none"" stroke-width=""1.5"" fill=""none"" />
    <polygon points = ""485.59000000000003,400 488.7998817987001,388.5889127119215 482.3801182013,388.5889127119215"" stroke=""none"" stroke-width=""3"" fill = ""none"" />
    
    </svg>
    </div>
        ","","","","","","","","","","","","get_response","true","aqgAqqtujyVpu9RL","","","true","true","true","91.41","4","449.196","63.835909090909084","2.79","1","0","","",""
"html-keyboard-response","43","206789","0.0-43.0","null","null","","
    <div style="" display: block;  position: relative;"">
    
    <svg width=1280 height=800>
    <circle cx=577 cy=400 r=7.987761101654949 stroke=""black"" stroke-width=""1"" fill=""black"" />
    <circle cx=549.4259090909092 cy=400 r=11.4110872880785 stroke=""none"" stroke-width=""1.5"" fill=""none"" />
    <circle cx=485.59000000000003 cy=463.83590909090907 r=11.4110872880785 stroke=""none"" stroke-width=""1.5"" fill=""none"" />
    <circle cx=421.75409090909096 cy=400 r=11.4110872880785 stroke=""none"" stroke-width=""1.5"" fill=""none"" />
    <circle cx=485.59000000000003 cy=336.16409090909093 r=11.4110872880785 stroke=""none"" stroke-width=""1.5"" fill=""none"" />
    <polygon points = ""485.59000000000003,400 488.7998817987001,388.5889127119215 482.3801182013,388.5889127119215"" stroke=""none"" stroke-width=""3"" fill = ""none"" />
    
    </svg>
    </div>
        ","","","","","","","","","","","","","","","","","","","","","","","","","","","","",""
"html-keyboard-response","44","206945","0.0-44.0","null","null","","
    <div style="" display: block;  position: relative;"">
    <svg width=1280 height=800>
    
    <circle cx=577 cy=400 r=7.987761101654949 stroke=""black"" stroke-width=""1"" fill=""black"" />
    <circle cx=668.41 cy=400 r=11.4110872880785 stroke=""black"" stroke-width=""1.5"" fill=""none"" />
    <circle cx=732.2459090909091 cy=400 r=11.4110872880785 stroke=""black"" stroke-width=""1.5"" fill=""none"" />
    <circle cx=668.41 cy=463.83590909090907 r=11.4110872880785 stroke=""black"" stroke-width=""1.5"" fill=""none"" />
    <circle cx=604.5740909090908 cy=400 r=11.4110872880785 stroke=""black"" stroke-width=""1.5"" fill=""none"" />
    <circle cx=668.41 cy=336.16409090909093 r=11.4110872880785 stroke=""black"" stroke-width=""1.5"" fill=""none"" />
    <polygon points = ""668.41,400 671.6198817987,388.5889127119215 665.2001182012999,388.5889127119215"" stroke=""white"" stroke-width=""3"" fill = ""white"" />
    
    </svg>
    </div>
        ","","","","","","","","","","","","stimulus","","","","","","","","","","","","","","","","",""
"html-keyboard-response","45","207279","0.0-45.0","332","arrowup","","
    <div style="" display: block;  position: relative;"">
    
    <svg width=1280 height=800>
    <circle cx=577 cy=400 r=7.987761101654949 stroke=""black"" stroke-width=""1"" fill=""black"" />
    <circle cx=732.2459090909091 cy=400 r=11.4110872880785 stroke=""none"" stroke-width=""1.5"" fill=""none"" />
    <circle cx=668.41 cy=463.83590909090907 r=11.4110872880785 stroke=""none"" stroke-width=""1.5"" fill=""none"" />
    <circle cx=604.5740909090908 cy=400 r=11.4110872880785 stroke=""none"" stroke-width=""1.5"" fill=""none"" />
    <circle cx=668.41 cy=336.16409090909093 r=11.4110872880785 stroke=""none"" stroke-width=""1.5"" fill=""none"" />
    <polygon points = ""668.41,400 671.6198817987,388.5889127119215 665.2001182012999,388.5889127119215"" stroke=""none"" stroke-width=""3"" fill = ""none"" />
    
    </svg>
    </div>
        ","","","","","","","","","","","","get_response","true","aqgAqqtujyVpu9RL","","","false","true","true","91.41","4","449.196","63.835909090909084","2.79","1","0","","",""
"html-keyboard-response","46","207782","0.0-46.0","null","null","","
    <div style="" display: block;  position: relative;"">
    
    <svg width=1280 height=800>
    <circle cx=577 cy=400 r=7.987761101654949 stroke=""black"" stroke-width=""1"" fill=""black"" />
    <circle cx=732.2459090909091 cy=400 r=11.4110872880785 stroke=""none"" stroke-width=""1.5"" fill=""none"" />
    <circle cx=668.41 cy=463.83590909090907 r=11.4110872880785 stroke=""none"" stroke-width=""1.5"" fill=""none"" />
    <circle cx=604.5740909090908 cy=400 r=11.4110872880785 stroke=""none"" stroke-width=""1.5"" fill=""none"" />
    <circle cx=668.41 cy=336.16409090909093 r=11.4110872880785 stroke=""none"" stroke-width=""1.5"" fill=""none"" />
    <polygon points = ""668.41,400 671.6198817987,388.5889127119215 665.2001182012999,388.5889127119215"" stroke=""none"" stroke-width=""3"" fill = ""none"" />
    
    </svg>
    </div>
        ","","","","","","","","","","","","","","","","","","","","","","","","","","","","",""
"html-keyboard-response","47","207938","0.0-47.0","null","null","","
    <div style="" display: block;  position: relative;"">
    <svg width=1280 height=800>
    
    <circle cx=577 cy=400 r=7.987761101654949 stroke=""black"" stroke-width=""1"" fill=""black"" />
    <circle cx=485.59000000000003 cy=400 r=11.4110872880785 stroke=""black"" stroke-width=""1.5"" fill=""none"" />
    <circle cx=549.4259090909092 cy=400 r=11.4110872880785 stroke=""black"" stroke-width=""1.5"" fill=""none"" />
    <circle cx=485.59000000000003 cy=463.83590909090907 r=11.4110872880785 stroke=""black"" stroke-width=""1.5"" fill=""none"" />
    <circle cx=421.75409090909096 cy=400 r=11.4110872880785 stroke=""black"" stroke-width=""1.5"" fill=""none"" />
    <circle cx=485.59000000000003 cy=336.16409090909093 r=11.4110872880785 stroke=""black"" stroke-width=""1.5"" fill=""none"" />
    <polygon points = ""485.59000000000003,400 488.7998817987001,411.4110872880785 482.3801182013,411.4110872880785"" stroke=""white"" stroke-width=""3"" fill = ""white"" />
    
    </svg>
    </div>
        ","","","","","","","","","","","","stimulus","","","","","","","","","","","","","","","","",""
"html-keyboard-response","48","208252","0.0-48.0","313.19999999925494","arrowdown","","
    <div style="" display: block;  position: relative;"">
    
    <svg width=1280 height=800>
    <circle cx=577 cy=400 r=7.987761101654949 stroke=""black"" stroke-width=""1"" fill=""black"" />
    <circle cx=549.4259090909092 cy=400 r=11.4110872880785 stroke=""none"" stroke-width=""1.5"" fill=""none"" />
    <circle cx=485.59000000000003 cy=463.83590909090907 r=11.4110872880785 stroke=""none"" stroke-width=""1.5"" fill=""none"" />
    <circle cx=421.75409090909096 cy=400 r=11.4110872880785 stroke=""none"" stroke-width=""1.5"" fill=""none"" />
    <circle cx=485.59000000000003 cy=336.16409090909093 r=11.4110872880785 stroke=""none"" stroke-width=""1.5"" fill=""none"" />
    <polygon points = ""485.59000000000003,400 488.7998817987001,411.4110872880785 482.3801182013,411.4110872880785"" stroke=""none"" stroke-width=""3"" fill = ""none"" />
    
    </svg>
    </div>
        ","","","","","","","","","","","","get_response","true","aqgAqqtujyVpu9RL","","","true","false","true","91.41","4","449.196","63.835909090909084","2.79","1","0","","",""
"html-keyboard-response","49","208757","0.0-49.0","null","null","","
    <div style="" display: block;  position: relative;"">
    
    <svg width=1280 height=800>
    <circle cx=577 cy=400 r=7.987761101654949 stroke=""black"" stroke-width=""1"" fill=""black"" />
    <circle cx=549.4259090909092 cy=400 r=11.4110872880785 stroke=""none"" stroke-width=""1.5"" fill=""none"" />
    <circle cx=485.59000000000003 cy=463.83590909090907 r=11.4110872880785 stroke=""none"" stroke-width=""1.5"" fill=""none"" />
    <circle cx=421.75409090909096 cy=400 r=11.4110872880785 stroke=""none"" stroke-width=""1.5"" fill=""none"" />
    <circle cx=485.59000000000003 cy=336.16409090909093 r=11.4110872880785 stroke=""none"" stroke-width=""1.5"" fill=""none"" />
    <polygon points = ""485.59000000000003,400 488.7998817987001,411.4110872880785 482.3801182013,411.4110872880785"" stroke=""none"" stroke-width=""3"" fill = ""none"" />
    
    </svg>
    </div>
        ","","","","","","","","","","","","","","","","","","","","","","","","","","","","",""
"html-keyboard-response","50","208909","0.0-50.0","null","null","","
    <div style="" display: block;  position: relative;"">
    <svg width=1280 height=800>
    
    <circle cx=577 cy=400 r=7.987761101654949 stroke=""black"" stroke-width=""1"" fill=""black"" />
    <circle cx=668.41 cy=400 r=11.4110872880785 stroke=""black"" stroke-width=""1.5"" fill=""none"" />
    <circle cx=726.4426446280992 cy=400 r=11.4110872880785 stroke=""black"" stroke-width=""1.5"" fill=""none"" />
    <circle cx=668.41 cy=458.03264462809915 r=11.4110872880785 stroke=""black"" stroke-width=""1.5"" fill=""none"" />
    <circle cx=610.3773553719008 cy=400 r=11.4110872880785 stroke=""black"" stroke-width=""1.5"" fill=""none"" />
    <circle cx=668.41 cy=341.96735537190085 r=11.4110872880785 stroke=""black"" stroke-width=""1.5"" fill=""none"" />
    <polygon points = ""668.41,400 671.6198817987,411.4110872880785 665.2001182012999,411.4110872880785"" stroke=""white"" stroke-width=""3"" fill = ""white"" />
    
    </svg>
    </div>
        ","","","","","","","","","","","","stimulus","","","","","","","","","","","","","","","","",""
"html-keyboard-response","51","209263","0.0-51.0","353.30000000074506","arrowdown","","
    <div style="" display: block;  position: relative;"">
    
    <svg width=1280 height=800>
    <circle cx=577 cy=400 r=7.987761101654949 stroke=""black"" stroke-width=""1"" fill=""black"" />
    <circle cx=726.4426446280992 cy=400 r=11.4110872880785 stroke=""none"" stroke-width=""1.5"" fill=""none"" />
    <circle cx=668.41 cy=458.03264462809915 r=11.4110872880785 stroke=""none"" stroke-width=""1.5"" fill=""none"" />
    <circle cx=610.3773553719008 cy=400 r=11.4110872880785 stroke=""none"" stroke-width=""1.5"" fill=""none"" />
    <circle cx=668.41 cy=341.96735537190085 r=11.4110872880785 stroke=""none"" stroke-width=""1.5"" fill=""none"" />
    <polygon points = ""668.41,400 671.6198817987,411.4110872880785 665.2001182012999,411.4110872880785"" stroke=""none"" stroke-width=""3"" fill = ""none"" />
    
    </svg>
    </div>
        ","","","","","","","","","","","","get_response","true","aqgAqqtujyVpu9RL","","","false","false","true","91.41","4","449.196","58.03264462809916","2.54","1","0","","",""
"html-keyboard-response","52","209765","0.0-52.0","null","null","","
    <div style="" display: block;  position: relative;"">
    
    <svg width=1280 height=800>
    <circle cx=577 cy=400 r=7.987761101654949 stroke=""black"" stroke-width=""1"" fill=""black"" />
    <circle cx=726.4426446280992 cy=400 r=11.4110872880785 stroke=""none"" stroke-width=""1.5"" fill=""none"" />
    <circle cx=668.41 cy=458.03264462809915 r=11.4110872880785 stroke=""none"" stroke-width=""1.5"" fill=""none"" />
    <circle cx=610.3773553719008 cy=400 r=11.4110872880785 stroke=""none"" stroke-width=""1.5"" fill=""none"" />
    <circle cx=668.41 cy=341.96735537190085 r=11.4110872880785 stroke=""none"" stroke-width=""1.5"" fill=""none"" />
    <polygon points = ""668.41,400 671.6198817987,411.4110872880785 665.2001182012999,411.4110872880785"" stroke=""none"" stroke-width=""3"" fill = ""none"" />
    
    </svg>
    </div>
        ","","","","","","","","","","","","","","","","","","","","","","","","","","","","",""
"html-keyboard-response","53","209919","0.0-53.0","null","null","","
    <div style="" display: block;  position: relative;"">
    <svg width=1280 height=800>
    
    <circle cx=577 cy=400 r=7.987761101654949 stroke=""black"" stroke-width=""1"" fill=""black"" />
    <circle cx=668.41 cy=400 r=11.4110872880785 stroke=""black"" stroke-width=""1.5"" fill=""none"" />
    <circle cx=721.1669496619083 cy=400 r=11.4110872880785 stroke=""black"" stroke-width=""1.5"" fill=""none"" />
    <circle cx=668.41 cy=452.7569496619083 r=11.4110872880785 stroke=""black"" stroke-width=""1.5"" fill=""none"" />
    <circle cx=615.6530503380916 cy=400 r=11.4110872880785 stroke=""black"" stroke-width=""1.5"" fill=""none"" />
    <circle cx=668.41 cy=347.2430503380917 r=11.4110872880785 stroke=""black"" stroke-width=""1.5"" fill=""none"" />
    <polygon points = ""668.41,400 671.6198817987,411.4110872880785 665.2001182012999,411.4110872880785"" stroke=""white"" stroke-width=""3"" fill = ""white"" />
    
    </svg>
    </div>
        ","","","","","","","","","","","","stimulus","","","","","","","","","","","","","","","","",""
"html-keyboard-response","54","210341","0.0-54.0","421.5","arrowdown","","
    <div style="" display: block;  position: relative;"">
    
    <svg width=1280 height=800>
    <circle cx=577 cy=400 r=7.987761101654949 stroke=""black"" stroke-width=""1"" fill=""black"" />
    <circle cx=721.1669496619083 cy=400 r=11.4110872880785 stroke=""none"" stroke-width=""1.5"" fill=""none"" />
    <circle cx=668.41 cy=452.7569496619083 r=11.4110872880785 stroke=""none"" stroke-width=""1.5"" fill=""none"" />
    <circle cx=615.6530503380916 cy=400 r=11.4110872880785 stroke=""none"" stroke-width=""1.5"" fill=""none"" />
    <circle cx=668.41 cy=347.2430503380917 r=11.4110872880785 stroke=""none"" stroke-width=""1.5"" fill=""none"" />
    <polygon points = ""668.41,400 671.6198817987,411.4110872880785 665.2001182012999,411.4110872880785"" stroke=""none"" stroke-width=""3"" fill = ""none"" />
    
    </svg>
    </div>
        ","","","","","","","","","","","","get_response","true","aqgAqqtujyVpu9RL","","","false","false","true","91.41","4","449.196","52.75694966190832","2.31","1","0","","",""
"html-keyboard-response","55","210846","0.0-55.0","null","null","","
    <div style="" display: block;  position: relative;"">
    
    <svg width=1280 height=800>
    <circle cx=577 cy=400 r=7.987761101654949 stroke=""black"" stroke-width=""1"" fill=""black"" />
    <circle cx=721.1669496619083 cy=400 r=11.4110872880785 stroke=""none"" stroke-width=""1.5"" fill=""none"" />
    <circle cx=668.41 cy=452.7569496619083 r=11.4110872880785 stroke=""none"" stroke-width=""1.5"" fill=""none"" />
    <circle cx=615.6530503380916 cy=400 r=11.4110872880785 stroke=""none"" stroke-width=""1.5"" fill=""none"" />
    <circle cx=668.41 cy=347.2430503380917 r=11.4110872880785 stroke=""none"" stroke-width=""1.5"" fill=""none"" />
    <polygon points = ""668.41,400 671.6198817987,411.4110872880785 665.2001182012999,411.4110872880785"" stroke=""none"" stroke-width=""3"" fill = ""none"" />
    
    </svg>
    </div>
        ","","","","","","","","","","","","","","","","","","","","","","","","","","","","",""
"html-keyboard-response","56","211001","0.0-56.0","null","null","","
    <div style="" display: block;  position: relative;"">
    <svg width=1280 height=800>
    
    <circle cx=577 cy=400 r=7.987761101654949 stroke=""black"" stroke-width=""1"" fill=""black"" />
    <circle cx=668.41 cy=400 r=11.4110872880785 stroke=""black"" stroke-width=""1.5"" fill=""none"" />
    <circle cx=716.3708633290075 cy=400 r=11.4110872880785 stroke=""black"" stroke-width=""1.5"" fill=""none"" />
    <circle cx=668.41 cy=447.96086332900757 r=11.4110872880785 stroke=""black"" stroke-width=""1.5"" fill=""none"" />
    <circle cx=620.4491366709924 cy=400 r=11.4110872880785 stroke=""black"" stroke-width=""1.5"" fill=""none"" />
    <circle cx=668.41 cy=352.03913667099243 r=11.4110872880785 stroke=""black"" stroke-width=""1.5"" fill=""none"" />
    <polygon points = ""668.41,400 671.6198817987,411.4110872880785 665.2001182012999,411.4110872880785"" stroke=""white"" stroke-width=""3"" fill = ""white"" />
    
    </svg>
    </div>
        ","","","","","","","","","","","","stimulus","","","","","","","","","","","","","","","","",""
"html-keyboard-response","57","211359","0.0-57.0","357.19999999925494","arrowdown","","
    <div style="" display: block;  position: relative;"">
    
    <svg width=1280 height=800>
    <circle cx=577 cy=400 r=7.987761101654949 stroke=""black"" stroke-width=""1"" fill=""black"" />
    <circle cx=716.3708633290075 cy=400 r=11.4110872880785 stroke=""none"" stroke-width=""1.5"" fill=""none"" />
    <circle cx=668.41 cy=447.96086332900757 r=11.4110872880785 stroke=""none"" stroke-width=""1.5"" fill=""none"" />
    <circle cx=620.4491366709924 cy=400 r=11.4110872880785 stroke=""none"" stroke-width=""1.5"" fill=""none"" />
    <circle cx=668.41 cy=352.03913667099243 r=11.4110872880785 stroke=""none"" stroke-width=""1.5"" fill=""none"" />
    <polygon points = ""668.41,400 671.6198817987,411.4110872880785 665.2001182012999,411.4110872880785"" stroke=""none"" stroke-width=""3"" fill = ""none"" />
    
    </svg>
    </div>
        ","","","","","","","","","","","","get_response","true","aqgAqqtujyVpu9RL","","","false","false","true","91.41","4","449.196","47.96086332900756","2.1","1","0","","",""
"html-keyboard-response","58","211863","0.0-58.0","null","null","","
    <div style="" display: block;  position: relative;"">
    
    <svg width=1280 height=800>
    <circle cx=577 cy=400 r=7.987761101654949 stroke=""black"" stroke-width=""1"" fill=""black"" />
    <circle cx=716.3708633290075 cy=400 r=11.4110872880785 stroke=""none"" stroke-width=""1.5"" fill=""none"" />
    <circle cx=668.41 cy=447.96086332900757 r=11.4110872880785 stroke=""none"" stroke-width=""1.5"" fill=""none"" />
    <circle cx=620.4491366709924 cy=400 r=11.4110872880785 stroke=""none"" stroke-width=""1.5"" fill=""none"" />
    <circle cx=668.41 cy=352.03913667099243 r=11.4110872880785 stroke=""none"" stroke-width=""1.5"" fill=""none"" />
    <polygon points = ""668.41,400 671.6198817987,411.4110872880785 665.2001182012999,411.4110872880785"" stroke=""none"" stroke-width=""3"" fill = ""none"" />
    
    </svg>
    </div>
        ","","","","","","","","","","","","","","","","","","","","","","","","","","","","",""
"html-keyboard-response","59","212015","0.0-59.0","null","null","","
    <div style="" display: block;  position: relative;"">
    <svg width=1280 height=800>
    
    <circle cx=577 cy=400 r=7.987761101654949 stroke=""black"" stroke-width=""1"" fill=""black"" />
    <circle cx=485.59000000000003 cy=400 r=11.4110872880785 stroke=""black"" stroke-width=""1.5"" fill=""none"" />
    <circle cx=529.1907848445524 cy=400 r=11.4110872880785 stroke=""black"" stroke-width=""1.5"" fill=""none"" />
    <circle cx=485.59000000000003 cy=443.6007848445523 r=11.4110872880785 stroke=""black"" stroke-width=""1.5"" fill=""none"" />
    <circle cx=441.9892151554477 cy=400 r=11.4110872880785 stroke=""black"" stroke-width=""1.5"" fill=""none"" />
    <circle cx=485.59000000000003 cy=356.3992151554477 r=11.4110872880785 stroke=""black"" stroke-width=""1.5"" fill=""none"" />
    <polygon points = ""485.59000000000003,400 488.7998817987001,411.4110872880785 482.3801182013,411.4110872880785"" stroke=""white"" stroke-width=""3"" fill = ""white"" />
    
    </svg>
    </div>
        ","","","","","","","","","","","","stimulus","","","","","","","","","","","","","","","","",""
"html-keyboard-response","60","212372","0.0-60.0","356.19999999925494","arrowdown","","
    <div style="" display: block;  position: relative;"">
    
    <svg width=1280 height=800>
    <circle cx=577 cy=400 r=7.987761101654949 stroke=""black"" stroke-width=""1"" fill=""black"" />
    <circle cx=529.1907848445524 cy=400 r=11.4110872880785 stroke=""none"" stroke-width=""1.5"" fill=""none"" />
    <circle cx=485.59000000000003 cy=443.6007848445523 r=11.4110872880785 stroke=""none"" stroke-width=""1.5"" fill=""none"" />
    <circle cx=441.9892151554477 cy=400 r=11.4110872880785 stroke=""none"" stroke-width=""1.5"" fill=""none"" />
    <circle cx=485.59000000000003 cy=356.3992151554477 r=11.4110872880785 stroke=""none"" stroke-width=""1.5"" fill=""none"" />
    <polygon points = ""485.59000000000003,400 488.7998817987001,411.4110872880785 482.3801182013,411.4110872880785"" stroke=""none"" stroke-width=""3"" fill = ""none"" />
    
    </svg>
    </div>
        ","","","","","","","","","","","","get_response","true","aqgAqqtujyVpu9RL","","","true","false","true","91.41","4","449.196","43.60078484455232","1.91","1","0","","",""
"html-keyboard-response","61","212874","0.0-61.0","null","null","","
    <div style="" display: block;  position: relative;"">
    
    <svg width=1280 height=800>
    <circle cx=577 cy=400 r=7.987761101654949 stroke=""black"" stroke-width=""1"" fill=""black"" />
    <circle cx=529.1907848445524 cy=400 r=11.4110872880785 stroke=""none"" stroke-width=""1.5"" fill=""none"" />
    <circle cx=485.59000000000003 cy=443.6007848445523 r=11.4110872880785 stroke=""none"" stroke-width=""1.5"" fill=""none"" />
    <circle cx=441.9892151554477 cy=400 r=11.4110872880785 stroke=""none"" stroke-width=""1.5"" fill=""none"" />
    <circle cx=485.59000000000003 cy=356.3992151554477 r=11.4110872880785 stroke=""none"" stroke-width=""1.5"" fill=""none"" />
    <polygon points = ""485.59000000000003,400 488.7998817987001,411.4110872880785 482.3801182013,411.4110872880785"" stroke=""none"" stroke-width=""3"" fill = ""none"" />
    
    </svg>
    </div>
        ","","","","","","","","","","","","","","","","","","","","","","","","","","","","",""
"html-keyboard-response","62","213029","0.0-62.0","null","null","","
    <div style="" display: block;  position: relative;"">
    <svg width=1280 height=800>
    
    <circle cx=577 cy=400 r=7.987761101654949 stroke=""black"" stroke-width=""1"" fill=""black"" />
    <circle cx=668.41 cy=400 r=11.4110872880785 stroke=""black"" stroke-width=""1.5"" fill=""none"" />
    <circle cx=708.0470771314111 cy=400 r=11.4110872880785 stroke=""black"" stroke-width=""1.5"" fill=""none"" />
    <circle cx=668.41 cy=439.6370771314112 r=11.4110872880785 stroke=""black"" stroke-width=""1.5"" fill=""none"" />
    <circle cx=628.7729228685888 cy=400 r=11.4110872880785 stroke=""black"" stroke-width=""1.5"" fill=""none"" />
    <circle cx=668.41 cy=360.3629228685888 r=11.4110872880785 stroke=""black"" stroke-width=""1.5"" fill=""none"" />
    <polygon points = ""668.41,400 671.6198817987,411.4110872880785 665.2001182012999,411.4110872880785"" stroke=""white"" stroke-width=""3"" fill = ""white"" />
    
    </svg>
    </div>
        ","","","","","","","","","","","","stimulus","","","","","","","","","","","","","","","","",""
"html-keyboard-response","63","213398","0.0-63.0","368.30000000074506","arrowdown","","
    <div style="" display: block;  position: relative;"">
    
    <svg width=1280 height=800>
    <circle cx=577 cy=400 r=7.987761101654949 stroke=""black"" stroke-width=""1"" fill=""black"" />
    <circle cx=708.0470771314111 cy=400 r=11.4110872880785 stroke=""none"" stroke-width=""1.5"" fill=""none"" />
    <circle cx=668.41 cy=439.6370771314112 r=11.4110872880785 stroke=""none"" stroke-width=""1.5"" fill=""none"" />
    <circle cx=628.7729228685888 cy=400 r=11.4110872880785 stroke=""none"" stroke-width=""1.5"" fill=""none"" />
    <circle cx=668.41 cy=360.3629228685888 r=11.4110872880785 stroke=""none"" stroke-width=""1.5"" fill=""none"" />
    <polygon points = ""668.41,400 671.6198817987,411.4110872880785 665.2001182012999,411.4110872880785"" stroke=""none"" stroke-width=""3"" fill = ""none"" />
    
    </svg>
    </div>
        ","","","","","","","","","","","","get_response","true","aqgAqqtujyVpu9RL","","","false","false","true","91.41","4","449.196","39.637077131411196","1.73","1","0","","",""
"html-keyboard-response","64","213901","0.0-64.0","null","null","","
    <div style="" display: block;  position: relative;"">
    
    <svg width=1280 height=800>
    <circle cx=577 cy=400 r=7.987761101654949 stroke=""black"" stroke-width=""1"" fill=""black"" />
    <circle cx=708.0470771314111 cy=400 r=11.4110872880785 stroke=""none"" stroke-width=""1.5"" fill=""none"" />
    <circle cx=668.41 cy=439.6370771314112 r=11.4110872880785 stroke=""none"" stroke-width=""1.5"" fill=""none"" />
    <circle cx=628.7729228685888 cy=400 r=11.4110872880785 stroke=""none"" stroke-width=""1.5"" fill=""none"" />
    <circle cx=668.41 cy=360.3629228685888 r=11.4110872880785 stroke=""none"" stroke-width=""1.5"" fill=""none"" />
    <polygon points = ""668.41,400 671.6198817987,411.4110872880785 665.2001182012999,411.4110872880785"" stroke=""none"" stroke-width=""3"" fill = ""none"" />
    
    </svg>
    </div>
        ","","","","","","","","","","","","","","","","","","","","","","","","","","","","",""
"html-keyboard-response","65","214056","0.0-65.0","null","null","","
    <div style="" display: block;  position: relative;"">
    <svg width=1280 height=800>
    
    <circle cx=577 cy=400 r=7.987761101654949 stroke=""black"" stroke-width=""1"" fill=""black"" />
    <circle cx=668.41 cy=400 r=11.4110872880785 stroke=""black"" stroke-width=""1.5"" fill=""none"" />
    <circle cx=704.4437064831011 cy=400 r=11.4110872880785 stroke=""black"" stroke-width=""1.5"" fill=""none"" />
    <circle cx=668.41 cy=436.03370648310107 r=11.4110872880785 stroke=""black"" stroke-width=""1.5"" fill=""none"" />
    <circle cx=632.3762935168988 cy=400 r=11.4110872880785 stroke=""black"" stroke-width=""1.5"" fill=""none"" />
    <circle cx=668.41 cy=363.96629351689893 r=11.4110872880785 stroke=""black"" stroke-width=""1.5"" fill=""none"" />
    <polygon points = ""668.41,400 671.6198817987,411.4110872880785 665.2001182012999,411.4110872880785"" stroke=""white"" stroke-width=""3"" fill = ""white"" />
    
    </svg>
    </div>
        ","","","","","","","","","","","","stimulus","","","","","","","","","","","","","","","","",""
"html-keyboard-response","66","214396","0.0-66.0","339.1000000014901","arrowdown","","
    <div style="" display: block;  position: relative;"">
    
    <svg width=1280 height=800>
    <circle cx=577 cy=400 r=7.987761101654949 stroke=""black"" stroke-width=""1"" fill=""black"" />
    <circle cx=704.4437064831011 cy=400 r=11.4110872880785 stroke=""none"" stroke-width=""1.5"" fill=""none"" />
    <circle cx=668.41 cy=436.03370648310107 r=11.4110872880785 stroke=""none"" stroke-width=""1.5"" fill=""none"" />
    <circle cx=632.3762935168988 cy=400 r=11.4110872880785 stroke=""none"" stroke-width=""1.5"" fill=""none"" />
    <circle cx=668.41 cy=363.96629351689893 r=11.4110872880785 stroke=""none"" stroke-width=""1.5"" fill=""none"" />
    <polygon points = ""668.41,400 671.6198817987,411.4110872880785 665.2001182012999,411.4110872880785"" stroke=""none"" stroke-width=""3"" fill = ""none"" />
    
    </svg>
    </div>
        ","","","","","","","","","","","","get_response","true","aqgAqqtujyVpu9RL","","","false","false","true","91.41","4","449.196","36.033706483101085","1.57","1","0","","",""
"html-keyboard-response","67","214898","0.0-67.0","null","null","","
    <div style="" display: block;  position: relative;"">
    
    <svg width=1280 height=800>
    <circle cx=577 cy=400 r=7.987761101654949 stroke=""black"" stroke-width=""1"" fill=""black"" />
    <circle cx=704.4437064831011 cy=400 r=11.4110872880785 stroke=""none"" stroke-width=""1.5"" fill=""none"" />
    <circle cx=668.41 cy=436.03370648310107 r=11.4110872880785 stroke=""none"" stroke-width=""1.5"" fill=""none"" />
    <circle cx=632.3762935168988 cy=400 r=11.4110872880785 stroke=""none"" stroke-width=""1.5"" fill=""none"" />
    <circle cx=668.41 cy=363.96629351689893 r=11.4110872880785 stroke=""none"" stroke-width=""1.5"" fill=""none"" />
    <polygon points = ""668.41,400 671.6198817987,411.4110872880785 665.2001182012999,411.4110872880785"" stroke=""none"" stroke-width=""3"" fill = ""none"" />
    
    </svg>
    </div>
        ","","","","","","","","","","","","","","","","","","","","","","","","","","","","",""
"html-keyboard-response","68","215054","0.0-68.0","null","null","","
    <div style="" display: block;  position: relative;"">
    <svg width=1280 height=800>
    
    <circle cx=577 cy=400 r=7.987761101654949 stroke=""black"" stroke-width=""1"" fill=""black"" />
    <circle cx=668.41 cy=400 r=11.4110872880785 stroke=""black"" stroke-width=""1.5"" fill=""none"" />
    <circle cx=701.1679149846373 cy=400 r=11.4110872880785 stroke=""black"" stroke-width=""1.5"" fill=""none"" />
    <circle cx=668.41 cy=432.75791498463735 r=11.4110872880785 stroke=""black"" stroke-width=""1.5"" fill=""none"" />
    <circle cx=635.6520850153627 cy=400 r=11.4110872880785 stroke=""black"" stroke-width=""1.5"" fill=""none"" />
    <circle cx=668.41 cy=367.24208501536265 r=11.4110872880785 stroke=""black"" stroke-width=""1.5"" fill=""none"" />
    <polygon points = ""668.41,400 671.6198817987,388.5889127119215 665.2001182012999,388.5889127119215"" stroke=""white"" stroke-width=""3"" fill = ""white"" />
    
    </svg>
    </div>
        ","","","","","","","","","","","","stimulus","","","","","","","","","","","","","","","","",""
"html-keyboard-response","69","215477","0.0-69.0","421.5","arrowup","","
    <div style="" display: block;  position: relative;"">
    
    <svg width=1280 height=800>
    <circle cx=577 cy=400 r=7.987761101654949 stroke=""black"" stroke-width=""1"" fill=""black"" />
    <circle cx=701.1679149846373 cy=400 r=11.4110872880785 stroke=""none"" stroke-width=""1.5"" fill=""none"" />
    <circle cx=668.41 cy=432.75791498463735 r=11.4110872880785 stroke=""none"" stroke-width=""1.5"" fill=""none"" />
    <circle cx=635.6520850153627 cy=400 r=11.4110872880785 stroke=""none"" stroke-width=""1.5"" fill=""none"" />
    <circle cx=668.41 cy=367.24208501536265 r=11.4110872880785 stroke=""none"" stroke-width=""1.5"" fill=""none"" />
    <polygon points = ""668.41,400 671.6198817987,388.5889127119215 665.2001182012999,388.5889127119215"" stroke=""none"" stroke-width=""3"" fill = ""none"" />
    
    </svg>
    </div>
        ","","","","","","","","","","","","get_response","true","aqgAqqtujyVpu9RL","","","false","true","true","91.41","4","449.196","32.757914984637345","1.43","1","0","","",""
"html-keyboard-response","70","215978","0.0-70.0","null","null","","
    <div style="" display: block;  position: relative;"">
    
    <svg width=1280 height=800>
    <circle cx=577 cy=400 r=7.987761101654949 stroke=""black"" stroke-width=""1"" fill=""black"" />
    <circle cx=701.1679149846373 cy=400 r=11.4110872880785 stroke=""none"" stroke-width=""1.5"" fill=""none"" />
    <circle cx=668.41 cy=432.75791498463735 r=11.4110872880785 stroke=""none"" stroke-width=""1.5"" fill=""none"" />
    <circle cx=635.6520850153627 cy=400 r=11.4110872880785 stroke=""none"" stroke-width=""1.5"" fill=""none"" />
    <circle cx=668.41 cy=367.24208501536265 r=11.4110872880785 stroke=""none"" stroke-width=""1.5"" fill=""none"" />
    <polygon points = ""668.41,400 671.6198817987,388.5889127119215 665.2001182012999,388.5889127119215"" stroke=""none"" stroke-width=""3"" fill = ""none"" />
    
    </svg>
    </div>
        ","","","","","","","","","","","","","","","","","","","","","","","","","","","","",""
"html-keyboard-response","71","216130","0.0-71.0","null","null","","
    <div style="" display: block;  position: relative;"">
    <svg width=1280 height=800>
    
    <circle cx=577 cy=400 r=7.987761101654949 stroke=""black"" stroke-width=""1"" fill=""black"" />
    <circle cx=668.41 cy=400 r=11.4110872880785 stroke=""black"" stroke-width=""1.5"" fill=""none"" />
    <circle cx=698.1899227133066 cy=400 r=11.4110872880785 stroke=""black"" stroke-width=""1.5"" fill=""none"" />
    <circle cx=668.41 cy=429.7799227133067 r=11.4110872880785 stroke=""black"" stroke-width=""1.5"" fill=""none"" />
    <circle cx=638.6300772866933 cy=400 r=11.4110872880785 stroke=""black"" stroke-width=""1.5"" fill=""none"" />
    <circle cx=668.41 cy=370.2200772866933 r=11.4110872880785 stroke=""black"" stroke-width=""1.5"" fill=""none"" />
    <polygon points = ""668.41,400 671.6198817987,411.4110872880785 665.2001182012999,411.4110872880785"" stroke=""white"" stroke-width=""3"" fill = ""white"" />
    
    </svg>
    </div>
        ","","","","","","","","","","","","stimulus","","","","","","","","","","","","","","","","",""
"html-keyboard-response","72","216604","0.0-72.0","473.3999999985099","arrowdown","","
    <div style="" display: block;  position: relative;"">
    
    <svg width=1280 height=800>
    <circle cx=577 cy=400 r=7.987761101654949 stroke=""black"" stroke-width=""1"" fill=""black"" />
    <circle cx=698.1899227133066 cy=400 r=11.4110872880785 stroke=""none"" stroke-width=""1.5"" fill=""none"" />
    <circle cx=668.41 cy=429.7799227133067 r=11.4110872880785 stroke=""none"" stroke-width=""1.5"" fill=""none"" />
    <circle cx=638.6300772866933 cy=400 r=11.4110872880785 stroke=""none"" stroke-width=""1.5"" fill=""none"" />
    <circle cx=668.41 cy=370.2200772866933 r=11.4110872880785 stroke=""none"" stroke-width=""1.5"" fill=""none"" />
    <polygon points = ""668.41,400 671.6198817987,411.4110872880785 665.2001182012999,411.4110872880785"" stroke=""none"" stroke-width=""3"" fill = ""none"" />
    
    </svg>
    </div>
        ","","","","","","","","","","","","get_response","true","aqgAqqtujyVpu9RL","","","false","false","true","91.41","4","449.196","29.779922713306675","1.3","1","0","","",""
"html-keyboard-response","73","217105","0.0-73.0","null","null","","
    <div style="" display: block;  position: relative;"">
    
    <svg width=1280 height=800>
    <circle cx=577 cy=400 r=7.987761101654949 stroke=""black"" stroke-width=""1"" fill=""black"" />
    <circle cx=698.1899227133066 cy=400 r=11.4110872880785 stroke=""none"" stroke-width=""1.5"" fill=""none"" />
    <circle cx=668.41 cy=429.7799227133067 r=11.4110872880785 stroke=""none"" stroke-width=""1.5"" fill=""none"" />
    <circle cx=638.6300772866933 cy=400 r=11.4110872880785 stroke=""none"" stroke-width=""1.5"" fill=""none"" />
    <circle cx=668.41 cy=370.2200772866933 r=11.4110872880785 stroke=""none"" stroke-width=""1.5"" fill=""none"" />
    <polygon points = ""668.41,400 671.6198817987,411.4110872880785 665.2001182012999,411.4110872880785"" stroke=""none"" stroke-width=""3"" fill = ""none"" />
    
    </svg>
    </div>
        ","","","","","","","","","","","","","","","","","","","","","","","","","","","","",""
"html-keyboard-response","74","217259","0.0-74.0","null","null","","
    <div style="" display: block;  position: relative;"">
    <svg width=1280 height=800>
    
    <circle cx=577 cy=400 r=7.987761101654949 stroke=""black"" stroke-width=""1"" fill=""black"" />
    <circle cx=668.41 cy=400 r=11.4110872880785 stroke=""black"" stroke-width=""1.5"" fill=""none"" />
    <circle cx=695.482657012097 cy=400 r=11.4110872880785 stroke=""black"" stroke-width=""1.5"" fill=""none"" />
    <circle cx=668.41 cy=427.07265701209695 r=11.4110872880785 stroke=""black"" stroke-width=""1.5"" fill=""none"" />
    <circle cx=641.337342987903 cy=400 r=11.4110872880785 stroke=""black"" stroke-width=""1.5"" fill=""none"" />
    <circle cx=668.41 cy=372.92734298790305 r=11.4110872880785 stroke=""black"" stroke-width=""1.5"" fill=""none"" />
    <polygon points = ""668.41,400 671.6198817987,388.5889127119215 665.2001182012999,388.5889127119215"" stroke=""white"" stroke-width=""3"" fill = ""white"" />
    
    </svg>
    </div>
        ","","","","","","","","","","","","stimulus","","","","","","","","","","","","","","","","",""
"html-keyboard-response","75","217644","0.0-75.0","384.1000000014901","arrowup","","
    <div style="" display: block;  position: relative;"">
    
    <svg width=1280 height=800>
    <circle cx=577 cy=400 r=7.987761101654949 stroke=""black"" stroke-width=""1"" fill=""black"" />
    <circle cx=695.482657012097 cy=400 r=11.4110872880785 stroke=""none"" stroke-width=""1.5"" fill=""none"" />
    <circle cx=668.41 cy=427.07265701209695 r=11.4110872880785 stroke=""none"" stroke-width=""1.5"" fill=""none"" />
    <circle cx=641.337342987903 cy=400 r=11.4110872880785 stroke=""none"" stroke-width=""1.5"" fill=""none"" />
    <circle cx=668.41 cy=372.92734298790305 r=11.4110872880785 stroke=""none"" stroke-width=""1.5"" fill=""none"" />
    <polygon points = ""668.41,400 671.6198817987,388.5889127119215 665.2001182012999,388.5889127119215"" stroke=""none"" stroke-width=""3"" fill = ""none"" />
    
    </svg>
    </div>
        ","","","","","","","","","","","","get_response","true","aqgAqqtujyVpu9RL","","","false","true","true","91.41","4","449.196","27.072657012096975","1.18","1","0","","",""
"html-keyboard-response","76","218147","0.0-76.0","null","null","","
    <div style="" display: block;  position: relative;"">
    
    <svg width=1280 height=800>
    <circle cx=577 cy=400 r=7.987761101654949 stroke=""black"" stroke-width=""1"" fill=""black"" />
    <circle cx=695.482657012097 cy=400 r=11.4110872880785 stroke=""none"" stroke-width=""1.5"" fill=""none"" />
    <circle cx=668.41 cy=427.07265701209695 r=11.4110872880785 stroke=""none"" stroke-width=""1.5"" fill=""none"" />
    <circle cx=641.337342987903 cy=400 r=11.4110872880785 stroke=""none"" stroke-width=""1.5"" fill=""none"" />
    <circle cx=668.41 cy=372.92734298790305 r=11.4110872880785 stroke=""none"" stroke-width=""1.5"" fill=""none"" />
    <polygon points = ""668.41,400 671.6198817987,388.5889127119215 665.2001182012999,388.5889127119215"" stroke=""none"" stroke-width=""3"" fill = ""none"" />
    
    </svg>
    </div>
        ","","","","","","","","","","","","","","","","","","","","","","","","","","","","",""
"html-keyboard-response","77","218302","0.0-77.0","null","null","","
    <div style="" display: block;  position: relative;"">
    <svg width=1280 height=800>
    
    <circle cx=577 cy=400 r=7.987761101654949 stroke=""black"" stroke-width=""1"" fill=""black"" />
    <circle cx=668.41 cy=400 r=11.4110872880785 stroke=""black"" stroke-width=""1.5"" fill=""none"" />
    <circle cx=693.0215063746335 cy=400 r=11.4110872880785 stroke=""black"" stroke-width=""1.5"" fill=""none"" />
    <circle cx=668.41 cy=424.6115063746336 r=11.4110872880785 stroke=""black"" stroke-width=""1.5"" fill=""none"" />
    <circle cx=643.7984936253664 cy=400 r=11.4110872880785 stroke=""black"" stroke-width=""1.5"" fill=""none"" />
    <circle cx=668.41 cy=375.3884936253664 r=11.4110872880785 stroke=""black"" stroke-width=""1.5"" fill=""none"" />
    <polygon points = ""668.41,400 671.6198817987,411.4110872880785 665.2001182012999,411.4110872880785"" stroke=""white"" stroke-width=""3"" fill = ""white"" />
    
    </svg>
    </div>
        ","","","","","","","","","","","","stimulus","","","","","","","","","","","","","","","","",""
"html-keyboard-response","78","218756","0.0-78.0","453.20000000298023","arrowdown","","
    <div style="" display: block;  position: relative;"">
    
    <svg width=1280 height=800>
    <circle cx=577 cy=400 r=7.987761101654949 stroke=""black"" stroke-width=""1"" fill=""black"" />
    <circle cx=693.0215063746335 cy=400 r=11.4110872880785 stroke=""none"" stroke-width=""1.5"" fill=""none"" />
    <circle cx=668.41 cy=424.6115063746336 r=11.4110872880785 stroke=""none"" stroke-width=""1.5"" fill=""none"" />
    <circle cx=643.7984936253664 cy=400 r=11.4110872880785 stroke=""none"" stroke-width=""1.5"" fill=""none"" />
    <circle cx=668.41 cy=375.3884936253664 r=11.4110872880785 stroke=""none"" stroke-width=""1.5"" fill=""none"" />
    <polygon points = ""668.41,400 671.6198817987,411.4110872880785 665.2001182012999,411.4110872880785"" stroke=""none"" stroke-width=""3"" fill = ""none"" />
    
    </svg>
    </div>
        ","","","","","","","","","","","","get_response","true","aqgAqqtujyVpu9RL","","","false","false","true","91.41","4","449.196","24.611506374633613","1.08","1","0","","",""
"html-keyboard-response","79","219261","0.0-79.0","null","null","","
    <div style="" display: block;  position: relative;"">
    
    <svg width=1280 height=800>
    <circle cx=577 cy=400 r=7.987761101654949 stroke=""black"" stroke-width=""1"" fill=""black"" />
    <circle cx=693.0215063746335 cy=400 r=11.4110872880785 stroke=""none"" stroke-width=""1.5"" fill=""none"" />
    <circle cx=668.41 cy=424.6115063746336 r=11.4110872880785 stroke=""none"" stroke-width=""1.5"" fill=""none"" />
    <circle cx=643.7984936253664 cy=400 r=11.4110872880785 stroke=""none"" stroke-width=""1.5"" fill=""none"" />
    <circle cx=668.41 cy=375.3884936253664 r=11.4110872880785 stroke=""none"" stroke-width=""1.5"" fill=""none"" />
    <polygon points = ""668.41,400 671.6198817987,411.4110872880785 665.2001182012999,411.4110872880785"" stroke=""none"" stroke-width=""3"" fill = ""none"" />
    
    </svg>
    </div>
        ","","","","","","","","","","","","","","","","","","","","","","","","","","","","",""
"html-keyboard-response","80","219415","0.0-80.0","null","null","","
    <div style="" display: block;  position: relative;"">
    <svg width=1280 height=800>
    
    <circle cx=577 cy=400 r=7.987761101654949 stroke=""black"" stroke-width=""1"" fill=""black"" />
    <circle cx=485.59000000000003 cy=400 r=11.4110872880785 stroke=""black"" stroke-width=""1.5"" fill=""none"" />
    <circle cx=508.41217457615704 cy=400 r=11.4110872880785 stroke=""black"" stroke-width=""1.5"" fill=""none"" />
    <circle cx=485.59000000000003 cy=422.822174576157 r=11.4110872880785 stroke=""black"" stroke-width=""1.5"" fill=""none"" />
    <circle cx=462.767825423843 cy=400 r=11.4110872880785 stroke=""black"" stroke-width=""1.5"" fill=""none"" />
    <circle cx=485.59000000000003 cy=377.177825423843 r=11.4110872880785 stroke=""black"" stroke-width=""1.5"" fill=""none"" />
    <polygon points = ""485.59000000000003,400 488.7998817987001,411.4110872880785 482.3801182013,411.4110872880785"" stroke=""white"" stroke-width=""3"" fill = ""white"" />
    
    </svg>
    </div>
        ","","","","","","","","","","","","stimulus","","","","","","","","","","","","","","","","",""
"html-keyboard-response","81","219972","0.0-81.0","556.5","arrowup","","
    <div style="" display: block;  position: relative;"">
    
    <svg width=1280 height=800>
    <circle cx=577 cy=400 r=7.987761101654949 stroke=""black"" stroke-width=""1"" fill=""black"" />
    <circle cx=508.41217457615704 cy=400 r=11.4110872880785 stroke=""none"" stroke-width=""1.5"" fill=""none"" />
    <circle cx=485.59000000000003 cy=422.822174576157 r=11.4110872880785 stroke=""none"" stroke-width=""1.5"" fill=""none"" />
    <circle cx=462.767825423843 cy=400 r=11.4110872880785 stroke=""none"" stroke-width=""1.5"" fill=""none"" />
    <circle cx=485.59000000000003 cy=377.177825423843 r=11.4110872880785 stroke=""none"" stroke-width=""1.5"" fill=""none"" />
    <polygon points = ""485.59000000000003,400 488.7998817987001,411.4110872880785 482.3801182013,411.4110872880785"" stroke=""none"" stroke-width=""3"" fill = ""none"" />
    
    </svg>
    </div>
        ","","","","","","","","","","","","get_response","false","aqgAqqtujyVpu9RL","","","true","false","true","91.41","4","449.196","22.822174576157","1","1","0","","",""
"html-keyboard-response","82","220476","0.0-82.0","null","null","","
    <div style="" display: block;  position: relative;"">
    
    <svg width=1280 height=800>
    <circle cx=577 cy=400 r=7.987761101654949 stroke=""black"" stroke-width=""1"" fill=""black"" />
    <circle cx=508.41217457615704 cy=400 r=11.4110872880785 stroke=""none"" stroke-width=""1.5"" fill=""none"" />
    <circle cx=485.59000000000003 cy=422.822174576157 r=11.4110872880785 stroke=""none"" stroke-width=""1.5"" fill=""none"" />
    <circle cx=462.767825423843 cy=400 r=11.4110872880785 stroke=""none"" stroke-width=""1.5"" fill=""none"" />
    <circle cx=485.59000000000003 cy=377.177825423843 r=11.4110872880785 stroke=""none"" stroke-width=""1.5"" fill=""none"" />
    <polygon points = ""485.59000000000003,400 488.7998817987001,411.4110872880785 482.3801182013,411.4110872880785"" stroke=""none"" stroke-width=""3"" fill = ""none"" />
    
    </svg>
    </div>
        ","","","","","","","","","","","","","","","","","","","","","","","","","","","","",""
"html-keyboard-response","83","220631","0.0-83.0","null","null","","
    <div style="" display: block;  position: relative;"">
    <svg width=1280 height=800>
    
    <circle cx=577 cy=400 r=7.987761101654949 stroke=""black"" stroke-width=""1"" fill=""black"" />
    <circle cx=668.41 cy=400 r=11.4110872880785 stroke=""black"" stroke-width=""1.5"" fill=""none"" />
    <circle cx=698.0788269490041 cy=400 r=11.4110872880785 stroke=""black"" stroke-width=""1.5"" fill=""none"" />
    <circle cx=668.41 cy=429.6688269490041 r=11.4110872880785 stroke=""black"" stroke-width=""1.5"" fill=""none"" />
    <circle cx=638.7411730509958 cy=400 r=11.4110872880785 stroke=""black"" stroke-width=""1.5"" fill=""none"" />
    <circle cx=668.41 cy=370.3311730509959 r=11.4110872880785 stroke=""black"" stroke-width=""1.5"" fill=""none"" />
    <polygon points = ""668.41,400 671.6198817987,411.4110872880785 665.2001182012999,411.4110872880785"" stroke=""white"" stroke-width=""3"" fill = ""white"" />
    
    </svg>
    </div>
        ","","","","","","","","","","","","stimulus","","","","","","","","","","","","","","","","",""
"html-keyboard-response","84","221084","0.0-84.0","451.69999999925494","arrowdown","","
    <div style="" display: block;  position: relative;"">
    
    <svg width=1280 height=800>
    <circle cx=577 cy=400 r=7.987761101654949 stroke=""black"" stroke-width=""1"" fill=""black"" />
    <circle cx=698.0788269490041 cy=400 r=11.4110872880785 stroke=""none"" stroke-width=""1.5"" fill=""none"" />
    <circle cx=668.41 cy=429.6688269490041 r=11.4110872880785 stroke=""none"" stroke-width=""1.5"" fill=""none"" />
    <circle cx=638.7411730509958 cy=400 r=11.4110872880785 stroke=""none"" stroke-width=""1.5"" fill=""none"" />
    <circle cx=668.41 cy=370.3311730509959 r=11.4110872880785 stroke=""none"" stroke-width=""1.5"" fill=""none"" />
    <polygon points = ""668.41,400 671.6198817987,411.4110872880785 665.2001182012999,411.4110872880785"" stroke=""none"" stroke-width=""3"" fill = ""none"" />
    
    </svg>
    </div>
        ","","","","","","","","","","","","get_response","true","aqgAqqtujyVpu9RL","","","false","false","true","91.41","4","449.196","29.6688269490041","1.3","1","0","","",""
"html-keyboard-response","85","221588","0.0-85.0","null","null","","
    <div style="" display: block;  position: relative;"">
    
    <svg width=1280 height=800>
    <circle cx=577 cy=400 r=7.987761101654949 stroke=""black"" stroke-width=""1"" fill=""black"" />
    <circle cx=698.0788269490041 cy=400 r=11.4110872880785 stroke=""none"" stroke-width=""1.5"" fill=""none"" />
    <circle cx=668.41 cy=429.6688269490041 r=11.4110872880785 stroke=""none"" stroke-width=""1.5"" fill=""none"" />
    <circle cx=638.7411730509958 cy=400 r=11.4110872880785 stroke=""none"" stroke-width=""1.5"" fill=""none"" />
    <circle cx=668.41 cy=370.3311730509959 r=11.4110872880785 stroke=""none"" stroke-width=""1.5"" fill=""none"" />
    <polygon points = ""668.41,400 671.6198817987,411.4110872880785 665.2001182012999,411.4110872880785"" stroke=""none"" stroke-width=""3"" fill = ""none"" />
    
    </svg>
    </div>
        ","","","","","","","","","","","","","","","","","","","","","","","","","","","","",""
"html-keyboard-response","86","221743","0.0-86.0","null","null","","
    <div style="" display: block;  position: relative;"">
    <svg width=1280 height=800>
    
    <circle cx=577 cy=400 r=7.987761101654949 stroke=""black"" stroke-width=""1"" fill=""black"" />
    <circle cx=485.59000000000003 cy=400 r=11.4110872880785 stroke=""black"" stroke-width=""1.5"" fill=""none"" />
    <circle cx=515.2588269490042 cy=400 r=11.4110872880785 stroke=""black"" stroke-width=""1.5"" fill=""none"" />
    <circle cx=485.59000000000003 cy=429.6688269490041 r=11.4110872880785 stroke=""black"" stroke-width=""1.5"" fill=""none"" />
    <circle cx=455.92117305099595 cy=400 r=11.4110872880785 stroke=""black"" stroke-width=""1.5"" fill=""none"" />
    <circle cx=485.59000000000003 cy=370.3311730509959 r=11.4110872880785 stroke=""black"" stroke-width=""1.5"" fill=""none"" />
    <polygon points = ""485.59000000000003,400 488.7998817987001,411.4110872880785 482.3801182013,411.4110872880785"" stroke=""white"" stroke-width=""3"" fill = ""white"" />
    
    </svg>
    </div>
        ","","","","","","","","","","","","stimulus","","","","","","","","","","","","","","","","",""
"html-keyboard-response","87","222110","0.0-87.0","365.8999999985099","arrowdown","","
    <div style="" display: block;  position: relative;"">
    
    <svg width=1280 height=800>
    <circle cx=577 cy=400 r=7.987761101654949 stroke=""black"" stroke-width=""1"" fill=""black"" />
    <circle cx=515.2588269490042 cy=400 r=11.4110872880785 stroke=""none"" stroke-width=""1.5"" fill=""none"" />
    <circle cx=485.59000000000003 cy=429.6688269490041 r=11.4110872880785 stroke=""none"" stroke-width=""1.5"" fill=""none"" />
    <circle cx=455.92117305099595 cy=400 r=11.4110872880785 stroke=""none"" stroke-width=""1.5"" fill=""none"" />
    <circle cx=485.59000000000003 cy=370.3311730509959 r=11.4110872880785 stroke=""none"" stroke-width=""1.5"" fill=""none"" />
    <polygon points = ""485.59000000000003,400 488.7998817987001,411.4110872880785 482.3801182013,411.4110872880785"" stroke=""none"" stroke-width=""3"" fill = ""none"" />
    
    </svg>
    </div>
        ","","","","","","","","","","","","get_response","true","aqgAqqtujyVpu9RL","","","true","false","true","91.41","4","449.196","29.6688269490041","1.3","1","0","","",""
"html-keyboard-response","88","222612","0.0-88.0","null","null","","
    <div style="" display: block;  position: relative;"">
    
    <svg width=1280 height=800>
    <circle cx=577 cy=400 r=7.987761101654949 stroke=""black"" stroke-width=""1"" fill=""black"" />
    <circle cx=515.2588269490042 cy=400 r=11.4110872880785 stroke=""none"" stroke-width=""1.5"" fill=""none"" />
    <circle cx=485.59000000000003 cy=429.6688269490041 r=11.4110872880785 stroke=""none"" stroke-width=""1.5"" fill=""none"" />
    <circle cx=455.92117305099595 cy=400 r=11.4110872880785 stroke=""none"" stroke-width=""1.5"" fill=""none"" />
    <circle cx=485.59000000000003 cy=370.3311730509959 r=11.4110872880785 stroke=""none"" stroke-width=""1.5"" fill=""none"" />
    <polygon points = ""485.59000000000003,400 488.7998817987001,411.4110872880785 482.3801182013,411.4110872880785"" stroke=""none"" stroke-width=""3"" fill = ""none"" />
    
    </svg>
    </div>
        ","","","","","","","","","","","","","","","","","","","","","","","","","","","","",""
"html-keyboard-response","89","222765","0.0-89.0","null","null","","
    <div style="" display: block;  position: relative;"">
    <svg width=1280 height=800>
    
    <circle cx=577 cy=400 r=7.987761101654949 stroke=""black"" stroke-width=""1"" fill=""black"" />
    <circle cx=668.41 cy=400 r=11.4110872880785 stroke=""black"" stroke-width=""1.5"" fill=""none"" />
    <circle cx=698.0788269490041 cy=400 r=11.4110872880785 stroke=""black"" stroke-width=""1.5"" fill=""none"" />
    <circle cx=668.41 cy=429.6688269490041 r=11.4110872880785 stroke=""black"" stroke-width=""1.5"" fill=""none"" />
    <circle cx=638.7411730509958 cy=400 r=11.4110872880785 stroke=""black"" stroke-width=""1.5"" fill=""none"" />
    <circle cx=668.41 cy=370.3311730509959 r=11.4110872880785 stroke=""black"" stroke-width=""1.5"" fill=""none"" />
    <polygon points = ""668.41,400 671.6198817987,411.4110872880785 665.2001182012999,411.4110872880785"" stroke=""white"" stroke-width=""3"" fill = ""white"" />
    
    </svg>
    </div>
        ","","","","","","","","","","","","stimulus","","","","","","","","","","","","","","","","",""
"html-keyboard-response","90","223372","0.0-90.0","605.6000000014901","arrowdown","","
    <div style="" display: block;  position: relative;"">
    
    <svg width=1280 height=800>
    <circle cx=577 cy=400 r=7.987761101654949 stroke=""black"" stroke-width=""1"" fill=""black"" />
    <circle cx=698.0788269490041 cy=400 r=11.4110872880785 stroke=""none"" stroke-width=""1.5"" fill=""none"" />
    <circle cx=668.41 cy=429.6688269490041 r=11.4110872880785 stroke=""none"" stroke-width=""1.5"" fill=""none"" />
    <circle cx=638.7411730509958 cy=400 r=11.4110872880785 stroke=""none"" stroke-width=""1.5"" fill=""none"" />
    <circle cx=668.41 cy=370.3311730509959 r=11.4110872880785 stroke=""none"" stroke-width=""1.5"" fill=""none"" />
    <polygon points = ""668.41,400 671.6198817987,411.4110872880785 665.2001182012999,411.4110872880785"" stroke=""none"" stroke-width=""3"" fill = ""none"" />
    
    </svg>
    </div>
        ","","","","","","","","","","","","get_response","true","aqgAqqtujyVpu9RL","","","false","false","true","91.41","4","449.196","29.6688269490041","1.3","1","0","","",""
"html-keyboard-response","91","223873","0.0-91.0","null","null","","
    <div style="" display: block;  position: relative;"">
    
    <svg width=1280 height=800>
    <circle cx=577 cy=400 r=7.987761101654949 stroke=""black"" stroke-width=""1"" fill=""black"" />
    <circle cx=698.0788269490041 cy=400 r=11.4110872880785 stroke=""none"" stroke-width=""1.5"" fill=""none"" />
    <circle cx=668.41 cy=429.6688269490041 r=11.4110872880785 stroke=""none"" stroke-width=""1.5"" fill=""none"" />
    <circle cx=638.7411730509958 cy=400 r=11.4110872880785 stroke=""none"" stroke-width=""1.5"" fill=""none"" />
    <circle cx=668.41 cy=370.3311730509959 r=11.4110872880785 stroke=""none"" stroke-width=""1.5"" fill=""none"" />
    <polygon points = ""668.41,400 671.6198817987,411.4110872880785 665.2001182012999,411.4110872880785"" stroke=""none"" stroke-width=""3"" fill = ""none"" />
    
    </svg>
    </div>
        ","","","","","","","","","","","","","","","","","","","","","","","","","","","","",""
"html-keyboard-response","92","224025","0.0-92.0","null","null","","
    <div style="" display: block;  position: relative;"">
    <svg width=1280 height=800>
    
    <circle cx=577 cy=400 r=7.987761101654949 stroke=""black"" stroke-width=""1"" fill=""black"" />
    <circle cx=668.41 cy=400 r=11.4110872880785 stroke=""black"" stroke-width=""1.5"" fill=""none"" />
    <circle cx=695.381660862731 cy=400 r=11.4110872880785 stroke=""black"" stroke-width=""1.5"" fill=""none"" />
    <circle cx=668.41 cy=426.97166086273097 r=11.4110872880785 stroke=""black"" stroke-width=""1.5"" fill=""none"" />
    <circle cx=641.4383391372689 cy=400 r=11.4110872880785 stroke=""black"" stroke-width=""1.5"" fill=""none"" />
    <circle cx=668.41 cy=373.02833913726903 r=11.4110872880785 stroke=""black"" stroke-width=""1.5"" fill=""none"" />
    <polygon points = ""668.41,400 671.6198817987,411.4110872880785 665.2001182012999,411.4110872880785"" stroke=""white"" stroke-width=""3"" fill = ""white"" />
    
    </svg>
    </div>
        ","","","","","","","","","","","","stimulus","","","","","","","","","","","","","","","","",""
"html-keyboard-response","93","224660","0.0-93.0","633.8999999985099","arrowup","","
    <div style="" display: block;  position: relative;"">
    
    <svg width=1280 height=800>
    <circle cx=577 cy=400 r=7.987761101654949 stroke=""black"" stroke-width=""1"" fill=""black"" />
    <circle cx=695.381660862731 cy=400 r=11.4110872880785 stroke=""none"" stroke-width=""1.5"" fill=""none"" />
    <circle cx=668.41 cy=426.97166086273097 r=11.4110872880785 stroke=""none"" stroke-width=""1.5"" fill=""none"" />
    <circle cx=641.4383391372689 cy=400 r=11.4110872880785 stroke=""none"" stroke-width=""1.5"" fill=""none"" />
    <circle cx=668.41 cy=373.02833913726903 r=11.4110872880785 stroke=""none"" stroke-width=""1.5"" fill=""none"" />
    <polygon points = ""668.41,400 671.6198817987,411.4110872880785 665.2001182012999,411.4110872880785"" stroke=""none"" stroke-width=""3"" fill = ""none"" />
    
    </svg>
    </div>
        ","","","","","","","","","","","","get_response","false","aqgAqqtujyVpu9RL","","","false","false","true","91.41","4","449.196","26.971660862730996","1.18","1","0","","",""
"html-keyboard-response","94","225164","0.0-94.0","null","null","","
    <div style="" display: block;  position: relative;"">
    
    <svg width=1280 height=800>
    <circle cx=577 cy=400 r=7.987761101654949 stroke=""black"" stroke-width=""1"" fill=""black"" />
    <circle cx=695.381660862731 cy=400 r=11.4110872880785 stroke=""none"" stroke-width=""1.5"" fill=""none"" />
    <circle cx=668.41 cy=426.97166086273097 r=11.4110872880785 stroke=""none"" stroke-width=""1.5"" fill=""none"" />
    <circle cx=641.4383391372689 cy=400 r=11.4110872880785 stroke=""none"" stroke-width=""1.5"" fill=""none"" />
    <circle cx=668.41 cy=373.02833913726903 r=11.4110872880785 stroke=""none"" stroke-width=""1.5"" fill=""none"" />
    <polygon points = ""668.41,400 671.6198817987,411.4110872880785 665.2001182012999,411.4110872880785"" stroke=""none"" stroke-width=""3"" fill = ""none"" />
    
    </svg>
    </div>
        ","","","","","","","","","","","","","","","","","","","","","","","","","","","","",""
"html-keyboard-response","95","225320","0.0-95.0","null","null","","
    <div style="" display: block;  position: relative;"">
    <svg width=1280 height=800>
    
    <circle cx=577 cy=400 r=7.987761101654949 stroke=""black"" stroke-width=""1"" fill=""black"" />
    <circle cx=668.41 cy=400 r=11.4110872880785 stroke=""black"" stroke-width=""1.5"" fill=""none"" />
    <circle cx=703.4731591215502 cy=400 r=11.4110872880785 stroke=""black"" stroke-width=""1.5"" fill=""none"" />
    <circle cx=668.41 cy=435.0631591215503 r=11.4110872880785 stroke=""black"" stroke-width=""1.5"" fill=""none"" />
    <circle cx=633.3468408784497 cy=400 r=11.4110872880785 stroke=""black"" stroke-width=""1.5"" fill=""none"" />
    <circle cx=668.41 cy=364.9368408784497 r=11.4110872880785 stroke=""black"" stroke-width=""1.5"" fill=""none"" />
    <polygon points = ""668.41,400 671.6198817987,388.5889127119215 665.2001182012999,388.5889127119215"" stroke=""white"" stroke-width=""3"" fill = ""white"" />
    
    </svg>
    </div>
        ","","","","","","","","","","","","stimulus","","","","","","","","","","","","","","","","",""
"html-keyboard-response","96","225670","0.0-96.0","349.6000000014901","arrowup","","
    <div style="" display: block;  position: relative;"">
    
    <svg width=1280 height=800>
    <circle cx=577 cy=400 r=7.987761101654949 stroke=""black"" stroke-width=""1"" fill=""black"" />
    <circle cx=703.4731591215502 cy=400 r=11.4110872880785 stroke=""none"" stroke-width=""1.5"" fill=""none"" />
    <circle cx=668.41 cy=435.0631591215503 r=11.4110872880785 stroke=""none"" stroke-width=""1.5"" fill=""none"" />
    <circle cx=633.3468408784497 cy=400 r=11.4110872880785 stroke=""none"" stroke-width=""1.5"" fill=""none"" />
    <circle cx=668.41 cy=364.9368408784497 r=11.4110872880785 stroke=""none"" stroke-width=""1.5"" fill=""none"" />
    <polygon points = ""668.41,400 671.6198817987,388.5889127119215 665.2001182012999,388.5889127119215"" stroke=""none"" stroke-width=""3"" fill = ""none"" />
    
    </svg>
    </div>
