"trial_type","trial_index","time_elapsed","internal_node_id","rt","response","success","stimulus","start_time","start_time_unix","item_width_mm","item_height_mm","item_width_px","px2mm","view_dist_mm","item_width_deg","px2deg","win_width_deg","win_height_deg","trialType","correct","participantID","criticalSpacing","criticalSpacing_deg","isLeft","isUp","isEccen4","eccentricity","eccentricity_deg","viewingDistanceMean","critical_spacing","critical_spacing_deg","crowding_session","correctRate","viewDistance_1","viewDistance_2","viewDistance_3"
"pavlovia","0","2","0.0-0.0","","","","","","","","","","","","","","","","","","","","","","","","","","","","","","","","",""
"survey-text","1","36602","0.0-1.0","36586.200000047684","{""Q0"":""""}","","","","","","","","","","","","","","","","","","","","","","","","","","","","","","",""
"fullscreen","2","41872","0.0-2.0","","","true","","","","","","","","","","","","","","","","","","","","","","","","","","","","","",""
"html-keyboard-response","3","45243","0.0-3.0","3369.2000000476837","enter","","<h1>Consent Form</h1>
       <p>By answering the following questions, you are participating in a study being performed by cognitive scientists in the Stanford Department of Psychology. If you have questions about this research, please contact us at stanfordpsych251@gmail.com. You must be at least 18 years old to participate. Your participation in this research is voluntary. You may decline to answer any or all of the following questions. You may decline further participation by closing the window, at any time, without adverse consequences. Your anonymity is assured; the researchers who have requested your participation will not receive any personal information about you.</p>
       <p>Press <b>any key</b> to start the experiment!</p>","","","","","","","","","","","","","","","","","","","","","","","","","","","","",""
"html-keyboard-response","4","48450","0.0-4.0","3207","enter","","<h1>Welcome to the Visual Crowding Experiment!</h1>
       <p>This test will take <b>10-12</b> minutes to complete.</p>
       <p>Press any key to start the experiment!</p>","12/1/2021, 9:19:03 AM","1638343143545","","","","","","","","","","","","","","","","","","","","","","","","","","",""
"html-keyboard-response","5","59827","0.0-5.0","11375.600000023842","arrowdown","","<div> 
<p> Before you begin this study, let&#39;s quickly test how far away you are sitting. You might know that vision tests at a doctor&#39;s practice often involve chinrests, the doctor basically asks you to sit away from a screen in a specific distance. We do this here with a <b>virtual chinrest</b>. </p>
<p> Please press the <b>down</b> arrow to continue.
</p>
</div>","","","","","","","","","","","","","","","","","","","","","","","","","","","","",""
"virtual-chinrest","6","233178","0.0-6.0","173350.80000007153","","","","","","85.6","53.98","532","6.21","271.49","17.917725471099047","29.69126861878233","64.66547538441762","32.63585710807327","","","","","","","","","","","","","","","","","",""
"html-keyboard-response","7","290843","0.0-7.0","57662.800000071526","arrowdown","","
	<h2 class=""bolded-blue"">Now, you will take a peripheral vision test!</h2>
<p> 
	<b>
		<font size=""140%"">1. </font>
	</b>
	<em><b>Please use both eyes for the following task.</b></em> First, you will see a screen (like the one in the image below) showing a <b>black dot</b> in the middle of the screen, with a group of circles displayed on either the <span class=""bolded-blue"">left</span> or <span class=""bolded-blue"">right</span> of the black dot for 150 ms. <span class=""bolded-blue"">Please make sure to focus on the black dot all the time!</span>

	<div>
		<img src=""example.png"" alt=""example"" style=""border: 2px solid black"" width=""600""/> 
	</div>
	
	<b>
		<font size=""140%"">2. </font>
	</b>
	Your task is to identify whether the opening of the <b class=""bolded-blue"">center circle</b> is upward by pressing UP or downward by pressing DOWN on your keyboard. The opening of the circle will only be upward or downward, not towards left or right.

	<div>
		<img src=""arrow_keys+.png"" alt=""arrows"" style=""border: 2px solid black"" width=""600""/>
	</div>
	<br>

<p>Please press the <b>down</b> arrow key to start the <span class=""bolded-blue"">practice task</span> (this first practice task will not count toward your final results).</p>
</p>
","","","","","","","","","","","","","","","","","","","","","","","","","","","","",""
"html-keyboard-response","8","291354","0.0-8.0","null","null","","
    <div style="" display: block;  position: relative;"">
    
    <svg width=1920 height=969>
    <circle cx=897 cy=484.5 r=12.16648700252837 stroke=""black"" stroke-width=""1"" fill=""black"" />
    <circle cx=NaN cy=484.5 r=17.380695717897673 stroke=""none"" stroke-width=""1.5"" fill=""none"" />
    <circle cx=688.59 cy=NaN r=17.380695717897673 stroke=""none"" stroke-width=""1.5"" fill=""none"" />
    <circle cx=NaN cy=484.5 r=17.380695717897673 stroke=""none"" stroke-width=""1.5"" fill=""none"" />
    <circle cx=688.59 cy=NaN r=17.380695717897673 stroke=""none"" stroke-width=""1.5"" fill=""none"" />
    <polygon points = ""688.59,484.5 693.4791028019661,501.88069571789765 683.700897198034,501.88069571789765"" stroke=""none"" stroke-width=""3"" fill = ""none"" />
    
    </svg>
    </div>
        ","","","","","","","","","","","","","","","","","","","","","","","","","","","","",""
"html-keyboard-response","9","291523","0.0-9.0","null","null","","
    <div style="" display: block;  position: relative;"">
    <svg width=1920 height=969>
    
    <circle cx=897 cy=484.5 r=12.16648700252837 stroke=""black"" stroke-width=""1"" fill=""black"" />
    <circle cx=1105.41 cy=484.5 r=17.380695717897673 stroke=""black"" stroke-width=""1.5"" fill=""none"" />
    <circle cx=1240.8765 cy=484.5 r=17.380695717897673 stroke=""black"" stroke-width=""1.5"" fill=""none"" />
    <circle cx=1105.41 cy=619.9665 r=17.380695717897673 stroke=""black"" stroke-width=""1.5"" fill=""none"" />
    <circle cx=969.9435000000001 cy=484.5 r=17.380695717897673 stroke=""black"" stroke-width=""1.5"" fill=""none"" />
    <circle cx=1105.41 cy=349.0335 r=17.380695717897673 stroke=""black"" stroke-width=""1.5"" fill=""none"" />
    <polygon points = ""1105.41,484.5 1110.299102801966,467.11930428210235 1100.5208971980342,467.11930428210235"" stroke=""white"" stroke-width=""3"" fill = ""white"" />
    
    </svg>
    </div>
        ","","","","","","","","","","","","stimulus","","","","","","","","","","","","","","","","",""
"html-keyboard-response","10","292225","0.0-10.0","700.6000000238419","arrowup","","
    <div style="" display: block;  position: relative;"">
    
    <svg width=1920 height=969>
    <circle cx=897 cy=484.5 r=12.16648700252837 stroke=""black"" stroke-width=""1"" fill=""black"" />
    <circle cx=1240.8765 cy=484.5 r=17.380695717897673 stroke=""none"" stroke-width=""1.5"" fill=""none"" />
    <circle cx=1105.41 cy=619.9665 r=17.380695717897673 stroke=""none"" stroke-width=""1.5"" fill=""none"" />
    <circle cx=969.9435000000001 cy=484.5 r=17.380695717897673 stroke=""none"" stroke-width=""1.5"" fill=""none"" />
    <circle cx=1105.41 cy=349.0335 r=17.380695717897673 stroke=""none"" stroke-width=""1.5"" fill=""none"" />
    <polygon points = ""1105.41,484.5 1110.299102801966,467.11930428210235 1100.5208971980342,467.11930428210235"" stroke=""none"" stroke-width=""3"" fill = ""none"" />
    
    </svg>
    </div>
        ","","","","","","","","","","","","practice_get_response","true","G0BcrRv4Go2y1eT4","135.4665","3.89","false","true","false","208.41","6","321.71200000000005","","","","","","",""
"html-keyboard-response","11","292734","0.0-11.0","null","null","","
    <div style="" display: block;  position: relative;"">
    
    <svg width=1920 height=969>
    <circle cx=897 cy=484.5 r=12.16648700252837 stroke=""black"" stroke-width=""1"" fill=""black"" />
    <circle cx=1240.8765 cy=484.5 r=17.380695717897673 stroke=""none"" stroke-width=""1.5"" fill=""none"" />
    <circle cx=1105.41 cy=619.9665 r=17.380695717897673 stroke=""none"" stroke-width=""1.5"" fill=""none"" />
    <circle cx=969.9435000000001 cy=484.5 r=17.380695717897673 stroke=""none"" stroke-width=""1.5"" fill=""none"" />
    <circle cx=1105.41 cy=349.0335 r=17.380695717897673 stroke=""none"" stroke-width=""1.5"" fill=""none"" />
    <polygon points = ""1105.41,484.5 1110.299102801966,467.11930428210235 1100.5208971980342,467.11930428210235"" stroke=""none"" stroke-width=""3"" fill = ""none"" />
    
    </svg>
    </div>
        ","","","","","","","","","","","","","","","","","","","","","","","","","","","","",""
"html-keyboard-response","12","292890","0.0-12.0","null","null","","
    <div style="" display: block;  position: relative;"">
    <svg width=1920 height=969>
    
    <circle cx=897 cy=484.5 r=12.16648700252837 stroke=""black"" stroke-width=""1"" fill=""black"" />
    <circle cx=1105.41 cy=484.5 r=17.380695717897673 stroke=""black"" stroke-width=""1.5"" fill=""none"" />
    <circle cx=1240.8765 cy=484.5 r=17.380695717897673 stroke=""black"" stroke-width=""1.5"" fill=""none"" />
    <circle cx=1105.41 cy=619.9665 r=17.380695717897673 stroke=""black"" stroke-width=""1.5"" fill=""none"" />
    <circle cx=969.9435000000001 cy=484.5 r=17.380695717897673 stroke=""black"" stroke-width=""1.5"" fill=""none"" />
    <circle cx=1105.41 cy=349.0335 r=17.380695717897673 stroke=""black"" stroke-width=""1.5"" fill=""none"" />
    <polygon points = ""1105.41,484.5 1110.299102801966,467.11930428210235 1100.5208971980342,467.11930428210235"" stroke=""white"" stroke-width=""3"" fill = ""white"" />
    
    </svg>
    </div>
        ","","","","","","","","","","","","stimulus","","","","","","","","","","","","","","","","",""
"html-keyboard-response","13","293475","0.0-13.0","582.3000000715256","arrowup","","
    <div style="" display: block;  position: relative;"">
    
    <svg width=1920 height=969>
    <circle cx=897 cy=484.5 r=12.16648700252837 stroke=""black"" stroke-width=""1"" fill=""black"" />
    <circle cx=1240.8765 cy=484.5 r=17.380695717897673 stroke=""none"" stroke-width=""1.5"" fill=""none"" />
    <circle cx=1105.41 cy=619.9665 r=17.380695717897673 stroke=""none"" stroke-width=""1.5"" fill=""none"" />
    <circle cx=969.9435000000001 cy=484.5 r=17.380695717897673 stroke=""none"" stroke-width=""1.5"" fill=""none"" />
    <circle cx=1105.41 cy=349.0335 r=17.380695717897673 stroke=""none"" stroke-width=""1.5"" fill=""none"" />
    <polygon points = ""1105.41,484.5 1110.299102801966,467.11930428210235 1100.5208971980342,467.11930428210235"" stroke=""none"" stroke-width=""3"" fill = ""none"" />
    
    </svg>
    </div>
        ","","","","","","","","","","","","practice_get_response","true","G0BcrRv4Go2y1eT4","135.4665","3.89","false","true","false","208.41","6","321.71200000000005","","","","","","",""
"html-keyboard-response","14","293987","0.0-14.0","null","null","","
    <div style="" display: block;  position: relative;"">
    
    <svg width=1920 height=969>
    <circle cx=897 cy=484.5 r=12.16648700252837 stroke=""black"" stroke-width=""1"" fill=""black"" />
    <circle cx=1240.8765 cy=484.5 r=17.380695717897673 stroke=""none"" stroke-width=""1.5"" fill=""none"" />
    <circle cx=1105.41 cy=619.9665 r=17.380695717897673 stroke=""none"" stroke-width=""1.5"" fill=""none"" />
    <circle cx=969.9435000000001 cy=484.5 r=17.380695717897673 stroke=""none"" stroke-width=""1.5"" fill=""none"" />
    <circle cx=1105.41 cy=349.0335 r=17.380695717897673 stroke=""none"" stroke-width=""1.5"" fill=""none"" />
    <polygon points = ""1105.41,484.5 1110.299102801966,467.11930428210235 1100.5208971980342,467.11930428210235"" stroke=""none"" stroke-width=""3"" fill = ""none"" />
    
    </svg>
    </div>
        ","","","","","","","","","","","","","","","","","","","","","","","","","","","","",""
"html-keyboard-response","15","294142","0.0-15.0","null","null","","
    <div style="" display: block;  position: relative;"">
    <svg width=1920 height=969>
    
    <circle cx=897 cy=484.5 r=12.16648700252837 stroke=""black"" stroke-width=""1"" fill=""black"" />
    <circle cx=1105.41 cy=484.5 r=17.380695717897673 stroke=""black"" stroke-width=""1.5"" fill=""none"" />
    <circle cx=1240.8765 cy=484.5 r=17.380695717897673 stroke=""black"" stroke-width=""1.5"" fill=""none"" />
    <circle cx=1105.41 cy=619.9665 r=17.380695717897673 stroke=""black"" stroke-width=""1.5"" fill=""none"" />
    <circle cx=969.9435000000001 cy=484.5 r=17.380695717897673 stroke=""black"" stroke-width=""1.5"" fill=""none"" />
    <circle cx=1105.41 cy=349.0335 r=17.380695717897673 stroke=""black"" stroke-width=""1.5"" fill=""none"" />
    <polygon points = ""1105.41,484.5 1110.299102801966,501.88069571789765 1100.5208971980342,501.88069571789765"" stroke=""white"" stroke-width=""3"" fill = ""white"" />
    
    </svg>
    </div>
        ","","","","","","","","","","","","stimulus","","","","","","","","","","","","","","","","",""
"html-keyboard-response","16","294803","0.0-16.0","659","arrowdown","","
    <div style="" display: block;  position: relative;"">
    
    <svg width=1920 height=969>
    <circle cx=897 cy=484.5 r=12.16648700252837 stroke=""black"" stroke-width=""1"" fill=""black"" />
    <circle cx=1240.8765 cy=484.5 r=17.380695717897673 stroke=""none"" stroke-width=""1.5"" fill=""none"" />
    <circle cx=1105.41 cy=619.9665 r=17.380695717897673 stroke=""none"" stroke-width=""1.5"" fill=""none"" />
    <circle cx=969.9435000000001 cy=484.5 r=17.380695717897673 stroke=""none"" stroke-width=""1.5"" fill=""none"" />
    <circle cx=1105.41 cy=349.0335 r=17.380695717897673 stroke=""none"" stroke-width=""1.5"" fill=""none"" />
    <polygon points = ""1105.41,484.5 1110.299102801966,501.88069571789765 1100.5208971980342,501.88069571789765"" stroke=""none"" stroke-width=""3"" fill = ""none"" />
    
    </svg>
    </div>
        ","","","","","","","","","","","","practice_get_response","true","G0BcrRv4Go2y1eT4","135.4665","3.89","false","false","false","208.41","6","321.71200000000005","","","","","","",""
"html-keyboard-response","17","295320","0.0-17.0","null","null","","
    <div style="" display: block;  position: relative;"">
    
    <svg width=1920 height=969>
    <circle cx=897 cy=484.5 r=12.16648700252837 stroke=""black"" stroke-width=""1"" fill=""black"" />
    <circle cx=1240.8765 cy=484.5 r=17.380695717897673 stroke=""none"" stroke-width=""1.5"" fill=""none"" />
    <circle cx=1105.41 cy=619.9665 r=17.380695717897673 stroke=""none"" stroke-width=""1.5"" fill=""none"" />
    <circle cx=969.9435000000001 cy=484.5 r=17.380695717897673 stroke=""none"" stroke-width=""1.5"" fill=""none"" />
    <circle cx=1105.41 cy=349.0335 r=17.380695717897673 stroke=""none"" stroke-width=""1.5"" fill=""none"" />
    <polygon points = ""1105.41,484.5 1110.299102801966,501.88069571789765 1100.5208971980342,501.88069571789765"" stroke=""none"" stroke-width=""3"" fill = ""none"" />
    
    </svg>
    </div>
        ","","","","","","","","","","","","","","","","","","","","","","","","","","","","",""
"html-keyboard-response","18","295476","0.0-18.0","null","null","","
    <div style="" display: block;  position: relative;"">
    <svg width=1920 height=969>
    
    <circle cx=897 cy=484.5 r=12.16648700252837 stroke=""black"" stroke-width=""1"" fill=""black"" />
    <circle cx=1105.41 cy=484.5 r=17.380695717897673 stroke=""black"" stroke-width=""1.5"" fill=""none"" />
    <circle cx=1228.5613636363637 cy=484.5 r=17.380695717897673 stroke=""black"" stroke-width=""1.5"" fill=""none"" />
    <circle cx=1105.41 cy=607.6513636363636 r=17.380695717897673 stroke=""black"" stroke-width=""1.5"" fill=""none"" />
    <circle cx=982.2586363636365 cy=484.5 r=17.380695717897673 stroke=""black"" stroke-width=""1.5"" fill=""none"" />
    <circle cx=1105.41 cy=361.3486363636364 r=17.380695717897673 stroke=""black"" stroke-width=""1.5"" fill=""none"" />
    <polygon points = ""1105.41,484.5 1110.299102801966,467.11930428210235 1100.5208971980342,467.11930428210235"" stroke=""white"" stroke-width=""3"" fill = ""white"" />
    
    </svg>
    </div>
        ","","","","","","","","","","","","stimulus","","","","","","","","","","","","","","","","",""
"html-keyboard-response","19","295985","0.0-19.0","508.40000009536743","arrowup","","
    <div style="" display: block;  position: relative;"">
    
    <svg width=1920 height=969>
    <circle cx=897 cy=484.5 r=12.16648700252837 stroke=""black"" stroke-width=""1"" fill=""black"" />
    <circle cx=1228.5613636363637 cy=484.5 r=17.380695717897673 stroke=""none"" stroke-width=""1.5"" fill=""none"" />
    <circle cx=1105.41 cy=607.6513636363636 r=17.380695717897673 stroke=""none"" stroke-width=""1.5"" fill=""none"" />
    <circle cx=982.2586363636365 cy=484.5 r=17.380695717897673 stroke=""none"" stroke-width=""1.5"" fill=""none"" />
    <circle cx=1105.41 cy=361.3486363636364 r=17.380695717897673 stroke=""none"" stroke-width=""1.5"" fill=""none"" />
    <polygon points = ""1105.41,484.5 1110.299102801966,467.11930428210235 1100.5208971980342,467.11930428210235"" stroke=""none"" stroke-width=""3"" fill = ""none"" />
    
    </svg>
    </div>
        ","","","","","","","","","","","","practice_get_response","true","G0BcrRv4Go2y1eT4","123.15136363636363","3.54","false","true","false","208.41","6","321.71200000000005","","","","","","",""
"html-keyboard-response","20","296492","0.0-20.0","null","null","","
    <div style="" display: block;  position: relative;"">
    
    <svg width=1920 height=969>
    <circle cx=897 cy=484.5 r=12.16648700252837 stroke=""black"" stroke-width=""1"" fill=""black"" />
    <circle cx=1228.5613636363637 cy=484.5 r=17.380695717897673 stroke=""none"" stroke-width=""1.5"" fill=""none"" />
    <circle cx=1105.41 cy=607.6513636363636 r=17.380695717897673 stroke=""none"" stroke-width=""1.5"" fill=""none"" />
    <circle cx=982.2586363636365 cy=484.5 r=17.380695717897673 stroke=""none"" stroke-width=""1.5"" fill=""none"" />
    <circle cx=1105.41 cy=361.3486363636364 r=17.380695717897673 stroke=""none"" stroke-width=""1.5"" fill=""none"" />
    <polygon points = ""1105.41,484.5 1110.299102801966,467.11930428210235 1100.5208971980342,467.11930428210235"" stroke=""none"" stroke-width=""3"" fill = ""none"" />
    
    </svg>
    </div>
        ","","","","","","","","","","","","","","","","","","","","","","","","","","","","",""
"html-keyboard-response","21","296646","0.0-21.0","null","null","","
    <div style="" display: block;  position: relative;"">
    <svg width=1920 height=969>
    
    <circle cx=897 cy=484.5 r=12.16648700252837 stroke=""black"" stroke-width=""1"" fill=""black"" />
    <circle cx=1105.41 cy=484.5 r=17.380695717897673 stroke=""black"" stroke-width=""1.5"" fill=""none"" />
    <circle cx=1217.365785123967 cy=484.5 r=17.380695717897673 stroke=""black"" stroke-width=""1.5"" fill=""none"" />
    <circle cx=1105.41 cy=596.455785123967 r=17.380695717897673 stroke=""black"" stroke-width=""1.5"" fill=""none"" />
    <circle cx=993.4542148760331 cy=484.5 r=17.380695717897673 stroke=""black"" stroke-width=""1.5"" fill=""none"" />
    <circle cx=1105.41 cy=372.5442148760331 r=17.380695717897673 stroke=""black"" stroke-width=""1.5"" fill=""none"" />
    <polygon points = ""1105.41,484.5 1110.299102801966,467.11930428210235 1100.5208971980342,467.11930428210235"" stroke=""white"" stroke-width=""3"" fill = ""white"" />
    
    </svg>
    </div>
        ","","","","","","","","","","","","stimulus","","","","","","","","","","","","","","","","",""
"html-keyboard-response","22","297131","0.0-22.0","483.2999999523163","arrowup","","
    <div style="" display: block;  position: relative;"">
    
    <svg width=1920 height=969>
    <circle cx=897 cy=484.5 r=12.16648700252837 stroke=""black"" stroke-width=""1"" fill=""black"" />
    <circle cx=1217.365785123967 cy=484.5 r=17.380695717897673 stroke=""none"" stroke-width=""1.5"" fill=""none"" />
    <circle cx=1105.41 cy=596.455785123967 r=17.380695717897673 stroke=""none"" stroke-width=""1.5"" fill=""none"" />
    <circle cx=993.4542148760331 cy=484.5 r=17.380695717897673 stroke=""none"" stroke-width=""1.5"" fill=""none"" />
    <circle cx=1105.41 cy=372.5442148760331 r=17.380695717897673 stroke=""none"" stroke-width=""1.5"" fill=""none"" />
    <polygon points = ""1105.41,484.5 1110.299102801966,467.11930428210235 1100.5208971980342,467.11930428210235"" stroke=""none"" stroke-width=""3"" fill = ""none"" />
    
    </svg>
    </div>
        ","","","","","","","","","","","","practice_get_response","true","G0BcrRv4Go2y1eT4","111.95578512396692","3.21","false","true","false","208.41","6","321.71200000000005","","","","","","",""
"html-keyboard-response","23","304714","0.0-23.0","7582.200000047684","arrowdown","","<div> 
<h2 class=""bolded-blue"">Well done!</h2>
<p> Now that you have the hang of it, we&#39;ll start the study. This session has 25 trials and takes about 2 minute to complete. </p> 
<p>If you are ready for the real deal, please press the <b>down</b> arrow to continue.
</p>
</div>","","","","","","","","","","","","","","","","","","","","","","","","","","","","",""
"html-keyboard-response","24","314435","0.0-24.0","9718.600000023842","arrowdown","","<div id=""continue""> 
<p>Again, please keep the <b>full screen</b> mode for the best experience.</p>
<p>Please do not move around and keep your eye on the black dot. Click <b>up</b> or <b>down</b> key on your keyboard to indicate the opening of the center circle. Make your best guess!</p>
<p>Please press the <b>down</b> arrow key to start the session 1. </p>
</div>","","","","","","","","","","","","","","","","","","","","","","","","","","","","",""
"html-keyboard-response","25","314938","0.0-25.0","null","null","","
    <div style="" display: block;  position: relative;"">
    
    <svg width=1920 height=969>
    <circle cx=897 cy=484.5 r=12.16648700252837 stroke=""black"" stroke-width=""1"" fill=""black"" />
    <circle cx=800.545785123967 cy=484.5 r=17.380695717897673 stroke=""none"" stroke-width=""1.5"" fill=""none"" />
    <circle cx=688.59 cy=596.455785123967 r=17.380695717897673 stroke=""none"" stroke-width=""1.5"" fill=""none"" />
    <circle cx=576.6342148760331 cy=484.5 r=17.380695717897673 stroke=""none"" stroke-width=""1.5"" fill=""none"" />
    <circle cx=688.59 cy=372.5442148760331 r=17.380695717897673 stroke=""none"" stroke-width=""1.5"" fill=""none"" />
    <polygon points = ""688.59,484.5 693.4791028019661,501.88069571789765 683.700897198034,501.88069571789765"" stroke=""none"" stroke-width=""3"" fill = ""none"" />
    
    </svg>
    </div>
        ","","","","","","","","","","","","","","","","","","","","","","","","","","","","",""
"html-keyboard-response","26","315094","0.0-26.0","null","null","","
    <div style="" display: block;  position: relative;"">
    <svg width=1920 height=969>
    
    <circle cx=897 cy=484.5 r=12.16648700252837 stroke=""black"" stroke-width=""1"" fill=""black"" />
    <circle cx=688.59 cy=484.5 r=17.380695717897673 stroke=""black"" stroke-width=""1.5"" fill=""none"" />
    <circle cx=824.0565 cy=484.5 r=17.380695717897673 stroke=""black"" stroke-width=""1.5"" fill=""none"" />
    <circle cx=688.59 cy=619.9665 r=17.380695717897673 stroke=""black"" stroke-width=""1.5"" fill=""none"" />
    <circle cx=553.1235 cy=484.5 r=17.380695717897673 stroke=""black"" stroke-width=""1.5"" fill=""none"" />
    <circle cx=688.59 cy=349.0335 r=17.380695717897673 stroke=""black"" stroke-width=""1.5"" fill=""none"" />
    <polygon points = ""688.59,484.5 693.4791028019661,501.88069571789765 683.700897198034,501.88069571789765"" stroke=""white"" stroke-width=""3"" fill = ""white"" />
    
    </svg>
    </div>
        ","","","","","","","","","","","","stimulus","","","","","","","","","","","","","","","","",""
"html-keyboard-response","27","315682","0.0-27.0","586.3999999761581","arrowdown","","
    <div style="" display: block;  position: relative;"">
    
    <svg width=1920 height=969>
    <circle cx=897 cy=484.5 r=12.16648700252837 stroke=""black"" stroke-width=""1"" fill=""black"" />
    <circle cx=824.0565 cy=484.5 r=17.380695717897673 stroke=""none"" stroke-width=""1.5"" fill=""none"" />
    <circle cx=688.59 cy=619.9665 r=17.380695717897673 stroke=""none"" stroke-width=""1.5"" fill=""none"" />
    <circle cx=553.1235 cy=484.5 r=17.380695717897673 stroke=""none"" stroke-width=""1.5"" fill=""none"" />
    <circle cx=688.59 cy=349.0335 r=17.380695717897673 stroke=""none"" stroke-width=""1.5"" fill=""none"" />
    <polygon points = ""688.59,484.5 693.4791028019661,501.88069571789765 683.700897198034,501.88069571789765"" stroke=""none"" stroke-width=""3"" fill = ""none"" />
    
    </svg>
    </div>
        ","","","","","","","","","","","","get_response","true","G0BcrRv4Go2y1eT4","","","true","false","false","208.41","6","321.71200000000005","135.4665","3.89","1","0","","",""
"html-keyboard-response","28","316196","0.0-28.0","null","null","","
    <div style="" display: block;  position: relative;"">
    
    <svg width=1920 height=969>
    <circle cx=897 cy=484.5 r=12.16648700252837 stroke=""black"" stroke-width=""1"" fill=""black"" />
    <circle cx=824.0565 cy=484.5 r=17.380695717897673 stroke=""none"" stroke-width=""1.5"" fill=""none"" />
    <circle cx=688.59 cy=619.9665 r=17.380695717897673 stroke=""none"" stroke-width=""1.5"" fill=""none"" />
    <circle cx=553.1235 cy=484.5 r=17.380695717897673 stroke=""none"" stroke-width=""1.5"" fill=""none"" />
    <circle cx=688.59 cy=349.0335 r=17.380695717897673 stroke=""none"" stroke-width=""1.5"" fill=""none"" />
    <polygon points = ""688.59,484.5 693.4791028019661,501.88069571789765 683.700897198034,501.88069571789765"" stroke=""none"" stroke-width=""3"" fill = ""none"" />
    
    </svg>
    </div>
        ","","","","","","","","","","","","","","","","","","","","","","","","","","","","",""
"html-keyboard-response","29","316351","0.0-29.0","null","null","","
    <div style="" display: block;  position: relative;"">
    <svg width=1920 height=969>
    
    <circle cx=897 cy=484.5 r=12.16648700252837 stroke=""black"" stroke-width=""1"" fill=""black"" />
    <circle cx=1105.41 cy=484.5 r=17.380695717897673 stroke=""black"" stroke-width=""1.5"" fill=""none"" />
    <circle cx=1240.8765 cy=484.5 r=17.380695717897673 stroke=""black"" stroke-width=""1.5"" fill=""none"" />
    <circle cx=1105.41 cy=619.9665 r=17.380695717897673 stroke=""black"" stroke-width=""1.5"" fill=""none"" />
    <circle cx=969.9435000000001 cy=484.5 r=17.380695717897673 stroke=""black"" stroke-width=""1.5"" fill=""none"" />
    <circle cx=1105.41 cy=349.0335 r=17.380695717897673 stroke=""black"" stroke-width=""1.5"" fill=""none"" />
    <polygon points = ""1105.41,484.5 1110.299102801966,467.11930428210235 1100.5208971980342,467.11930428210235"" stroke=""white"" stroke-width=""3"" fill = ""white"" />
    
    </svg>
    </div>
        ","","","","","","","","","","","","stimulus","","","","","","","","","","","","","","","","",""
"html-keyboard-response","30","317122","0.0-30.0","769.2999999523163","arrowup","","
    <div style="" display: block;  position: relative;"">
    
    <svg width=1920 height=969>
    <circle cx=897 cy=484.5 r=12.16648700252837 stroke=""black"" stroke-width=""1"" fill=""black"" />
    <circle cx=1240.8765 cy=484.5 r=17.380695717897673 stroke=""none"" stroke-width=""1.5"" fill=""none"" />
    <circle cx=1105.41 cy=619.9665 r=17.380695717897673 stroke=""none"" stroke-width=""1.5"" fill=""none"" />
    <circle cx=969.9435000000001 cy=484.5 r=17.380695717897673 stroke=""none"" stroke-width=""1.5"" fill=""none"" />
    <circle cx=1105.41 cy=349.0335 r=17.380695717897673 stroke=""none"" stroke-width=""1.5"" fill=""none"" />
    <polygon points = ""1105.41,484.5 1110.299102801966,467.11930428210235 1100.5208971980342,467.11930428210235"" stroke=""none"" stroke-width=""3"" fill = ""none"" />
    
    </svg>
    </div>
        ","","","","","","","","","","","","get_response","true","G0BcrRv4Go2y1eT4","","","false","true","false","208.41","6","321.71200000000005","135.4665","3.89","1","0","","",""
"html-keyboard-response","31","317627","0.0-31.0","null","null","","
    <div style="" display: block;  position: relative;"">
    
    <svg width=1920 height=969>
    <circle cx=897 cy=484.5 r=12.16648700252837 stroke=""black"" stroke-width=""1"" fill=""black"" />
    <circle cx=1240.8765 cy=484.5 r=17.380695717897673 stroke=""none"" stroke-width=""1.5"" fill=""none"" />
    <circle cx=1105.41 cy=619.9665 r=17.380695717897673 stroke=""none"" stroke-width=""1.5"" fill=""none"" />
    <circle cx=969.9435000000001 cy=484.5 r=17.380695717897673 stroke=""none"" stroke-width=""1.5"" fill=""none"" />
    <circle cx=1105.41 cy=349.0335 r=17.380695717897673 stroke=""none"" stroke-width=""1.5"" fill=""none"" />
    <polygon points = ""1105.41,484.5 1110.299102801966,467.11930428210235 1100.5208971980342,467.11930428210235"" stroke=""none"" stroke-width=""3"" fill = ""none"" />
    
    </svg>
    </div>
        ","","","","","","","","","","","","","","","","","","","","","","","","","","","","",""
"html-keyboard-response","32","317781","0.0-32.0","null","null","","
    <div style="" display: block;  position: relative;"">
    <svg width=1920 height=969>
    
    <circle cx=897 cy=484.5 r=12.16648700252837 stroke=""black"" stroke-width=""1"" fill=""black"" />
    <circle cx=688.59 cy=484.5 r=17.380695717897673 stroke=""black"" stroke-width=""1.5"" fill=""none"" />
    <circle cx=824.0565 cy=484.5 r=17.380695717897673 stroke=""black"" stroke-width=""1.5"" fill=""none"" />
    <circle cx=688.59 cy=619.9665 r=17.380695717897673 stroke=""black"" stroke-width=""1.5"" fill=""none"" />
    <circle cx=553.1235 cy=484.5 r=17.380695717897673 stroke=""black"" stroke-width=""1.5"" fill=""none"" />
    <circle cx=688.59 cy=349.0335 r=17.380695717897673 stroke=""black"" stroke-width=""1.5"" fill=""none"" />
    <polygon points = ""688.59,484.5 693.4791028019661,467.11930428210235 683.700897198034,467.11930428210235"" stroke=""white"" stroke-width=""3"" fill = ""white"" />
    
    </svg>
    </div>
        ","","","","","","","","","","","","stimulus","","","","","","","","","","","","","","","","",""
"html-keyboard-response","33","318338","0.0-33.0","556.1999999284744","arrowup","","
    <div style="" display: block;  position: relative;"">
    
    <svg width=1920 height=969>
    <circle cx=897 cy=484.5 r=12.16648700252837 stroke=""black"" stroke-width=""1"" fill=""black"" />
    <circle cx=824.0565 cy=484.5 r=17.380695717897673 stroke=""none"" stroke-width=""1.5"" fill=""none"" />
    <circle cx=688.59 cy=619.9665 r=17.380695717897673 stroke=""none"" stroke-width=""1.5"" fill=""none"" />
    <circle cx=553.1235 cy=484.5 r=17.380695717897673 stroke=""none"" stroke-width=""1.5"" fill=""none"" />
    <circle cx=688.59 cy=349.0335 r=17.380695717897673 stroke=""none"" stroke-width=""1.5"" fill=""none"" />
    <polygon points = ""688.59,484.5 693.4791028019661,467.11930428210235 683.700897198034,467.11930428210235"" stroke=""none"" stroke-width=""3"" fill = ""none"" />
    
    </svg>
    </div>
        ","","","","","","","","","","","","get_response","true","G0BcrRv4Go2y1eT4","","","true","true","false","208.41","6","321.71200000000005","135.4665","3.89","1","0","","",""
"html-keyboard-response","34","318850","0.0-34.0","null","null","","
    <div style="" display: block;  position: relative;"">
    
    <svg width=1920 height=969>
    <circle cx=897 cy=484.5 r=12.16648700252837 stroke=""black"" stroke-width=""1"" fill=""black"" />
    <circle cx=824.0565 cy=484.5 r=17.380695717897673 stroke=""none"" stroke-width=""1.5"" fill=""none"" />
    <circle cx=688.59 cy=619.9665 r=17.380695717897673 stroke=""none"" stroke-width=""1.5"" fill=""none"" />
    <circle cx=553.1235 cy=484.5 r=17.380695717897673 stroke=""none"" stroke-width=""1.5"" fill=""none"" />
    <circle cx=688.59 cy=349.0335 r=17.380695717897673 stroke=""none"" stroke-width=""1.5"" fill=""none"" />
    <polygon points = ""688.59,484.5 693.4791028019661,467.11930428210235 683.700897198034,467.11930428210235"" stroke=""none"" stroke-width=""3"" fill = ""none"" />
    
    </svg>
    </div>
        ","","","","","","","","","","","","","","","","","","","","","","","","","","","","",""
"html-keyboard-response","35","319004","0.0-35.0","null","null","","
    <div style="" display: block;  position: relative;"">
    <svg width=1920 height=969>
    
    <circle cx=897 cy=484.5 r=12.16648700252837 stroke=""black"" stroke-width=""1"" fill=""black"" />
    <circle cx=688.59 cy=484.5 r=17.380695717897673 stroke=""black"" stroke-width=""1.5"" fill=""none"" />
    <circle cx=811.7413636363636 cy=484.5 r=17.380695717897673 stroke=""black"" stroke-width=""1.5"" fill=""none"" />
    <circle cx=688.59 cy=607.6513636363636 r=17.380695717897673 stroke=""black"" stroke-width=""1.5"" fill=""none"" />
    <circle cx=565.4386363636364 cy=484.5 r=17.380695717897673 stroke=""black"" stroke-width=""1.5"" fill=""none"" />
    <circle cx=688.59 cy=361.3486363636364 r=17.380695717897673 stroke=""black"" stroke-width=""1.5"" fill=""none"" />
    <polygon points = ""688.59,484.5 693.4791028019661,501.88069571789765 683.700897198034,501.88069571789765"" stroke=""white"" stroke-width=""3"" fill = ""white"" />
    
    </svg>
    </div>
        ","","","","","","","","","","","","stimulus","","","","","","","","","","","","","","","","",""
"html-keyboard-response","36","320131","0.0-36.0","1124.6000000238419","arrowup","","
    <div style="" display: block;  position: relative;"">
    
    <svg width=1920 height=969>
    <circle cx=897 cy=484.5 r=12.16648700252837 stroke=""black"" stroke-width=""1"" fill=""black"" />
    <circle cx=811.7413636363636 cy=484.5 r=17.380695717897673 stroke=""none"" stroke-width=""1.5"" fill=""none"" />
    <circle cx=688.59 cy=607.6513636363636 r=17.380695717897673 stroke=""none"" stroke-width=""1.5"" fill=""none"" />
    <circle cx=565.4386363636364 cy=484.5 r=17.380695717897673 stroke=""none"" stroke-width=""1.5"" fill=""none"" />
    <circle cx=688.59 cy=361.3486363636364 r=17.380695717897673 stroke=""none"" stroke-width=""1.5"" fill=""none"" />
    <polygon points = ""688.59,484.5 693.4791028019661,501.88069571789765 683.700897198034,501.88069571789765"" stroke=""none"" stroke-width=""3"" fill = ""none"" />
    
    </svg>
    </div>
        ","","","","","","","","","","","","get_response","false","G0BcrRv4Go2y1eT4","","","true","false","false","208.41","6","321.71200000000005","123.15136363636363","3.54","1","0","","",""
"html-keyboard-response","37","320639","0.0-37.0","null","null","","
    <div style="" display: block;  position: relative;"">
    
    <svg width=1920 height=969>
    <circle cx=897 cy=484.5 r=12.16648700252837 stroke=""black"" stroke-width=""1"" fill=""black"" />
    <circle cx=811.7413636363636 cy=484.5 r=17.380695717897673 stroke=""none"" stroke-width=""1.5"" fill=""none"" />
    <circle cx=688.59 cy=607.6513636363636 r=17.380695717897673 stroke=""none"" stroke-width=""1.5"" fill=""none"" />
    <circle cx=565.4386363636364 cy=484.5 r=17.380695717897673 stroke=""none"" stroke-width=""1.5"" fill=""none"" />
    <circle cx=688.59 cy=361.3486363636364 r=17.380695717897673 stroke=""none"" stroke-width=""1.5"" fill=""none"" />
    <polygon points = ""688.59,484.5 693.4791028019661,501.88069571789765 683.700897198034,501.88069571789765"" stroke=""none"" stroke-width=""3"" fill = ""none"" />
    
    </svg>
    </div>
        ","","","","","","","","","","","","","","","","","","","","","","","","","","","","",""
"html-keyboard-response","38","320794","0.0-38.0","null","null","","
    <div style="" display: block;  position: relative;"">
    <svg width=1920 height=969>
    
    <circle cx=897 cy=484.5 r=12.16648700252837 stroke=""black"" stroke-width=""1"" fill=""black"" />
    <circle cx=1105.41 cy=484.5 r=17.380695717897673 stroke=""black"" stroke-width=""1.5"" fill=""none"" />
    <circle cx=1260.8872171284095 cy=484.5 r=17.380695717897673 stroke=""black"" stroke-width=""1.5"" fill=""none"" />
    <circle cx=1105.41 cy=639.9772171284093 r=17.380695717897673 stroke=""black"" stroke-width=""1.5"" fill=""none"" />
    <circle cx=949.9327828715908 cy=484.5 r=17.380695717897673 stroke=""black"" stroke-width=""1.5"" fill=""none"" />
    <circle cx=1105.41 cy=329.0227828715907 r=17.380695717897673 stroke=""black"" stroke-width=""1.5"" fill=""none"" />
    <polygon points = ""1105.41,484.5 1110.299102801966,467.11930428210235 1100.5208971980342,467.11930428210235"" stroke=""white"" stroke-width=""3"" fill = ""white"" />
    
    </svg>
    </div>
        ","","","","","","","","","","","","stimulus","","","","","","","","","","","","","","","","",""
"html-keyboard-response","39","321258","0.0-39.0","463.5","arrowup","","
    <div style="" display: block;  position: relative;"">
    
    <svg width=1920 height=969>
    <circle cx=897 cy=484.5 r=12.16648700252837 stroke=""black"" stroke-width=""1"" fill=""black"" />
    <circle cx=1260.8872171284095 cy=484.5 r=17.380695717897673 stroke=""none"" stroke-width=""1.5"" fill=""none"" />
    <circle cx=1105.41 cy=639.9772171284093 r=17.380695717897673 stroke=""none"" stroke-width=""1.5"" fill=""none"" />
    <circle cx=949.9327828715908 cy=484.5 r=17.380695717897673 stroke=""none"" stroke-width=""1.5"" fill=""none"" />
    <circle cx=1105.41 cy=329.0227828715907 r=17.380695717897673 stroke=""none"" stroke-width=""1.5"" fill=""none"" />
    <polygon points = ""1105.41,484.5 1110.299102801966,467.11930428210235 1100.5208971980342,467.11930428210235"" stroke=""none"" stroke-width=""3"" fill = ""none"" />
    
    </svg>
    </div>
        ","","","","","","","","","","","","get_response","true","G0BcrRv4Go2y1eT4","","","false","true","false","208.41","6","321.71200000000005","155.4772171284093","4.47","1","0","","",""
"html-keyboard-response","40","321772","0.0-40.0","null","null","","
    <div style="" display: block;  position: relative;"">
    
    <svg width=1920 height=969>
    <circle cx=897 cy=484.5 r=12.16648700252837 stroke=""black"" stroke-width=""1"" fill=""black"" />
    <circle cx=1260.8872171284095 cy=484.5 r=17.380695717897673 stroke=""none"" stroke-width=""1.5"" fill=""none"" />
    <circle cx=1105.41 cy=639.9772171284093 r=17.380695717897673 stroke=""none"" stroke-width=""1.5"" fill=""none"" />
    <circle cx=949.9327828715908 cy=484.5 r=17.380695717897673 stroke=""none"" stroke-width=""1.5"" fill=""none"" />
    <circle cx=1105.41 cy=329.0227828715907 r=17.380695717897673 stroke=""none"" stroke-width=""1.5"" fill=""none"" />
    <polygon points = ""1105.41,484.5 1110.299102801966,467.11930428210235 1100.5208971980342,467.11930428210235"" stroke=""none"" stroke-width=""3"" fill = ""none"" />
    
    </svg>
    </div>
        ","","","","","","","","","","","","","","","","","","","","","","","","","","","","",""
"html-keyboard-response","41","321929","0.0-41.0","null","null","","
    <div style="" display: block;  position: relative;"">
    <svg width=1920 height=969>
    
    <circle cx=897 cy=484.5 r=12.16648700252837 stroke=""black"" stroke-width=""1"" fill=""black"" />
    <circle cx=688.59 cy=484.5 r=17.380695717897673 stroke=""black"" stroke-width=""1.5"" fill=""none"" />
    <circle cx=844.0672171284093 cy=484.5 r=17.380695717897673 stroke=""black"" stroke-width=""1.5"" fill=""none"" />
    <circle cx=688.59 cy=639.9772171284093 r=17.380695717897673 stroke=""black"" stroke-width=""1.5"" fill=""none"" />
    <circle cx=533.1127828715908 cy=484.5 r=17.380695717897673 stroke=""black"" stroke-width=""1.5"" fill=""none"" />
    <circle cx=688.59 cy=329.0227828715907 r=17.380695717897673 stroke=""black"" stroke-width=""1.5"" fill=""none"" />
    <polygon points = ""688.59,484.5 693.4791028019661,467.11930428210235 683.700897198034,467.11930428210235"" stroke=""white"" stroke-width=""3"" fill = ""white"" />
    
    </svg>
    </div>
        ","","","","","","","","","","","","stimulus","","","","","","","","","","","","","","","","",""
"html-keyboard-response","42","322762","0.0-42.0","831.1999999284744","arrowup","","
    <div style="" display: block;  position: relative;"">
    
    <svg width=1920 height=969>
    <circle cx=897 cy=484.5 r=12.16648700252837 stroke=""black"" stroke-width=""1"" fill=""black"" />
    <circle cx=844.0672171284093 cy=484.5 r=17.380695717897673 stroke=""none"" stroke-width=""1.5"" fill=""none"" />
    <circle cx=688.59 cy=639.9772171284093 r=17.380695717897673 stroke=""none"" stroke-width=""1.5"" fill=""none"" />
    <circle cx=533.1127828715908 cy=484.5 r=17.380695717897673 stroke=""none"" stroke-width=""1.5"" fill=""none"" />
    <circle cx=688.59 cy=329.0227828715907 r=17.380695717897673 stroke=""none"" stroke-width=""1.5"" fill=""none"" />
    <polygon points = ""688.59,484.5 693.4791028019661,467.11930428210235 683.700897198034,467.11930428210235"" stroke=""none"" stroke-width=""3"" fill = ""none"" />
    
    </svg>
    </div>
        ","","","","","","","","","","","","get_response","true","G0BcrRv4Go2y1eT4","","","true","true","false","208.41","6","321.71200000000005","155.4772171284093","4.47","1","0","","",""
"html-keyboard-response","43","323278","0.0-43.0","null","null","","
    <div style="" display: block;  position: relative;"">
    
    <svg width=1920 height=969>
    <circle cx=897 cy=484.5 r=12.16648700252837 stroke=""black"" stroke-width=""1"" fill=""black"" />
    <circle cx=844.0672171284093 cy=484.5 r=17.380695717897673 stroke=""none"" stroke-width=""1.5"" fill=""none"" />
    <circle cx=688.59 cy=639.9772171284093 r=17.380695717897673 stroke=""none"" stroke-width=""1.5"" fill=""none"" />
    <circle cx=533.1127828715908 cy=484.5 r=17.380695717897673 stroke=""none"" stroke-width=""1.5"" fill=""none"" />
    <circle cx=688.59 cy=329.0227828715907 r=17.380695717897673 stroke=""none"" stroke-width=""1.5"" fill=""none"" />
    <polygon points = ""688.59,484.5 693.4791028019661,467.11930428210235 683.700897198034,467.11930428210235"" stroke=""none"" stroke-width=""3"" fill = ""none"" />
    
    </svg>
    </div>
        ","","","","","","","","","","","","","","","","","","","","","","","","","","","","",""
"html-keyboard-response","44","323434","0.0-44.0","null","null","","
    <div style="" display: block;  position: relative;"">
    <svg width=1920 height=969>
    
    <circle cx=897 cy=484.5 r=12.16648700252837 stroke=""black"" stroke-width=""1"" fill=""black"" />
    <circle cx=1105.41 cy=484.5 r=17.380695717897673 stroke=""black"" stroke-width=""1.5"" fill=""none"" />
    <circle cx=1260.8872171284095 cy=484.5 r=17.380695717897673 stroke=""black"" stroke-width=""1.5"" fill=""none"" />
    <circle cx=1105.41 cy=639.9772171284093 r=17.380695717897673 stroke=""black"" stroke-width=""1.5"" fill=""none"" />
    <circle cx=949.9327828715908 cy=484.5 r=17.380695717897673 stroke=""black"" stroke-width=""1.5"" fill=""none"" />
    <circle cx=1105.41 cy=329.0227828715907 r=17.380695717897673 stroke=""black"" stroke-width=""1.5"" fill=""none"" />
    <polygon points = ""1105.41,484.5 1110.299102801966,467.11930428210235 1100.5208971980342,467.11930428210235"" stroke=""white"" stroke-width=""3"" fill = ""white"" />
    
    </svg>
    </div>
        ","","","","","","","","","","","","stimulus","","","","","","","","","","","","","","","","",""
"html-keyboard-response","45","323930","0.0-45.0","495.10000002384186","arrowup","","
    <div style="" display: block;  position: relative;"">
    
    <svg width=1920 height=969>
    <circle cx=897 cy=484.5 r=12.16648700252837 stroke=""black"" stroke-width=""1"" fill=""black"" />
    <circle cx=1260.8872171284095 cy=484.5 r=17.380695717897673 stroke=""none"" stroke-width=""1.5"" fill=""none"" />
    <circle cx=1105.41 cy=639.9772171284093 r=17.380695717897673 stroke=""none"" stroke-width=""1.5"" fill=""none"" />
    <circle cx=949.9327828715908 cy=484.5 r=17.380695717897673 stroke=""none"" stroke-width=""1.5"" fill=""none"" />
    <circle cx=1105.41 cy=329.0227828715907 r=17.380695717897673 stroke=""none"" stroke-width=""1.5"" fill=""none"" />
    <polygon points = ""1105.41,484.5 1110.299102801966,467.11930428210235 1100.5208971980342,467.11930428210235"" stroke=""none"" stroke-width=""3"" fill = ""none"" />
    
    </svg>
    </div>
        ","","","","","","","","","","","","get_response","true","G0BcrRv4Go2y1eT4","","","false","true","false","208.41","6","321.71200000000005","155.4772171284093","4.47","1","0","","",""
"html-keyboard-response","46","324437","0.0-46.0","null","null","","
    <div style="" display: block;  position: relative;"">
    
    <svg width=1920 height=969>
    <circle cx=897 cy=484.5 r=12.16648700252837 stroke=""black"" stroke-width=""1"" fill=""black"" />
    <circle cx=1260.8872171284095 cy=484.5 r=17.380695717897673 stroke=""none"" stroke-width=""1.5"" fill=""none"" />
    <circle cx=1105.41 cy=639.9772171284093 r=17.380695717897673 stroke=""none"" stroke-width=""1.5"" fill=""none"" />
    <circle cx=949.9327828715908 cy=484.5 r=17.380695717897673 stroke=""none"" stroke-width=""1.5"" fill=""none"" />
    <circle cx=1105.41 cy=329.0227828715907 r=17.380695717897673 stroke=""none"" stroke-width=""1.5"" fill=""none"" />
    <polygon points = ""1105.41,484.5 1110.299102801966,467.11930428210235 1100.5208971980342,467.11930428210235"" stroke=""none"" stroke-width=""3"" fill = ""none"" />
    
    </svg>
    </div>
        ","","","","","","","","","","","","","","","","","","","","","","","","","","","","",""
"html-keyboard-response","47","324591","0.0-47.0","null","null","","
    <div style="" display: block;  position: relative;"">
    <svg width=1920 height=969>
    
    <circle cx=897 cy=484.5 r=12.16648700252837 stroke=""black"" stroke-width=""1"" fill=""black"" />
    <circle cx=688.59 cy=484.5 r=17.380695717897673 stroke=""black"" stroke-width=""1.5"" fill=""none"" />
    <circle cx=829.9329246621903 cy=484.5 r=17.380695717897673 stroke=""black"" stroke-width=""1.5"" fill=""none"" />
    <circle cx=688.59 cy=625.8429246621903 r=17.380695717897673 stroke=""black"" stroke-width=""1.5"" fill=""none"" />
    <circle cx=547.2470753378097 cy=484.5 r=17.380695717897673 stroke=""black"" stroke-width=""1.5"" fill=""none"" />
    <circle cx=688.59 cy=343.1570753378097 r=17.380695717897673 stroke=""black"" stroke-width=""1.5"" fill=""none"" />
    <polygon points = ""688.59,484.5 693.4791028019661,501.88069571789765 683.700897198034,501.88069571789765"" stroke=""white"" stroke-width=""3"" fill = ""white"" />
    
    </svg>
    </div>
        ","","","","","","","","","","","","stimulus","","","","","","","","","","","","","","","","",""
"html-keyboard-response","48","325195","0.0-48.0","602.8999999761581","arrowdown","","
    <div style="" display: block;  position: relative;"">
    
    <svg width=1920 height=969>
    <circle cx=897 cy=484.5 r=12.16648700252837 stroke=""black"" stroke-width=""1"" fill=""black"" />
    <circle cx=829.9329246621903 cy=484.5 r=17.380695717897673 stroke=""none"" stroke-width=""1.5"" fill=""none"" />
    <circle cx=688.59 cy=625.8429246621903 r=17.380695717897673 stroke=""none"" stroke-width=""1.5"" fill=""none"" />
    <circle cx=547.2470753378097 cy=484.5 r=17.380695717897673 stroke=""none"" stroke-width=""1.5"" fill=""none"" />
    <circle cx=688.59 cy=343.1570753378097 r=17.380695717897673 stroke=""none"" stroke-width=""1.5"" fill=""none"" />
    <polygon points = ""688.59,484.5 693.4791028019661,501.88069571789765 683.700897198034,501.88069571789765"" stroke=""none"" stroke-width=""3"" fill = ""none"" />
    
    </svg>
    </div>
        ","","","","","","","","","","","","get_response","true","G0BcrRv4Go2y1eT4","","","true","false","false","208.41","6","321.71200000000005","141.34292466219026","4.06","1","0","","",""
"html-keyboard-response","49","325708","0.0-49.0","null","null","","
    <div style="" display: block;  position: relative;"">
    
    <svg width=1920 height=969>
    <circle cx=897 cy=484.5 r=12.16648700252837 stroke=""black"" stroke-width=""1"" fill=""black"" />
    <circle cx=829.9329246621903 cy=484.5 r=17.380695717897673 stroke=""none"" stroke-width=""1.5"" fill=""none"" />
    <circle cx=688.59 cy=625.8429246621903 r=17.380695717897673 stroke=""none"" stroke-width=""1.5"" fill=""none"" />
    <circle cx=547.2470753378097 cy=484.5 r=17.380695717897673 stroke=""none"" stroke-width=""1.5"" fill=""none"" />
    <circle cx=688.59 cy=343.1570753378097 r=17.380695717897673 stroke=""none"" stroke-width=""1.5"" fill=""none"" />
    <polygon points = ""688.59,484.5 693.4791028019661,501.88069571789765 683.700897198034,501.88069571789765"" stroke=""none"" stroke-width=""3"" fill = ""none"" />
    
    </svg>
    </div>
        ","","","","","","","","","","","","","","","","","","","","","","","","","","","","",""
"html-keyboard-response","50","325861","0.0-50.0","null","null","","
    <div style="" display: block;  position: relative;"">
    <svg width=1920 height=969>
    
    <circle cx=897 cy=484.5 r=12.16648700252837 stroke=""black"" stroke-width=""1"" fill=""black"" />
    <circle cx=1105.41 cy=484.5 r=17.380695717897673 stroke=""black"" stroke-width=""1.5"" fill=""none"" />
    <circle cx=1233.9035678747184 cy=484.5 r=17.380695717897673 stroke=""black"" stroke-width=""1.5"" fill=""none"" />
    <circle cx=1105.41 cy=612.9935678747183 r=17.380695717897673 stroke=""black"" stroke-width=""1.5"" fill=""none"" />
    <circle cx=976.9164321252817 cy=484.5 r=17.380695717897673 stroke=""black"" stroke-width=""1.5"" fill=""none"" />
    <circle cx=1105.41 cy=356.0064321252816 r=17.380695717897673 stroke=""black"" stroke-width=""1.5"" fill=""none"" />
    <polygon points = ""1105.41,484.5 1110.299102801966,467.11930428210235 1100.5208971980342,467.11930428210235"" stroke=""white"" stroke-width=""3"" fill = ""white"" />
    
    </svg>
    </div>
        ","","","","","","","","","","","","stimulus","","","","","","","","","","","","","","","","",""
"html-keyboard-response","51","326370","0.0-51.0","507.39999997615814","arrowup","","
    <div style="" display: block;  position: relative;"">
    
    <svg width=1920 height=969>
    <circle cx=897 cy=484.5 r=12.16648700252837 stroke=""black"" stroke-width=""1"" fill=""black"" />
    <circle cx=1233.9035678747184 cy=484.5 r=17.380695717897673 stroke=""none"" stroke-width=""1.5"" fill=""none"" />
    <circle cx=1105.41 cy=612.9935678747183 r=17.380695717897673 stroke=""none"" stroke-width=""1.5"" fill=""none"" />
    <circle cx=976.9164321252817 cy=484.5 r=17.380695717897673 stroke=""none"" stroke-width=""1.5"" fill=""none"" />
    <circle cx=1105.41 cy=356.0064321252816 r=17.380695717897673 stroke=""none"" stroke-width=""1.5"" fill=""none"" />
    <polygon points = ""1105.41,484.5 1110.299102801966,467.11930428210235 1100.5208971980342,467.11930428210235"" stroke=""none"" stroke-width=""3"" fill = ""none"" />
    
    </svg>
    </div>
        ","","","","","","","","","","","","get_response","true","G0BcrRv4Go2y1eT4","","","false","true","false","208.41","6","321.71200000000005","128.4935678747184","3.69","1","0","","",""
"html-keyboard-response","52","326885","0.0-52.0","null","null","","
    <div style="" display: block;  position: relative;"">
    
    <svg width=1920 height=969>
    <circle cx=897 cy=484.5 r=12.16648700252837 stroke=""black"" stroke-width=""1"" fill=""black"" />
    <circle cx=1233.9035678747184 cy=484.5 r=17.380695717897673 stroke=""none"" stroke-width=""1.5"" fill=""none"" />
    <circle cx=1105.41 cy=612.9935678747183 r=17.380695717897673 stroke=""none"" stroke-width=""1.5"" fill=""none"" />
    <circle cx=976.9164321252817 cy=484.5 r=17.380695717897673 stroke=""none"" stroke-width=""1.5"" fill=""none"" />
    <circle cx=1105.41 cy=356.0064321252816 r=17.380695717897673 stroke=""none"" stroke-width=""1.5"" fill=""none"" />
    <polygon points = ""1105.41,484.5 1110.299102801966,467.11930428210235 1100.5208971980342,467.11930428210235"" stroke=""none"" stroke-width=""3"" fill = ""none"" />
    
    </svg>
    </div>
        ","","","","","","","","","","","","","","","","","","","","","","","","","","","","",""
"html-keyboard-response","53","327039","0.0-53.0","null","null","","
    <div style="" display: block;  position: relative;"">
    <svg width=1920 height=969>
    
    <circle cx=897 cy=484.5 r=12.16648700252837 stroke=""black"" stroke-width=""1"" fill=""black"" />
    <circle cx=688.59 cy=484.5 r=17.380695717897673 stroke=""black"" stroke-width=""1.5"" fill=""none"" />
    <circle cx=805.4023344315622 cy=484.5 r=17.380695717897673 stroke=""black"" stroke-width=""1.5"" fill=""none"" />
    <circle cx=688.59 cy=601.3123344315621 r=17.380695717897673 stroke=""black"" stroke-width=""1.5"" fill=""none"" />
    <circle cx=571.7776655684379 cy=484.5 r=17.380695717897673 stroke=""black"" stroke-width=""1.5"" fill=""none"" />
    <circle cx=688.59 cy=367.68766556843786 r=17.380695717897673 stroke=""black"" stroke-width=""1.5"" fill=""none"" />
    <polygon points = ""688.59,484.5 693.4791028019661,501.88069571789765 683.700897198034,501.88069571789765"" stroke=""white"" stroke-width=""3"" fill = ""white"" />
    
    </svg>
    </div>
        ","","","","","","","","","","","","stimulus","","","","","","","","","","","","","","","","",""
"html-keyboard-response","54","327522","0.0-54.0","482.6999999284744","arrowdown","","
    <div style="" display: block;  position: relative;"">
    
    <svg width=1920 height=969>
    <circle cx=897 cy=484.5 r=12.16648700252837 stroke=""black"" stroke-width=""1"" fill=""black"" />
    <circle cx=805.4023344315622 cy=484.5 r=17.380695717897673 stroke=""none"" stroke-width=""1.5"" fill=""none"" />
    <circle cx=688.59 cy=601.3123344315621 r=17.380695717897673 stroke=""none"" stroke-width=""1.5"" fill=""none"" />
    <circle cx=571.7776655684379 cy=484.5 r=17.380695717897673 stroke=""none"" stroke-width=""1.5"" fill=""none"" />
    <circle cx=688.59 cy=367.68766556843786 r=17.380695717897673 stroke=""none"" stroke-width=""1.5"" fill=""none"" />
    <polygon points = ""688.59,484.5 693.4791028019661,501.88069571789765 683.700897198034,501.88069571789765"" stroke=""none"" stroke-width=""3"" fill = ""none"" />
    
    </svg>
    </div>
        ","","","","","","","","","","","","get_response","true","G0BcrRv4Go2y1eT4","","","true","false","false","208.41","6","321.71200000000005","116.81233443156216","3.35","1","0","","",""
"html-keyboard-response","55","328031","0.0-55.0","null","null","","
    <div style="" display: block;  position: relative;"">
    
    <svg width=1920 height=969>
    <circle cx=897 cy=484.5 r=12.16648700252837 stroke=""black"" stroke-width=""1"" fill=""black"" />
    <circle cx=805.4023344315622 cy=484.5 r=17.380695717897673 stroke=""none"" stroke-width=""1.5"" fill=""none"" />
    <circle cx=688.59 cy=601.3123344315621 r=17.380695717897673 stroke=""none"" stroke-width=""1.5"" fill=""none"" />
    <circle cx=571.7776655684379 cy=484.5 r=17.380695717897673 stroke=""none"" stroke-width=""1.5"" fill=""none"" />
    <circle cx=688.59 cy=367.68766556843786 r=17.380695717897673 stroke=""none"" stroke-width=""1.5"" fill=""none"" />
    <polygon points = ""688.59,484.5 693.4791028019661,501.88069571789765 683.700897198034,501.88069571789765"" stroke=""none"" stroke-width=""3"" fill = ""none"" />
    
    </svg>
    </div>
        ","","","","","","","","","","","","","","","","","","","","","","","","","","","","",""
"html-keyboard-response","56","328186","0.0-56.0","null","null","","
    <div style="" display: block;  position: relative;"">
    <svg width=1920 height=969>
    
    <circle cx=897 cy=484.5 r=12.16648700252837 stroke=""black"" stroke-width=""1"" fill=""black"" />
    <circle cx=1105.41 cy=484.5 r=17.380695717897673 stroke=""black"" stroke-width=""1.5"" fill=""none"" />
    <circle cx=1211.6030313014203 cy=484.5 r=17.380695717897673 stroke=""black"" stroke-width=""1.5"" fill=""none"" />
    <circle cx=1105.41 cy=590.6930313014201 r=17.380695717897673 stroke=""black"" stroke-width=""1.5"" fill=""none"" />
    <circle cx=999.21696869858 cy=484.5 r=17.380695717897673 stroke=""black"" stroke-width=""1.5"" fill=""none"" />
    <circle cx=1105.41 cy=378.30696869857985 r=17.380695717897673 stroke=""black"" stroke-width=""1.5"" fill=""none"" />
    <polygon points = ""1105.41,484.5 1110.299102801966,467.11930428210235 1100.5208971980342,467.11930428210235"" stroke=""white"" stroke-width=""3"" fill = ""white"" />
    
    </svg>
    </div>
        ","","","","","","","","","","","","stimulus","","","","","","","","","","","","","","","","",""
"html-keyboard-response","57","328618","0.0-57.0","430.39999997615814","arrowup","","
    <div style="" display: block;  position: relative;"">
    
    <svg width=1920 height=969>
    <circle cx=897 cy=484.5 r=12.16648700252837 stroke=""black"" stroke-width=""1"" fill=""black"" />
    <circle cx=1211.6030313014203 cy=484.5 r=17.380695717897673 stroke=""none"" stroke-width=""1.5"" fill=""none"" />
    <circle cx=1105.41 cy=590.6930313014201 r=17.380695717897673 stroke=""none"" stroke-width=""1.5"" fill=""none"" />
    <circle cx=999.21696869858 cy=484.5 r=17.380695717897673 stroke=""none"" stroke-width=""1.5"" fill=""none"" />
    <circle cx=1105.41 cy=378.30696869857985 r=17.380695717897673 stroke=""none"" stroke-width=""1.5"" fill=""none"" />
    <polygon points = ""1105.41,484.5 1110.299102801966,467.11930428210235 1100.5208971980342,467.11930428210235"" stroke=""none"" stroke-width=""3"" fill = ""none"" />
    
    </svg>
    </div>
        ","","","","","","","","","","","","get_response","true","G0BcrRv4Go2y1eT4","","","false","true","false","208.41","6","321.71200000000005","106.19303130142013","3.05","1","0","","",""
"html-keyboard-response","58","329134","0.0-58.0","null","null","","
    <div style="" display: block;  position: relative;"">
    
    <svg width=1920 height=969>
    <circle cx=897 cy=484.5 r=12.16648700252837 stroke=""black"" stroke-width=""1"" fill=""black"" />
    <circle cx=1211.6030313014203 cy=484.5 r=17.380695717897673 stroke=""none"" stroke-width=""1.5"" fill=""none"" />
    <circle cx=1105.41 cy=590.6930313014201 r=17.380695717897673 stroke=""none"" stroke-width=""1.5"" fill=""none"" />
    <circle cx=999.21696869858 cy=484.5 r=17.380695717897673 stroke=""none"" stroke-width=""1.5"" fill=""none"" />
    <circle cx=1105.41 cy=378.30696869857985 r=17.380695717897673 stroke=""none"" stroke-width=""1.5"" fill=""none"" />
    <polygon points = ""1105.41,484.5 1110.299102801966,467.11930428210235 1100.5208971980342,467.11930428210235"" stroke=""none"" stroke-width=""3"" fill = ""none"" />
    
    </svg>
    </div>
        ","","","","","","","","","","","","","","","","","","","","","","","","","","","","",""
"html-keyboard-response","59","329288","0.0-59.0","null","null","","
    <div style="" display: block;  position: relative;"">
    <svg width=1920 height=969>
    
    <circle cx=897 cy=484.5 r=12.16648700252837 stroke=""black"" stroke-width=""1"" fill=""black"" />
    <circle cx=688.59 cy=484.5 r=17.380695717897673 stroke=""black"" stroke-width=""1.5"" fill=""none"" />
    <circle cx=785.1291193649274 cy=484.5 r=17.380695717897673 stroke=""black"" stroke-width=""1.5"" fill=""none"" />
    <circle cx=688.59 cy=581.0391193649274 r=17.380695717897673 stroke=""black"" stroke-width=""1.5"" fill=""none"" />
    <circle cx=592.0508806350726 cy=484.5 r=17.380695717897673 stroke=""black"" stroke-width=""1.5"" fill=""none"" />
    <circle cx=688.59 cy=387.9608806350726 r=17.380695717897673 stroke=""black"" stroke-width=""1.5"" fill=""none"" />
    <polygon points = ""688.59,484.5 693.4791028019661,501.88069571789765 683.700897198034,501.88069571789765"" stroke=""white"" stroke-width=""3"" fill = ""white"" />
    
    </svg>
    </div>
        ","","","","","","","","","","","","stimulus","","","","","","","","","","","","","","","","",""
"html-keyboard-response","60","329738","0.0-60.0","448.60000002384186","arrowdown","","
    <div style="" display: block;  position: relative;"">
    
    <svg width=1920 height=969>
    <circle cx=897 cy=484.5 r=12.16648700252837 stroke=""black"" stroke-width=""1"" fill=""black"" />
    <circle cx=785.1291193649274 cy=484.5 r=17.380695717897673 stroke=""none"" stroke-width=""1.5"" fill=""none"" />
    <circle cx=688.59 cy=581.0391193649274 r=17.380695717897673 stroke=""none"" stroke-width=""1.5"" fill=""none"" />
    <circle cx=592.0508806350726 cy=484.5 r=17.380695717897673 stroke=""none"" stroke-width=""1.5"" fill=""none"" />
    <circle cx=688.59 cy=387.9608806350726 r=17.380695717897673 stroke=""none"" stroke-width=""1.5"" fill=""none"" />
    <polygon points = ""688.59,484.5 693.4791028019661,501.88069571789765 683.700897198034,501.88069571789765"" stroke=""none"" stroke-width=""3"" fill = ""none"" />
    
    </svg>
    </div>
        ","","","","","","","","","","","","get_response","true","G0BcrRv4Go2y1eT4","","","true","false","false","208.41","6","321.71200000000005","96.53911936492739","2.77","1","0","","",""
"html-keyboard-response","61","330252","0.0-61.0","null","null","","
    <div style="" display: block;  position: relative;"">
    
    <svg width=1920 height=969>
    <circle cx=897 cy=484.5 r=12.16648700252837 stroke=""black"" stroke-width=""1"" fill=""black"" />
    <circle cx=785.1291193649274 cy=484.5 r=17.380695717897673 stroke=""none"" stroke-width=""1.5"" fill=""none"" />
    <circle cx=688.59 cy=581.0391193649274 r=17.380695717897673 stroke=""none"" stroke-width=""1.5"" fill=""none"" />
    <circle cx=592.0508806350726 cy=484.5 r=17.380695717897673 stroke=""none"" stroke-width=""1.5"" fill=""none"" />
    <circle cx=688.59 cy=387.9608806350726 r=17.380695717897673 stroke=""none"" stroke-width=""1.5"" fill=""none"" />
    <polygon points = ""688.59,484.5 693.4791028019661,501.88069571789765 683.700897198034,501.88069571789765"" stroke=""none"" stroke-width=""3"" fill = ""none"" />
    
    </svg>
    </div>
        ","","","","","","","","","","","","","","","","","","","","","","","","","","","","",""
"html-keyboard-response","62","330407","0.0-62.0","null","null","","
    <div style="" display: block;  position: relative;"">
    <svg width=1920 height=969>
    
    <circle cx=897 cy=484.5 r=12.16648700252837 stroke=""black"" stroke-width=""1"" fill=""black"" />
    <circle cx=688.59 cy=484.5 r=17.380695717897673 stroke=""black"" stroke-width=""1.5"" fill=""none"" />
    <circle cx=776.3528357862976 cy=484.5 r=17.380695717897673 stroke=""black"" stroke-width=""1.5"" fill=""none"" />
    <circle cx=688.59 cy=572.2628357862976 r=17.380695717897673 stroke=""black"" stroke-width=""1.5"" fill=""none"" />
    <circle cx=600.8271642137024 cy=484.5 r=17.380695717897673 stroke=""black"" stroke-width=""1.5"" fill=""none"" />
    <circle cx=688.59 cy=396.7371642137024 r=17.380695717897673 stroke=""black"" stroke-width=""1.5"" fill=""none"" />
    <polygon points = ""688.59,484.5 693.4791028019661,467.11930428210235 683.700897198034,467.11930428210235"" stroke=""white"" stroke-width=""3"" fill = ""white"" />
    
    </svg>
    </div>
        ","","","","","","","","","","","","stimulus","","","","","","","","","","","","","","","","",""
"html-keyboard-response","63","330890","0.0-63.0","481.60000002384186","arrowdown","","
    <div style="" display: block;  position: relative;"">
    
    <svg width=1920 height=969>
    <circle cx=897 cy=484.5 r=12.16648700252837 stroke=""black"" stroke-width=""1"" fill=""black"" />
    <circle cx=776.3528357862976 cy=484.5 r=17.380695717897673 stroke=""none"" stroke-width=""1.5"" fill=""none"" />
    <circle cx=688.59 cy=572.2628357862976 r=17.380695717897673 stroke=""none"" stroke-width=""1.5"" fill=""none"" />
    <circle cx=600.8271642137024 cy=484.5 r=17.380695717897673 stroke=""none"" stroke-width=""1.5"" fill=""none"" />
    <circle cx=688.59 cy=396.7371642137024 r=17.380695717897673 stroke=""none"" stroke-width=""1.5"" fill=""none"" />
    <polygon points = ""688.59,484.5 693.4791028019661,467.11930428210235 683.700897198034,467.11930428210235"" stroke=""none"" stroke-width=""3"" fill = ""none"" />
    
    </svg>
    </div>
        ","","","","","","","","","","","","get_response","false","G0BcrRv4Go2y1eT4","","","true","true","false","208.41","6","321.71200000000005","87.76283578629761","2.52","1","0","","",""
"html-keyboard-response","64","331395","0.0-64.0","null","null","","
    <div style="" display: block;  position: relative;"">
    
    <svg width=1920 height=969>
    <circle cx=897 cy=484.5 r=12.16648700252837 stroke=""black"" stroke-width=""1"" fill=""black"" />
    <circle cx=776.3528357862976 cy=484.5 r=17.380695717897673 stroke=""none"" stroke-width=""1.5"" fill=""none"" />
    <circle cx=688.59 cy=572.2628357862976 r=17.380695717897673 stroke=""none"" stroke-width=""1.5"" fill=""none"" />
    <circle cx=600.8271642137024 cy=484.5 r=17.380695717897673 stroke=""none"" stroke-width=""1.5"" fill=""none"" />
    <circle cx=688.59 cy=396.7371642137024 r=17.380695717897673 stroke=""none"" stroke-width=""1.5"" fill=""none"" />
    <polygon points = ""688.59,484.5 693.4791028019661,467.11930428210235 683.700897198034,467.11930428210235"" stroke=""none"" stroke-width=""3"" fill = ""none"" />
    
    </svg>
    </div>
        ","","","","","","","","","","","","","","","","","","","","","","","","","","","","",""
"html-keyboard-response","65","331550","0.0-65.0","null","null","","
    <div style="" display: block;  position: relative;"">
    <svg width=1920 height=969>
    
    <circle cx=897 cy=484.5 r=12.16648700252837 stroke=""black"" stroke-width=""1"" fill=""black"" />
    <circle cx=1105.41 cy=484.5 r=17.380695717897673 stroke=""black"" stroke-width=""1.5"" fill=""none"" />
    <circle cx=1219.501686522187 cy=484.5 r=17.380695717897673 stroke=""black"" stroke-width=""1.5"" fill=""none"" />
    <circle cx=1105.41 cy=598.5916865221869 r=17.380695717897673 stroke=""black"" stroke-width=""1.5"" fill=""none"" />
    <circle cx=991.3183134778131 cy=484.5 r=17.380695717897673 stroke=""black"" stroke-width=""1.5"" fill=""none"" />
    <circle cx=1105.41 cy=370.40831347781307 r=17.380695717897673 stroke=""black"" stroke-width=""1.5"" fill=""none"" />
    <polygon points = ""1105.41,484.5 1110.299102801966,467.11930428210235 1100.5208971980342,467.11930428210235"" stroke=""white"" stroke-width=""3"" fill = ""white"" />
    
    </svg>
    </div>
        ","","","","","","","","","","","","stimulus","","","","","","","","","","","","","","","","",""
"html-keyboard-response","66","331970","0.0-66.0","419.60000002384186","arrowup","","
    <div style="" display: block;  position: relative;"">
    
    <svg width=1920 height=969>
    <circle cx=897 cy=484.5 r=12.16648700252837 stroke=""black"" stroke-width=""1"" fill=""black"" />
    <circle cx=1219.501686522187 cy=484.5 r=17.380695717897673 stroke=""none"" stroke-width=""1.5"" fill=""none"" />
    <circle cx=1105.41 cy=598.5916865221869 r=17.380695717897673 stroke=""none"" stroke-width=""1.5"" fill=""none"" />
    <circle cx=991.3183134778131 cy=484.5 r=17.380695717897673 stroke=""none"" stroke-width=""1.5"" fill=""none"" />
    <circle cx=1105.41 cy=370.40831347781307 r=17.380695717897673 stroke=""none"" stroke-width=""1.5"" fill=""none"" />
    <polygon points = ""1105.41,484.5 1110.299102801966,467.11930428210235 1100.5208971980342,467.11930428210235"" stroke=""none"" stroke-width=""3"" fill = ""none"" />
    
    </svg>
    </div>
        ","","","","","","","","","","","","get_response","true","G0BcrRv4Go2y1eT4","","","false","true","false","208.41","6","321.71200000000005","114.0916865221869","3.28","1","0","","",""
"html-keyboard-response","67","332481","0.0-67.0","null","null","","
    <div style="" display: block;  position: relative;"">
    
    <svg width=1920 height=969>
    <circle cx=897 cy=484.5 r=12.16648700252837 stroke=""black"" stroke-width=""1"" fill=""black"" />
    <circle cx=1219.501686522187 cy=484.5 r=17.380695717897673 stroke=""none"" stroke-width=""1.5"" fill=""none"" />
    <circle cx=1105.41 cy=598.5916865221869 r=17.380695717897673 stroke=""none"" stroke-width=""1.5"" fill=""none"" />
    <circle cx=991.3183134778131 cy=484.5 r=17.380695717897673 stroke=""none"" stroke-width=""1.5"" fill=""none"" />
    <circle cx=1105.41 cy=370.40831347781307 r=17.380695717897673 stroke=""none"" stroke-width=""1.5"" fill=""none"" />
    <polygon points = ""1105.41,484.5 1110.299102801966,467.11930428210235 1100.5208971980342,467.11930428210235"" stroke=""none"" stroke-width=""3"" fill = ""none"" />
    
    </svg>
    </div>
        ","","","","","","","","","","","","","","","","","","","","","","","","","","","","",""
"html-keyboard-response","68","332635","0.0-68.0","null","null","","
    <div style="" display: block;  position: relative;"">
    <svg width=1920 height=969>
    
    <circle cx=897 cy=484.5 r=12.16648700252837 stroke=""black"" stroke-width=""1"" fill=""black"" />
    <circle cx=1105.41 cy=484.5 r=17.380695717897673 stroke=""black"" stroke-width=""1.5"" fill=""none"" />
    <circle cx=1219.501686522187 cy=484.5 r=17.380695717897673 stroke=""black"" stroke-width=""1.5"" fill=""none"" />
    <circle cx=1105.41 cy=598.5916865221869 r=17.380695717897673 stroke=""black"" stroke-width=""1.5"" fill=""none"" />
    <circle cx=991.3183134778131 cy=484.5 r=17.380695717897673 stroke=""black"" stroke-width=""1.5"" fill=""none"" />
    <circle cx=1105.41 cy=370.40831347781307 r=17.380695717897673 stroke=""black"" stroke-width=""1.5"" fill=""none"" />
    <polygon points = ""1105.41,484.5 1110.299102801966,501.88069571789765 1100.5208971980342,501.88069571789765"" stroke=""white"" stroke-width=""3"" fill = ""white"" />
    
    </svg>
    </div>
        ","","","","","","","","","","","","stimulus","","","","","","","","","","","","","","","","",""
"html-keyboard-response","69","333202","0.0-69.0","565.6000000238419","arrowdown","","
    <div style="" display: block;  position: relative;"">
    
    <svg width=1920 height=969>
    <circle cx=897 cy=484.5 r=12.16648700252837 stroke=""black"" stroke-width=""1"" fill=""black"" />
    <circle cx=1219.501686522187 cy=484.5 r=17.380695717897673 stroke=""none"" stroke-width=""1.5"" fill=""none"" />
    <circle cx=1105.41 cy=598.5916865221869 r=17.380695717897673 stroke=""none"" stroke-width=""1.5"" fill=""none"" />
    <circle cx=991.3183134778131 cy=484.5 r=17.380695717897673 stroke=""none"" stroke-width=""1.5"" fill=""none"" />
    <circle cx=1105.41 cy=370.40831347781307 r=17.380695717897673 stroke=""none"" stroke-width=""1.5"" fill=""none"" />
    <polygon points = ""1105.41,484.5 1110.299102801966,501.88069571789765 1100.5208971980342,501.88069571789765"" stroke=""none"" stroke-width=""3"" fill = ""none"" />
    
    </svg>
    </div>
        ","","","","","","","","","","","","get_response","true","G0BcrRv4Go2y1eT4","","","false","false","false","208.41","6","321.71200000000005","114.0916865221869","3.28","1","0","","",""
"html-keyboard-response","70","333718","0.0-70.0","null","null","","
    <div style="" display: block;  position: relative;"">
    
    <svg width=1920 height=969>
    <circle cx=897 cy=484.5 r=12.16648700252837 stroke=""black"" stroke-width=""1"" fill=""black"" />
    <circle cx=1219.501686522187 cy=484.5 r=17.380695717897673 stroke=""none"" stroke-width=""1.5"" fill=""none"" />
    <circle cx=1105.41 cy=598.5916865221869 r=17.380695717897673 stroke=""none"" stroke-width=""1.5"" fill=""none"" />
    <circle cx=991.3183134778131 cy=484.5 r=17.380695717897673 stroke=""none"" stroke-width=""1.5"" fill=""none"" />
    <circle cx=1105.41 cy=370.40831347781307 r=17.380695717897673 stroke=""none"" stroke-width=""1.5"" fill=""none"" />
    <polygon points = ""1105.41,484.5 1110.299102801966,501.88069571789765 1100.5208971980342,501.88069571789765"" stroke=""none"" stroke-width=""3"" fill = ""none"" />
    
    </svg>
    </div>
        ","","","","","","","","","","","","","","","","","","","","","","","","","","","","",""
"html-keyboard-response","71","333872","0.0-71.0","null","null","","
    <div style="" display: block;  position: relative;"">
    <svg width=1920 height=969>
    
    <circle cx=897 cy=484.5 r=12.16648700252837 stroke=""black"" stroke-width=""1"" fill=""black"" />
    <circle cx=688.59 cy=484.5 r=17.380695717897673 stroke=""black"" stroke-width=""1.5"" fill=""none"" />
    <circle cx=802.681686522187 cy=484.5 r=17.380695717897673 stroke=""black"" stroke-width=""1.5"" fill=""none"" />
    <circle cx=688.59 cy=598.5916865221869 r=17.380695717897673 stroke=""black"" stroke-width=""1.5"" fill=""none"" />
    <circle cx=574.4983134778131 cy=484.5 r=17.380695717897673 stroke=""black"" stroke-width=""1.5"" fill=""none"" />
    <circle cx=688.59 cy=370.40831347781307 r=17.380695717897673 stroke=""black"" stroke-width=""1.5"" fill=""none"" />
    <polygon points = ""688.59,484.5 693.4791028019661,467.11930428210235 683.700897198034,467.11930428210235"" stroke=""white"" stroke-width=""3"" fill = ""white"" />
    
    </svg>
    </div>
        ","","","","","","","","","","","","stimulus","","","","","","","","","","","","","","","","",""
"html-keyboard-response","72","334394","0.0-72.0","521","arrowup","","
    <div style="" display: block;  position: relative;"">
    
    <svg width=1920 height=969>
    <circle cx=897 cy=484.5 r=12.16648700252837 stroke=""black"" stroke-width=""1"" fill=""black"" />
    <circle cx=802.681686522187 cy=484.5 r=17.380695717897673 stroke=""none"" stroke-width=""1.5"" fill=""none"" />
    <circle cx=688.59 cy=598.5916865221869 r=17.380695717897673 stroke=""none"" stroke-width=""1.5"" fill=""none"" />
    <circle cx=574.4983134778131 cy=484.5 r=17.380695717897673 stroke=""none"" stroke-width=""1.5"" fill=""none"" />
    <circle cx=688.59 cy=370.40831347781307 r=17.380695717897673 stroke=""none"" stroke-width=""1.5"" fill=""none"" />
    <polygon points = ""688.59,484.5 693.4791028019661,467.11930428210235 683.700897198034,467.11930428210235"" stroke=""none"" stroke-width=""3"" fill = ""none"" />
    
    </svg>
    </div>
        ","","","","","","","","","","","","get_response","true","G0BcrRv4Go2y1eT4","","","true","true","false","208.41","6","321.71200000000005","114.0916865221869","3.28","1","0","","",""
"html-keyboard-response","73","334906","0.0-73.0","null","null","","
    <div style="" display: block;  position: relative;"">
    
    <svg width=1920 height=969>
    <circle cx=897 cy=484.5 r=12.16648700252837 stroke=""black"" stroke-width=""1"" fill=""black"" />
    <circle cx=802.681686522187 cy=484.5 r=17.380695717897673 stroke=""none"" stroke-width=""1.5"" fill=""none"" />
    <circle cx=688.59 cy=598.5916865221869 r=17.380695717897673 stroke=""none"" stroke-width=""1.5"" fill=""none"" />
    <circle cx=574.4983134778131 cy=484.5 r=17.380695717897673 stroke=""none"" stroke-width=""1.5"" fill=""none"" />
    <circle cx=688.59 cy=370.40831347781307 r=17.380695717897673 stroke=""none"" stroke-width=""1.5"" fill=""none"" />
    <polygon points = ""688.59,484.5 693.4791028019661,467.11930428210235 683.700897198034,467.11930428210235"" stroke=""none"" stroke-width=""3"" fill = ""none"" />
    
    </svg>
    </div>
        ","","","","","","","","","","","","","","","","","","","","","","","","","","","","",""
"html-keyboard-response","74","335061","0.0-74.0","null","null","","
    <div style="" display: block;  position: relative;"">
    <svg width=1920 height=969>
    
    <circle cx=897 cy=484.5 r=12.16648700252837 stroke=""black"" stroke-width=""1"" fill=""black"" />
    <circle cx=1105.41 cy=484.5 r=17.380695717897673 stroke=""black"" stroke-width=""1.5"" fill=""none"" />
    <circle cx=1209.12971502017 cy=484.5 r=17.380695717897673 stroke=""black"" stroke-width=""1.5"" fill=""none"" />
    <circle cx=1105.41 cy=588.2197150201699 r=17.380695717897673 stroke=""black"" stroke-width=""1.5"" fill=""none"" />
    <circle cx=1001.6902849798302 cy=484.5 r=17.380695717897673 stroke=""black"" stroke-width=""1.5"" fill=""none"" />
    <circle cx=1105.41 cy=380.78028497983007 r=17.380695717897673 stroke=""black"" stroke-width=""1.5"" fill=""none"" />
    <polygon points = ""1105.41,484.5 1110.299102801966,467.11930428210235 1100.5208971980342,467.11930428210235"" stroke=""white"" stroke-width=""3"" fill = ""white"" />
    
    </svg>
    </div>
        ","","","","","","","","","","","","stimulus","","","","","","","","","","","","","","","","",""
"html-keyboard-response","75","335609","0.0-75.0","547.3000000715256","arrowup","","
    <div style="" display: block;  position: relative;"">
    
    <svg width=1920 height=969>
    <circle cx=897 cy=484.5 r=12.16648700252837 stroke=""black"" stroke-width=""1"" fill=""black"" />
    <circle cx=1209.12971502017 cy=484.5 r=17.380695717897673 stroke=""none"" stroke-width=""1.5"" fill=""none"" />
    <circle cx=1105.41 cy=588.2197150201699 r=17.380695717897673 stroke=""none"" stroke-width=""1.5"" fill=""none"" />
    <circle cx=1001.6902849798302 cy=484.5 r=17.380695717897673 stroke=""none"" stroke-width=""1.5"" fill=""none"" />
    <circle cx=1105.41 cy=380.78028497983007 r=17.380695717897673 stroke=""none"" stroke-width=""1.5"" fill=""none"" />
    <polygon points = ""1105.41,484.5 1110.299102801966,467.11930428210235 1100.5208971980342,467.11930428210235"" stroke=""none"" stroke-width=""3"" fill = ""none"" />
    
    </svg>
    </div>
        ","","","","","","","","","","","","get_response","true","G0BcrRv4Go2y1eT4","","","false","true","false","208.41","6","321.71200000000005","103.7197150201699","2.98","1","0","","",""
"html-keyboard-response","76","336116","0.0-76.0","null","null","","
    <div style="" display: block;  position: relative;"">
    
    <svg width=1920 height=969>
    <circle cx=897 cy=484.5 r=12.16648700252837 stroke=""black"" stroke-width=""1"" fill=""black"" />
    <circle cx=1209.12971502017 cy=484.5 r=17.380695717897673 stroke=""none"" stroke-width=""1.5"" fill=""none"" />
    <circle cx=1105.41 cy=588.2197150201699 r=17.380695717897673 stroke=""none"" stroke-width=""1.5"" fill=""none"" />
    <circle cx=1001.6902849798302 cy=484.5 r=17.380695717897673 stroke=""none"" stroke-width=""1.5"" fill=""none"" />
    <circle cx=1105.41 cy=380.78028497983007 r=17.380695717897673 stroke=""none"" stroke-width=""1.5"" fill=""none"" />
    <polygon points = ""1105.41,484.5 1110.299102801966,467.11930428210235 1100.5208971980342,467.11930428210235"" stroke=""none"" stroke-width=""3"" fill = ""none"" />
    
    </svg>
    </div>
        ","","","","","","","","","","","","","","","","","","","","","","","","","","","","",""
"html-keyboard-response","77","336270","0.0-77.0","null","null","","
    <div style="" display: block;  position: relative;"">
    <svg width=1920 height=969>
    
    <circle cx=897 cy=484.5 r=12.16648700252837 stroke=""black"" stroke-width=""1"" fill=""black"" />
    <circle cx=688.59 cy=484.5 r=17.380695717897673 stroke=""black"" stroke-width=""1.5"" fill=""none"" />
    <circle cx=782.8806500183363 cy=484.5 r=17.380695717897673 stroke=""black"" stroke-width=""1.5"" fill=""none"" />
    <circle cx=688.59 cy=578.7906500183362 r=17.380695717897673 stroke=""black"" stroke-width=""1.5"" fill=""none"" />
    <circle cx=594.2993499816638 cy=484.5 r=17.380695717897673 stroke=""black"" stroke-width=""1.5"" fill=""none"" />
    <circle cx=688.59 cy=390.20934998166376 r=17.380695717897673 stroke=""black"" stroke-width=""1.5"" fill=""none"" />
    <polygon points = ""688.59,484.5 693.4791028019661,501.88069571789765 683.700897198034,501.88069571789765"" stroke=""white"" stroke-width=""3"" fill = ""white"" />
    
    </svg>
    </div>
        ","","","","","","","","","","","","stimulus","","","","","","","","","","","","","","","","",""
"html-keyboard-response","78","336794","0.0-78.0","522.7999999523163","arrowdown","","
    <div style="" display: block;  position: relative;"">
    
    <svg width=1920 height=969>
    <circle cx=897 cy=484.5 r=12.16648700252837 stroke=""black"" stroke-width=""1"" fill=""black"" />
    <circle cx=782.8806500183363 cy=484.5 r=17.380695717897673 stroke=""none"" stroke-width=""1.5"" fill=""none"" />
    <circle cx=688.59 cy=578.7906500183362 r=17.380695717897673 stroke=""none"" stroke-width=""1.5"" fill=""none"" />
    <circle cx=594.2993499816638 cy=484.5 r=17.380695717897673 stroke=""none"" stroke-width=""1.5"" fill=""none"" />
    <circle cx=688.59 cy=390.20934998166376 r=17.380695717897673 stroke=""none"" stroke-width=""1.5"" fill=""none"" />
    <polygon points = ""688.59,484.5 693.4791028019661,501.88069571789765 683.700897198034,501.88069571789765"" stroke=""none"" stroke-width=""3"" fill = ""none"" />
    
    </svg>
    </div>
        ","","","","","","","","","","","","get_response","true","G0BcrRv4Go2y1eT4","","","true","false","false","208.41","6","321.71200000000005","94.29065001833627","2.71","1","0","","",""
"html-keyboard-response","79","337300","0.0-79.0","null","null","","
    <div style="" display: block;  position: relative;"">
    
    <svg width=1920 height=969>
    <circle cx=897 cy=484.5 r=12.16648700252837 stroke=""black"" stroke-width=""1"" fill=""black"" />
    <circle cx=782.8806500183363 cy=484.5 r=17.380695717897673 stroke=""none"" stroke-width=""1.5"" fill=""none"" />
    <circle cx=688.59 cy=578.7906500183362 r=17.380695717897673 stroke=""none"" stroke-width=""1.5"" fill=""none"" />
    <circle cx=594.2993499816638 cy=484.5 r=17.380695717897673 stroke=""none"" stroke-width=""1.5"" fill=""none"" />
    <circle cx=688.59 cy=390.20934998166376 r=17.380695717897673 stroke=""none"" stroke-width=""1.5"" fill=""none"" />
    <polygon points = ""688.59,484.5 693.4791028019661,501.88069571789765 683.700897198034,501.88069571789765"" stroke=""none"" stroke-width=""3"" fill = ""none"" />
    
    </svg>
    </div>
        ","","","","","","","","","","","","","","","","","","","","","","","","","","","","",""
"html-keyboard-response","80","337453","0.0-80.0","null","null","","
    <div style="" display: block;  position: relative;"">
    <svg width=1920 height=969>
    
    <circle cx=897 cy=484.5 r=12.16648700252837 stroke=""black"" stroke-width=""1"" fill=""black"" />
    <circle cx=688.59 cy=484.5 r=17.380695717897673 stroke=""black"" stroke-width=""1.5"" fill=""none"" />
    <circle cx=774.3087727439421 cy=484.5 r=17.380695717897673 stroke=""black"" stroke-width=""1.5"" fill=""none"" />
    <circle cx=688.59 cy=570.218772743942 r=17.380695717897673 stroke=""black"" stroke-width=""1.5"" fill=""none"" />
    <circle cx=602.871227256058 cy=484.5 r=17.380695717897673 stroke=""black"" stroke-width=""1.5"" fill=""none"" />
    <circle cx=688.59 cy=398.78122725605795 r=17.380695717897673 stroke=""black"" stroke-width=""1.5"" fill=""none"" />
    <polygon points = ""688.59,484.5 693.4791028019661,501.88069571789765 683.700897198034,501.88069571789765"" stroke=""white"" stroke-width=""3"" fill = ""white"" />
    
    </svg>
    </div>
        ","","","","","","","","","","","","stimulus","","","","","","","","","","","","","","","","",""
"html-keyboard-response","81","337922","0.0-81.0","467.39999997615814","arrowdown","","
    <div style="" display: block;  position: relative;"">
    
    <svg width=1920 height=969>
    <circle cx=897 cy=484.5 r=12.16648700252837 stroke=""black"" stroke-width=""1"" fill=""black"" />
    <circle cx=774.3087727439421 cy=484.5 r=17.380695717897673 stroke=""none"" stroke-width=""1.5"" fill=""none"" />
    <circle cx=688.59 cy=570.218772743942 r=17.380695717897673 stroke=""none"" stroke-width=""1.5"" fill=""none"" />
    <circle cx=602.871227256058 cy=484.5 r=17.380695717897673 stroke=""none"" stroke-width=""1.5"" fill=""none"" />
    <circle cx=688.59 cy=398.78122725605795 r=17.380695717897673 stroke=""none"" stroke-width=""1.5"" fill=""none"" />
    <polygon points = ""688.59,484.5 693.4791028019661,501.88069571789765 683.700897198034,501.88069571789765"" stroke=""none"" stroke-width=""3"" fill = ""none"" />
    
    </svg>
    </div>
        ","","","","","","","","","","","","get_response","true","G0BcrRv4Go2y1eT4","","","true","false","false","208.41","6","321.71200000000005","85.71877274394205","2.46","1","0","","",""
"html-keyboard-response","82","338427","0.0-82.0","null","null","","
    <div style="" display: block;  position: relative;"">
    
    <svg width=1920 height=969>
    <circle cx=897 cy=484.5 r=12.16648700252837 stroke=""black"" stroke-width=""1"" fill=""black"" />
    <circle cx=774.3087727439421 cy=484.5 r=17.380695717897673 stroke=""none"" stroke-width=""1.5"" fill=""none"" />
    <circle cx=688.59 cy=570.218772743942 r=17.380695717897673 stroke=""none"" stroke-width=""1.5"" fill=""none"" />
    <circle cx=602.871227256058 cy=484.5 r=17.380695717897673 stroke=""none"" stroke-width=""1.5"" fill=""none"" />
    <circle cx=688.59 cy=398.78122725605795 r=17.380695717897673 stroke=""none"" stroke-width=""1.5"" fill=""none"" />
    <polygon points = ""688.59,484.5 693.4791028019661,501.88069571789765 683.700897198034,501.88069571789765"" stroke=""none"" stroke-width=""3"" fill = ""none"" />
    
    </svg>
    </div>
        ","","","","","","","","","","","","","","","","","","","","","","","","","","","","",""
"html-keyboard-response","83","338583","0.0-83.0","null","null","","
    <div style="" display: block;  position: relative;"">
    <svg width=1920 height=969>
    
    <circle cx=897 cy=484.5 r=12.16648700252837 stroke=""black"" stroke-width=""1"" fill=""black"" />
    <circle cx=688.59 cy=484.5 r=17.380695717897673 stroke=""black"" stroke-width=""1.5"" fill=""none"" />
    <circle cx=766.5161570399473 cy=484.5 r=17.380695717897673 stroke=""black"" stroke-width=""1.5"" fill=""none"" />
    <circle cx=688.59 cy=562.4261570399473 r=17.380695717897673 stroke=""black"" stroke-width=""1.5"" fill=""none"" />
    <circle cx=610.6638429600528 cy=484.5 r=17.380695717897673 stroke=""black"" stroke-width=""1.5"" fill=""none"" />
    <circle cx=688.59 cy=406.5738429600527 r=17.380695717897673 stroke=""black"" stroke-width=""1.5"" fill=""none"" />
    <polygon points = ""688.59,484.5 693.4791028019661,467.11930428210235 683.700897198034,467.11930428210235"" stroke=""white"" stroke-width=""3"" fill = ""white"" />
    
    </svg>
    </div>
        ","","","","","","","","","","","","stimulus","","","","","","","","","","","","","","","","",""
"html-keyboard-response","84","339162","0.0-84.0","578.1999999284744","arrowdown","","
    <div style="" display: block;  position: relative;"">
    
    <svg width=1920 height=969>
    <circle cx=897 cy=484.5 r=12.16648700252837 stroke=""black"" stroke-width=""1"" fill=""black"" />
    <circle cx=766.5161570399473 cy=484.5 r=17.380695717897673 stroke=""none"" stroke-width=""1.5"" fill=""none"" />
    <circle cx=688.59 cy=562.4261570399473 r=17.380695717897673 stroke=""none"" stroke-width=""1.5"" fill=""none"" />
    <circle cx=610.6638429600528 cy=484.5 r=17.380695717897673 stroke=""none"" stroke-width=""1.5"" fill=""none"" />
    <circle cx=688.59 cy=406.5738429600527 r=17.380695717897673 stroke=""none"" stroke-width=""1.5"" fill=""none"" />
    <polygon points = ""688.59,484.5 693.4791028019661,467.11930428210235 683.700897198034,467.11930428210235"" stroke=""none"" stroke-width=""3"" fill = ""none"" />
    
    </svg>
    </div>
        ","","","","","","","","","","","","get_response","false","G0BcrRv4Go2y1eT4","","","true","true","false","208.41","6","321.71200000000005","77.92615703994731","2.24","1","0","","",""
"html-keyboard-response","85","339671","0.0-85.0","null","null","","
    <div style="" display: block;  position: relative;"">
    
    <svg width=1920 height=969>
    <circle cx=897 cy=484.5 r=12.16648700252837 stroke=""black"" stroke-width=""1"" fill=""black"" />
    <circle cx=766.5161570399473 cy=484.5 r=17.380695717897673 stroke=""none"" stroke-width=""1.5"" fill=""none"" />
    <circle cx=688.59 cy=562.4261570399473 r=17.380695717897673 stroke=""none"" stroke-width=""1.5"" fill=""none"" />
    <circle cx=610.6638429600528 cy=484.5 r=17.380695717897673 stroke=""none"" stroke-width=""1.5"" fill=""none"" />
    <circle cx=688.59 cy=406.5738429600527 r=17.380695717897673 stroke=""none"" stroke-width=""1.5"" fill=""none"" />
    <polygon points = ""688.59,484.5 693.4791028019661,467.11930428210235 683.700897198034,467.11930428210235"" stroke=""none"" stroke-width=""3"" fill = ""none"" />
    
    </svg>
    </div>
        ","","","","","","","","","","","","","","","","","","","","","","","","","","","","",""
"html-keyboard-response","86","339825","0.0-86.0","null","null","","
    <div style="" display: block;  position: relative;"">
    <svg width=1920 height=969>
    
    <circle cx=897 cy=484.5 r=12.16648700252837 stroke=""black"" stroke-width=""1"" fill=""black"" />
    <circle cx=1105.41 cy=484.5 r=17.380695717897673 stroke=""black"" stroke-width=""1.5"" fill=""none"" />
    <circle cx=1206.7140041519315 cy=484.5 r=17.380695717897673 stroke=""black"" stroke-width=""1.5"" fill=""none"" />
    <circle cx=1105.41 cy=585.8040041519315 r=17.380695717897673 stroke=""black"" stroke-width=""1.5"" fill=""none"" />
    <circle cx=1004.1059958480686 cy=484.5 r=17.380695717897673 stroke=""black"" stroke-width=""1.5"" fill=""none"" />
    <circle cx=1105.41 cy=383.1959958480685 r=17.380695717897673 stroke=""black"" stroke-width=""1.5"" fill=""none"" />
    <polygon points = ""1105.41,484.5 1110.299102801966,501.88069571789765 1100.5208971980342,501.88069571789765"" stroke=""white"" stroke-width=""3"" fill = ""white"" />
    
    </svg>
    </div>
        ","","","","","","","","","","","","stimulus","","","","","","","","","","","","","","","","",""
"html-keyboard-response","87","340377","0.0-87.0","550.3999999761581","arrowdown","","
    <div style="" display: block;  position: relative;"">
    
    <svg width=1920 height=969>
    <circle cx=897 cy=484.5 r=12.16648700252837 stroke=""black"" stroke-width=""1"" fill=""black"" />
    <circle cx=1206.7140041519315 cy=484.5 r=17.380695717897673 stroke=""none"" stroke-width=""1.5"" fill=""none"" />
    <circle cx=1105.41 cy=585.8040041519315 r=17.380695717897673 stroke=""none"" stroke-width=""1.5"" fill=""none"" />
    <circle cx=1004.1059958480686 cy=484.5 r=17.380695717897673 stroke=""none"" stroke-width=""1.5"" fill=""none"" />
    <circle cx=1105.41 cy=383.1959958480685 r=17.380695717897673 stroke=""none"" stroke-width=""1.5"" fill=""none"" />
    <polygon points = ""1105.41,484.5 1110.299102801966,501.88069571789765 1100.5208971980342,501.88069571789765"" stroke=""none"" stroke-width=""3"" fill = ""none"" />
    
    </svg>
    </div>
        ","","","","","","","","","","","","get_response","true","G0BcrRv4Go2y1eT4","","","false","false","false","208.41","6","321.71200000000005","101.30400415193151","2.91","1","0","","",""
"html-keyboard-response","88","340879","0.0-88.0","null","null","","
    <div style="" display: block;  position: relative;"">
    
    <svg width=1920 height=969>
    <circle cx=897 cy=484.5 r=12.16648700252837 stroke=""black"" stroke-width=""1"" fill=""black"" />
    <circle cx=1206.7140041519315 cy=484.5 r=17.380695717897673 stroke=""none"" stroke-width=""1.5"" fill=""none"" />
    <circle cx=1105.41 cy=585.8040041519315 r=17.380695717897673 stroke=""none"" stroke-width=""1.5"" fill=""none"" />
    <circle cx=1004.1059958480686 cy=484.5 r=17.380695717897673 stroke=""none"" stroke-width=""1.5"" fill=""none"" />
    <circle cx=1105.41 cy=383.1959958480685 r=17.380695717897673 stroke=""none"" stroke-width=""1.5"" fill=""none"" />
    <polygon points = ""1105.41,484.5 1110.299102801966,501.88069571789765 1100.5208971980342,501.88069571789765"" stroke=""none"" stroke-width=""3"" fill = ""none"" />
    
    </svg>
    </div>
        ","","","","","","","","","","","","","","","","","","","","","","","","","","","","",""
"html-keyboard-response","89","341035","0.0-89.0","null","null","","
    <div style="" display: block;  position: relative;"">
    <svg width=1920 height=969>
    
    <circle cx=897 cy=484.5 r=12.16648700252837 stroke=""black"" stroke-width=""1"" fill=""black"" />
    <circle cx=1105.41 cy=484.5 r=17.380695717897673 stroke=""black"" stroke-width=""1.5"" fill=""none"" />
    <circle cx=1206.7140041519315 cy=484.5 r=17.380695717897673 stroke=""black"" stroke-width=""1.5"" fill=""none"" />
    <circle cx=1105.41 cy=585.8040041519315 r=17.380695717897673 stroke=""black"" stroke-width=""1.5"" fill=""none"" />
    <circle cx=1004.1059958480686 cy=484.5 r=17.380695717897673 stroke=""black"" stroke-width=""1.5"" fill=""none"" />
    <circle cx=1105.41 cy=383.1959958480685 r=17.380695717897673 stroke=""black"" stroke-width=""1.5"" fill=""none"" />
    <polygon points = ""1105.41,484.5 1110.299102801966,501.88069571789765 1100.5208971980342,501.88069571789765"" stroke=""white"" stroke-width=""3"" fill = ""white"" />
    
    </svg>
    </div>
        ","","","","","","","","","","","","stimulus","","","","","","","","","","","","","","","","",""
"html-keyboard-response","90","341442","0.0-90.0","405.7999999523163","arrowdown","","
    <div style="" display: block;  position: relative;"">
    
    <svg width=1920 height=969>
    <circle cx=897 cy=484.5 r=12.16648700252837 stroke=""black"" stroke-width=""1"" fill=""black"" />
    <circle cx=1206.7140041519315 cy=484.5 r=17.380695717897673 stroke=""none"" stroke-width=""1.5"" fill=""none"" />
    <circle cx=1105.41 cy=585.8040041519315 r=17.380695717897673 stroke=""none"" stroke-width=""1.5"" fill=""none"" />
    <circle cx=1004.1059958480686 cy=484.5 r=17.380695717897673 stroke=""none"" stroke-width=""1.5"" fill=""none"" />
    <circle cx=1105.41 cy=383.1959958480685 r=17.380695717897673 stroke=""none"" stroke-width=""1.5"" fill=""none"" />
    <polygon points = ""1105.41,484.5 1110.299102801966,501.88069571789765 1100.5208971980342,501.88069571789765"" stroke=""none"" stroke-width=""3"" fill = ""none"" />
    
    </svg>
    </div>
        ","","","","","","","","","","","","get_response","true","G0BcrRv4Go2y1eT4","","","false","false","false","208.41","6","321.71200000000005","101.30400415193151","2.91","1","0","","",""
"html-keyboard-response","91","341948","0.0-91.0","null","null","","
    <div style="" display: block;  position: relative;"">
    
    <svg width=1920 height=969>
    <circle cx=897 cy=484.5 r=12.16648700252837 stroke=""black"" stroke-width=""1"" fill=""black"" />
    <circle cx=1206.7140041519315 cy=484.5 r=17.380695717897673 stroke=""none"" stroke-width=""1.5"" fill=""none"" />
    <circle cx=1105.41 cy=585.8040041519315 r=17.380695717897673 stroke=""none"" stroke-width=""1.5"" fill=""none"" />
    <circle cx=1004.1059958480686 cy=484.5 r=17.380695717897673 stroke=""none"" stroke-width=""1.5"" fill=""none"" />
    <circle cx=1105.41 cy=383.1959958480685 r=17.380695717897673 stroke=""none"" stroke-width=""1.5"" fill=""none"" />
    <polygon points = ""1105.41,484.5 1110.299102801966,501.88069571789765 1100.5208971980342,501.88069571789765"" stroke=""none"" stroke-width=""3"" fill = ""none"" />
    
    </svg>
    </div>
        ","","","","","","","","","","","","","","","","","","","","","","","","","","","","",""
"html-keyboard-response","92","342104","0.0-92.0","null","null","","
    <div style="" display: block;  position: relative;"">
    <svg width=1920 height=969>
    
    <circle cx=897 cy=484.5 r=12.16648700252837 stroke=""black"" stroke-width=""1"" fill=""black"" />
    <circle cx=688.59 cy=484.5 r=17.380695717897673 stroke=""black"" stroke-width=""1.5"" fill=""none"" />
    <circle cx=789.8940041519315 cy=484.5 r=17.380695717897673 stroke=""black"" stroke-width=""1.5"" fill=""none"" />
    <circle cx=688.59 cy=585.8040041519315 r=17.380695717897673 stroke=""black"" stroke-width=""1.5"" fill=""none"" />
    <circle cx=587.2859958480685 cy=484.5 r=17.380695717897673 stroke=""black"" stroke-width=""1.5"" fill=""none"" />
    <circle cx=688.59 cy=383.1959958480685 r=17.380695717897673 stroke=""black"" stroke-width=""1.5"" fill=""none"" />
    <polygon points = ""688.59,484.5 693.4791028019661,501.88069571789765 683.700897198034,501.88069571789765"" stroke=""white"" stroke-width=""3"" fill = ""white"" />
    
    </svg>
    </div>
        ","","","","","","","","","","","","stimulus","","","","","","","","","","","","","","","","",""
"html-keyboard-response","93","342819","0.0-93.0","713.7000000476837","arrowup","","
    <div style="" display: block;  position: relative;"">
    
    <svg width=1920 height=969>
    <circle cx=897 cy=484.5 r=12.16648700252837 stroke=""black"" stroke-width=""1"" fill=""black"" />
    <circle cx=789.8940041519315 cy=484.5 r=17.380695717897673 stroke=""none"" stroke-width=""1.5"" fill=""none"" />
    <circle cx=688.59 cy=585.8040041519315 r=17.380695717897673 stroke=""none"" stroke-width=""1.5"" fill=""none"" />
    <circle cx=587.2859958480685 cy=484.5 r=17.380695717897673 stroke=""none"" stroke-width=""1.5"" fill=""none"" />
    <circle cx=688.59 cy=383.1959958480685 r=17.380695717897673 stroke=""none"" stroke-width=""1.5"" fill=""none"" />
    <polygon points = ""688.59,484.5 693.4791028019661,501.88069571789765 683.700897198034,501.88069571789765"" stroke=""none"" stroke-width=""3"" fill = ""none"" />
    
    </svg>
    </div>
        ","","","","","","","","","","","","get_response","false","G0BcrRv4Go2y1eT4","","","true","false","false","208.41","6","321.71200000000005","101.30400415193151","2.91","1","0","","",""
"html-keyboard-response","94","343327","0.0-94.0","null","null","","
    <div style="" display: block;  position: relative;"">
    
    <svg width=1920 height=969>
    <circle cx=897 cy=484.5 r=12.16648700252837 stroke=""black"" stroke-width=""1"" fill=""black"" />
    <circle cx=789.8940041519315 cy=484.5 r=17.380695717897673 stroke=""none"" stroke-width=""1.5"" fill=""none"" />
    <circle cx=688.59 cy=585.8040041519315 r=17.380695717897673 stroke=""none"" stroke-width=""1.5"" fill=""none"" />
    <circle cx=587.2859958480685 cy=484.5 r=17.380695717897673 stroke=""none"" stroke-width=""1.5"" fill=""none"" />
    <circle cx=688.59 cy=383.1959958480685 r=17.380695717897673 stroke=""none"" stroke-width=""1.5"" fill=""none"" />
    <polygon points = ""688.59,484.5 693.4791028019661,501.88069571789765 683.700897198034,501.88069571789765"" stroke=""none"" stroke-width=""3"" fill = ""none"" />
    
    </svg>
    </div>
        ","","","","","","","","","","","","","","","","","","","","","","","","","","","","",""
"html-keyboard-response","95","343481","0.0-95.0","null","null","","
    <div style="" display: block;  position: relative;"">
    <svg width=1920 height=969>
    
    <circle cx=897 cy=484.5 r=12.16648700252837 stroke=""black"" stroke-width=""1"" fill=""black"" />
    <circle cx=1105.41 cy=484.5 r=17.380695717897673 stroke=""black"" stroke-width=""1.5"" fill=""none"" />
    <circle cx=1237.105205397511 cy=484.5 r=17.380695717897673 stroke=""black"" stroke-width=""1.5"" fill=""none"" />
    <circle cx=1105.41 cy=616.195205397511 r=17.380695717897673 stroke=""black"" stroke-width=""1.5"" fill=""none"" />
    <circle cx=973.7147946024891 cy=484.5 r=17.380695717897673 stroke=""black"" stroke-width=""1.5"" fill=""none"" />
    <circle cx=1105.41 cy=352.80479460248904 r=17.380695717897673 stroke=""black"" stroke-width=""1.5"" fill=""none"" />
    <polygon points = ""1105.41,484.5 1110.299102801966,501.88069571789765 1100.5208971980342,501.88069571789765"" stroke=""white"" stroke-width=""3"" fill = ""white"" />
    
    </svg>
    </div>
