,trial_type,trial_index,time_elapsed,internal_node_id,rt,response,success,stimulus,start_time,start_time_unix,item_width_mm,item_height_mm,item_width_px,px2mm,view_dist_mm,item_width_deg,px2deg,win_width_deg,win_height_deg,trialType,correct,participantID,criticalSpacing,criticalSpacing_deg,isLeft,isUp,isEccen4,eccentricity,eccentricity_deg,viewingDistanceMean,critical_spacing,critical_spacing_deg,crowding_session,correctRate,viewDistance_1,viewDistance_2,viewDistance_3,age
0,pavlovia,0,4,0.0-0.0,,,,,,,,,,,,,,,,,,,,,,,,,,,,,,,,,,21
2,fullscreen,2,8464,0.0-2.0,,,True,,,,,,,,,,,,,,,,,,,,,,,,,,,,,,,21
3,html-keyboard-response,3,23228,0.0-3.0,14763.80000001192,arrowright,,"<h1>Consent Form</h1>
       <p>By answering the following questions, you are participating in a study being performed by cognitive scientists in the Stanford Department of Psychology. If you have questions about this research, please contact us at stanfordpsych251@gmail.com. You must be at least 18 years old to participate. Your participation in this research is voluntary. You may decline to answer any or all of the following questions. You may decline further participation by closing the window, at any time, without adverse consequences. Your anonymity is assured; the researchers who have requested your participation will not receive any personal information about you.</p>
       <p>Press <b>any key</b> to start the experiment!</p>",,,,,,,,,,,,,,,,,,,,,,,,,,,,,,21
4,html-keyboard-response,4,25667,0.0-4.0,2437.899999976158,arrowright,,"<h1>Welcome to the Visual Crowding Experiment!</h1>
       <p>This test will take <b>10-12</b> minutes to complete.</p>
       <p>Press any key to start the experiment!</p>",30/11/2021 23:54:17,1638338057987.0,,,,,,,,,,,,,,,,,,,,,,,,,,,,21
5,html-keyboard-response,5,42588,0.0-5.0,16919.600000023842,arrowdown,,"<div> 
<p> Before you begin this study, let&#39;s quickly test how far away you are sitting. You might know that vision tests at a doctor&#39;s practice often involve chinrests, the doctor basically asks you to sit away from a screen in a specific distance. We do this here with a <b>virtual chinrest</b>. </p>
<p> Please press the <b>down</b> arrow to continue.
</p>
</div>",,,,,,,,,,,,,,,,,,,,,,,,,,,,,,21
6,virtual-chinrest,6,228965,0.0-6.0,186375.80000001192,,,,,,85.6,53.98,412.0,4.81,572.39,8.55257531859148,48.17262457828341,39.85666167887292,22.419372194366016,,,,,,,,,,,,,,,,,,,21
7,html-keyboard-response,7,288132,0.0-7.0,59163.80000001192,arrowdown,,"
	<h2 class=""bolded-blue"">Now, you will take a peripheral vision test!</h2>
<p> 
	<b>
		<font size=""140%"">1. </font>
	</b>
	<em><b>Please use both eyes for the following task.</b></em> First, you will see a screen (like the one in the image below) showing a <b>black dot</b> in the middle of the screen, with a group of circles displayed on either the <span class=""bolded-blue"">left</span> or <span class=""bolded-blue"">right</span> of the black dot for 150 ms. <span class=""bolded-blue"">Please make sure to focus on the black dot all the time!</span>

	<div>
		<img src=""example.png"" alt=""example"" style=""border: 2px solid black"" width=""600""/> 
	</div>
	
	<b>
		<font size=""140%"">2. </font>
	</b>
	Your task is to identify whether the opening of the <b class=""bolded-blue"">center circle</b> is upward by pressing UP or downward by pressing DOWN on your keyboard. The opening of the circle will only be upward or downward, not towards left or right.

	<div>
		<img src=""arrow_keys+.png"" alt=""arrows"" style=""border: 2px solid black"" width=""600""/>
	</div>
	<br>

<p>Please press the <b>down</b> arrow key to start the <span class=""bolded-blue"">practice task</span> (this first practice task will not count toward your final results).</p>
</p>
",,,,,,,,,,,,,,,,,,,,,,,,,,,,,,21
8,html-keyboard-response,8,288635,0.0-8.0,,,,"
    <div style="" display: block;  position: relative;"">
    
    <svg width=1920 height=1080>
    <circle cx=897 cy=540 r=16.993788604567115 stroke=""black"" stroke-width=""1"" fill=""black"" />
    <circle cx=NaN cy=540 r=24.276840863667307 stroke=""none"" stroke-width=""1.5"" fill=""none"" />
    <circle cx=702.54 cy=NaN r=24.276840863667307 stroke=""none"" stroke-width=""1.5"" fill=""none"" />
    <circle cx=NaN cy=540 r=24.276840863667307 stroke=""none"" stroke-width=""1.5"" fill=""none"" />
    <circle cx=702.54 cy=NaN r=24.276840863667307 stroke=""none"" stroke-width=""1.5"" fill=""none"" />
    <polygon points = ""702.54,540 709.3689539507452,564.2768408636673 695.7110460492547,564.2768408636673"" stroke=""none"" stroke-width=""3"" fill = ""none"" />
    
    </svg>
    </div>
        ",,,,,,,,,,,,,,,,,,,,,,,,,,,,,,21
9,html-keyboard-response,9,288788,0.0-9.0,,,,"
    <div style="" display: block;  position: relative;"">
    <svg width=1920 height=1080>
    
    <circle cx=897 cy=540 r=16.993788604567115 stroke=""black"" stroke-width=""1"" fill=""black"" />
    <circle cx=1091.46 cy=540 r=24.276840863667307 stroke=""black"" stroke-width=""1.5"" fill=""none"" />
    <circle cx=1217.8590000000002 cy=540 r=24.276840863667307 stroke=""black"" stroke-width=""1.5"" fill=""none"" />
    <circle cx=1091.46 cy=666.399 r=24.276840863667307 stroke=""black"" stroke-width=""1.5"" fill=""none"" />
    <circle cx=965.061 cy=540 r=24.276840863667307 stroke=""black"" stroke-width=""1.5"" fill=""none"" />
    <circle cx=1091.46 cy=413.601 r=24.276840863667307 stroke=""black"" stroke-width=""1.5"" fill=""none"" />
    <polygon points = ""1091.46,540 1098.2889539507453,515.7231591363327 1084.6310460492548,515.7231591363327"" stroke=""white"" stroke-width=""3"" fill = ""white"" />
    
    </svg>
    </div>
        ",,,,,,,,,,,,stimulus,,,,,,,,,,,,,,,,,,21
10,html-keyboard-response,10,289355,0.0-10.0,565.5,arrowup,,"
    <div style="" display: block;  position: relative;"">
    
    <svg width=1920 height=1080>
    <circle cx=897 cy=540 r=16.993788604567115 stroke=""black"" stroke-width=""1"" fill=""black"" />
    <circle cx=1217.8590000000002 cy=540 r=24.276840863667307 stroke=""none"" stroke-width=""1.5"" fill=""none"" />
    <circle cx=1091.46 cy=666.399 r=24.276840863667307 stroke=""none"" stroke-width=""1.5"" fill=""none"" />
    <circle cx=965.061 cy=540 r=24.276840863667307 stroke=""none"" stroke-width=""1.5"" fill=""none"" />
    <circle cx=1091.46 cy=413.601 r=24.276840863667307 stroke=""none"" stroke-width=""1.5"" fill=""none"" />
    <polygon points = ""1091.46,540 1098.2889539507453,515.7231591363327 1084.6310460492548,515.7231591363327"" stroke=""none"" stroke-width=""3"" fill = ""none"" />
    
    </svg>
    </div>
        ",,,,,,,,,,,,practice_get_response,True,wxUg6WXLxZOaKJqH,126.39900000000002,2.6,False,True,True,194.46,4.0,580.1479999999999,,,,,,,,21
11,html-keyboard-response,11,289858,0.0-11.0,,,,"
    <div style="" display: block;  position: relative;"">
    
    <svg width=1920 height=1080>
    <circle cx=897 cy=540 r=16.993788604567115 stroke=""black"" stroke-width=""1"" fill=""black"" />
    <circle cx=1217.8590000000002 cy=540 r=24.276840863667307 stroke=""none"" stroke-width=""1.5"" fill=""none"" />
    <circle cx=1091.46 cy=666.399 r=24.276840863667307 stroke=""none"" stroke-width=""1.5"" fill=""none"" />
    <circle cx=965.061 cy=540 r=24.276840863667307 stroke=""none"" stroke-width=""1.5"" fill=""none"" />
    <circle cx=1091.46 cy=413.601 r=24.276840863667307 stroke=""none"" stroke-width=""1.5"" fill=""none"" />
    <polygon points = ""1091.46,540 1098.2889539507453,515.7231591363327 1084.6310460492548,515.7231591363327"" stroke=""none"" stroke-width=""3"" fill = ""none"" />
    
    </svg>
    </div>
        ",,,,,,,,,,,,,,,,,,,,,,,,,,,,,,21
12,html-keyboard-response,12,290010,0.0-12.0,,,,"
    <div style="" display: block;  position: relative;"">
    <svg width=1920 height=1080>
    
    <circle cx=897 cy=540 r=16.993788604567115 stroke=""black"" stroke-width=""1"" fill=""black"" />
    <circle cx=1091.46 cy=540 r=24.276840863667307 stroke=""black"" stroke-width=""1.5"" fill=""none"" />
    <circle cx=1217.8590000000002 cy=540 r=24.276840863667307 stroke=""black"" stroke-width=""1.5"" fill=""none"" />
    <circle cx=1091.46 cy=666.399 r=24.276840863667307 stroke=""black"" stroke-width=""1.5"" fill=""none"" />
    <circle cx=965.061 cy=540 r=24.276840863667307 stroke=""black"" stroke-width=""1.5"" fill=""none"" />
    <circle cx=1091.46 cy=413.601 r=24.276840863667307 stroke=""black"" stroke-width=""1.5"" fill=""none"" />
    <polygon points = ""1091.46,540 1098.2889539507453,564.2768408636673 1084.6310460492548,564.2768408636673"" stroke=""white"" stroke-width=""3"" fill = ""white"" />
    
    </svg>
    </div>
        ",,,,,,,,,,,,stimulus,,,,,,,,,,,,,,,,,,21
13,html-keyboard-response,13,290451,0.0-13.0,439.7999999523163,arrowdown,,"
    <div style="" display: block;  position: relative;"">
    
    <svg width=1920 height=1080>
    <circle cx=897 cy=540 r=16.993788604567115 stroke=""black"" stroke-width=""1"" fill=""black"" />
    <circle cx=1217.8590000000002 cy=540 r=24.276840863667307 stroke=""none"" stroke-width=""1.5"" fill=""none"" />
    <circle cx=1091.46 cy=666.399 r=24.276840863667307 stroke=""none"" stroke-width=""1.5"" fill=""none"" />
    <circle cx=965.061 cy=540 r=24.276840863667307 stroke=""none"" stroke-width=""1.5"" fill=""none"" />
    <circle cx=1091.46 cy=413.601 r=24.276840863667307 stroke=""none"" stroke-width=""1.5"" fill=""none"" />
    <polygon points = ""1091.46,540 1098.2889539507453,564.2768408636673 1084.6310460492548,564.2768408636673"" stroke=""none"" stroke-width=""3"" fill = ""none"" />
    
    </svg>
    </div>
        ",,,,,,,,,,,,practice_get_response,True,wxUg6WXLxZOaKJqH,126.39900000000002,2.6,False,False,True,194.46,4.0,580.1479999999999,,,,,,,,21
14,html-keyboard-response,14,290953,0.0-14.0,,,,"
    <div style="" display: block;  position: relative;"">
    
    <svg width=1920 height=1080>
    <circle cx=897 cy=540 r=16.993788604567115 stroke=""black"" stroke-width=""1"" fill=""black"" />
    <circle cx=1217.8590000000002 cy=540 r=24.276840863667307 stroke=""none"" stroke-width=""1.5"" fill=""none"" />
    <circle cx=1091.46 cy=666.399 r=24.276840863667307 stroke=""none"" stroke-width=""1.5"" fill=""none"" />
    <circle cx=965.061 cy=540 r=24.276840863667307 stroke=""none"" stroke-width=""1.5"" fill=""none"" />
    <circle cx=1091.46 cy=413.601 r=24.276840863667307 stroke=""none"" stroke-width=""1.5"" fill=""none"" />
    <polygon points = ""1091.46,540 1098.2889539507453,564.2768408636673 1084.6310460492548,564.2768408636673"" stroke=""none"" stroke-width=""3"" fill = ""none"" />
    
    </svg>
    </div>
        ",,,,,,,,,,,,,,,,,,,,,,,,,,,,,,21
15,html-keyboard-response,15,291105,0.0-15.0,,,,"
    <div style="" display: block;  position: relative;"">
    <svg width=1920 height=1080>
    
    <circle cx=897 cy=540 r=16.993788604567115 stroke=""black"" stroke-width=""1"" fill=""black"" />
    <circle cx=702.54 cy=540 r=24.276840863667307 stroke=""black"" stroke-width=""1.5"" fill=""none"" />
    <circle cx=828.939 cy=540 r=24.276840863667307 stroke=""black"" stroke-width=""1.5"" fill=""none"" />
    <circle cx=702.54 cy=666.399 r=24.276840863667307 stroke=""black"" stroke-width=""1.5"" fill=""none"" />
    <circle cx=576.141 cy=540 r=24.276840863667307 stroke=""black"" stroke-width=""1.5"" fill=""none"" />
    <circle cx=702.54 cy=413.601 r=24.276840863667307 stroke=""black"" stroke-width=""1.5"" fill=""none"" />
    <polygon points = ""702.54,540 709.3689539507452,564.2768408636673 695.7110460492547,564.2768408636673"" stroke=""white"" stroke-width=""3"" fill = ""white"" />
    
    </svg>
    </div>
        ",,,,,,,,,,,,stimulus,,,,,,,,,,,,,,,,,,21
16,html-keyboard-response,16,291388,0.0-16.0,280.5,arrowdown,,"
    <div style="" display: block;  position: relative;"">
    
    <svg width=1920 height=1080>
    <circle cx=897 cy=540 r=16.993788604567115 stroke=""black"" stroke-width=""1"" fill=""black"" />
    <circle cx=828.939 cy=540 r=24.276840863667307 stroke=""none"" stroke-width=""1.5"" fill=""none"" />
    <circle cx=702.54 cy=666.399 r=24.276840863667307 stroke=""none"" stroke-width=""1.5"" fill=""none"" />
    <circle cx=576.141 cy=540 r=24.276840863667307 stroke=""none"" stroke-width=""1.5"" fill=""none"" />
    <circle cx=702.54 cy=413.601 r=24.276840863667307 stroke=""none"" stroke-width=""1.5"" fill=""none"" />
    <polygon points = ""702.54,540 709.3689539507452,564.2768408636673 695.7110460492547,564.2768408636673"" stroke=""none"" stroke-width=""3"" fill = ""none"" />
    
    </svg>
    </div>
        ",,,,,,,,,,,,practice_get_response,True,wxUg6WXLxZOaKJqH,126.39900000000002,2.6,True,False,True,194.46,4.0,580.1479999999999,,,,,,,,21
17,html-keyboard-response,17,291890,0.0-17.0,,,,"
    <div style="" display: block;  position: relative;"">
    
    <svg width=1920 height=1080>
    <circle cx=897 cy=540 r=16.993788604567115 stroke=""black"" stroke-width=""1"" fill=""black"" />
    <circle cx=828.939 cy=540 r=24.276840863667307 stroke=""none"" stroke-width=""1.5"" fill=""none"" />
    <circle cx=702.54 cy=666.399 r=24.276840863667307 stroke=""none"" stroke-width=""1.5"" fill=""none"" />
    <circle cx=576.141 cy=540 r=24.276840863667307 stroke=""none"" stroke-width=""1.5"" fill=""none"" />
    <circle cx=702.54 cy=413.601 r=24.276840863667307 stroke=""none"" stroke-width=""1.5"" fill=""none"" />
    <polygon points = ""702.54,540 709.3689539507452,564.2768408636673 695.7110460492547,564.2768408636673"" stroke=""none"" stroke-width=""3"" fill = ""none"" />
    
    </svg>
    </div>
        ",,,,,,,,,,,,,,,,,,,,,,,,,,,,,,21
18,html-keyboard-response,18,292043,0.0-18.0,,,,"
    <div style="" display: block;  position: relative;"">
    <svg width=1920 height=1080>
    
    <circle cx=897 cy=540 r=16.993788604567115 stroke=""black"" stroke-width=""1"" fill=""black"" />
    <circle cx=702.54 cy=540 r=24.276840863667307 stroke=""black"" stroke-width=""1.5"" fill=""none"" />
    <circle cx=817.4481818181818 cy=540 r=24.276840863667307 stroke=""black"" stroke-width=""1.5"" fill=""none"" />
    <circle cx=702.54 cy=654.9081818181818 r=24.276840863667307 stroke=""black"" stroke-width=""1.5"" fill=""none"" />
    <circle cx=587.6318181818182 cy=540 r=24.276840863667307 stroke=""black"" stroke-width=""1.5"" fill=""none"" />
    <circle cx=702.54 cy=425.0918181818182 r=24.276840863667307 stroke=""black"" stroke-width=""1.5"" fill=""none"" />
    <polygon points = ""702.54,540 709.3689539507452,515.7231591363327 695.7110460492547,515.7231591363327"" stroke=""white"" stroke-width=""3"" fill = ""white"" />
    
    </svg>
    </div>
        ",,,,,,,,,,,,stimulus,,,,,,,,,,,,,,,,,,21
19,html-keyboard-response,19,292500,0.0-19.0,454.8999999761581,arrowup,,"
    <div style="" display: block;  position: relative;"">
    
    <svg width=1920 height=1080>
    <circle cx=897 cy=540 r=16.993788604567115 stroke=""black"" stroke-width=""1"" fill=""black"" />
    <circle cx=817.4481818181818 cy=540 r=24.276840863667307 stroke=""none"" stroke-width=""1.5"" fill=""none"" />
    <circle cx=702.54 cy=654.9081818181818 r=24.276840863667307 stroke=""none"" stroke-width=""1.5"" fill=""none"" />
    <circle cx=587.6318181818182 cy=540 r=24.276840863667307 stroke=""none"" stroke-width=""1.5"" fill=""none"" />
    <circle cx=702.54 cy=425.0918181818182 r=24.276840863667307 stroke=""none"" stroke-width=""1.5"" fill=""none"" />
    <polygon points = ""702.54,540 709.3689539507452,515.7231591363327 695.7110460492547,515.7231591363327"" stroke=""none"" stroke-width=""3"" fill = ""none"" />
    
    </svg>
    </div>
        ",,,,,,,,,,,,practice_get_response,True,wxUg6WXLxZOaKJqH,114.90818181818182,2.36,True,True,True,194.46,4.0,580.1479999999999,,,,,,,,21
20,html-keyboard-response,20,293001,0.0-20.0,,,,"
    <div style="" display: block;  position: relative;"">
    
    <svg width=1920 height=1080>
    <circle cx=897 cy=540 r=16.993788604567115 stroke=""black"" stroke-width=""1"" fill=""black"" />
    <circle cx=817.4481818181818 cy=540 r=24.276840863667307 stroke=""none"" stroke-width=""1.5"" fill=""none"" />
    <circle cx=702.54 cy=654.9081818181818 r=24.276840863667307 stroke=""none"" stroke-width=""1.5"" fill=""none"" />
    <circle cx=587.6318181818182 cy=540 r=24.276840863667307 stroke=""none"" stroke-width=""1.5"" fill=""none"" />
    <circle cx=702.54 cy=425.0918181818182 r=24.276840863667307 stroke=""none"" stroke-width=""1.5"" fill=""none"" />
    <polygon points = ""702.54,540 709.3689539507452,515.7231591363327 695.7110460492547,515.7231591363327"" stroke=""none"" stroke-width=""3"" fill = ""none"" />
    
    </svg>
    </div>
        ",,,,,,,,,,,,,,,,,,,,,,,,,,,,,,21
21,html-keyboard-response,21,293155,0.0-21.0,,,,"
    <div style="" display: block;  position: relative;"">
    <svg width=1920 height=1080>
    
    <circle cx=897 cy=540 r=16.993788604567115 stroke=""black"" stroke-width=""1"" fill=""black"" />
    <circle cx=702.54 cy=540 r=24.276840863667307 stroke=""black"" stroke-width=""1.5"" fill=""none"" />
    <circle cx=807.0019834710744 cy=540 r=24.276840863667307 stroke=""black"" stroke-width=""1.5"" fill=""none"" />
    <circle cx=702.54 cy=644.4619834710744 r=24.276840863667307 stroke=""black"" stroke-width=""1.5"" fill=""none"" />
    <circle cx=598.0780165289256 cy=540 r=24.276840863667307 stroke=""black"" stroke-width=""1.5"" fill=""none"" />
    <circle cx=702.54 cy=435.5380165289256 r=24.276840863667307 stroke=""black"" stroke-width=""1.5"" fill=""none"" />
    <polygon points = ""702.54,540 709.3689539507452,564.2768408636673 695.7110460492547,564.2768408636673"" stroke=""white"" stroke-width=""3"" fill = ""white"" />
    
    </svg>
    </div>
        ",,,,,,,,,,,,stimulus,,,,,,,,,,,,,,,,,,21
22,html-keyboard-response,22,293531,0.0-22.0,374.8999999761581,arrowdown,,"
    <div style="" display: block;  position: relative;"">
    
    <svg width=1920 height=1080>
    <circle cx=897 cy=540 r=16.993788604567115 stroke=""black"" stroke-width=""1"" fill=""black"" />
    <circle cx=807.0019834710744 cy=540 r=24.276840863667307 stroke=""none"" stroke-width=""1.5"" fill=""none"" />
    <circle cx=702.54 cy=644.4619834710744 r=24.276840863667307 stroke=""none"" stroke-width=""1.5"" fill=""none"" />
    <circle cx=598.0780165289256 cy=540 r=24.276840863667307 stroke=""none"" stroke-width=""1.5"" fill=""none"" />
    <circle cx=702.54 cy=435.5380165289256 r=24.276840863667307 stroke=""none"" stroke-width=""1.5"" fill=""none"" />
    <polygon points = ""702.54,540 709.3689539507452,564.2768408636673 695.7110460492547,564.2768408636673"" stroke=""none"" stroke-width=""3"" fill = ""none"" />
    
    </svg>
    </div>
        ",,,,,,,,,,,,practice_get_response,True,wxUg6WXLxZOaKJqH,104.46198347107438,2.15,True,False,True,194.46,4.0,580.1479999999999,,,,,,,,21
23,html-keyboard-response,23,301868,0.0-23.0,8335.599999964237,arrowdown,,"<div> 
<h2 class=""bolded-blue"">Well done!</h2>
<p> Now that you have the hang of it, we&#39;ll start the study. This session has 25 trials and takes about 2 minute to complete. </p> 
<p>If you are ready for the real deal, please press the <b>down</b> arrow to continue.
</p>
</div>",,,,,,,,,,,,,,,,,,,,,,,,,,,,,,21
24,html-keyboard-response,24,309996,0.0-24.0,8126.699999988079,arrowdown,,"<div id=""continue""> 
<p>Again, please keep the <b>full screen</b> mode for the best experience.</p>
<p>Please do not move around and keep your eye on the black dot. Click <b>up</b> or <b>down</b> key on your keyboard to indicate the opening of the center circle. Make your best guess!</p>
<p>Please press the <b>down</b> arrow key to start the session 1. </p>
</div>",,,,,,,,,,,,,,,,,,,,,,,,,,,,,,21
25,html-keyboard-response,25,310499,0.0-25.0,,,,"
    <div style="" display: block;  position: relative;"">
    
    <svg width=1920 height=1080>
    <circle cx=897 cy=540 r=16.993788604567115 stroke=""black"" stroke-width=""1"" fill=""black"" />
    <circle cx=807.0019834710744 cy=540 r=24.276840863667307 stroke=""none"" stroke-width=""1.5"" fill=""none"" />
    <circle cx=702.54 cy=644.4619834710744 r=24.276840863667307 stroke=""none"" stroke-width=""1.5"" fill=""none"" />
    <circle cx=598.0780165289256 cy=540 r=24.276840863667307 stroke=""none"" stroke-width=""1.5"" fill=""none"" />
    <circle cx=702.54 cy=435.5380165289256 r=24.276840863667307 stroke=""none"" stroke-width=""1.5"" fill=""none"" />
    <polygon points = ""702.54,540 709.3689539507452,564.2768408636673 695.7110460492547,564.2768408636673"" stroke=""none"" stroke-width=""3"" fill = ""none"" />
    
    </svg>
    </div>
        ",,,,,,,,,,,,,,,,,,,,,,,,,,,,,,21
26,html-keyboard-response,26,310651,0.0-26.0,,,,"
    <div style="" display: block;  position: relative;"">
    <svg width=1920 height=1080>
    
    <circle cx=897 cy=540 r=16.993788604567115 stroke=""black"" stroke-width=""1"" fill=""black"" />
    <circle cx=702.54 cy=540 r=24.276840863667307 stroke=""black"" stroke-width=""1.5"" fill=""none"" />
    <circle cx=828.939 cy=540 r=24.276840863667307 stroke=""black"" stroke-width=""1.5"" fill=""none"" />
    <circle cx=702.54 cy=666.399 r=24.276840863667307 stroke=""black"" stroke-width=""1.5"" fill=""none"" />
    <circle cx=576.141 cy=540 r=24.276840863667307 stroke=""black"" stroke-width=""1.5"" fill=""none"" />
    <circle cx=702.54 cy=413.601 r=24.276840863667307 stroke=""black"" stroke-width=""1.5"" fill=""none"" />
    <polygon points = ""702.54,540 709.3689539507452,564.2768408636673 695.7110460492547,564.2768408636673"" stroke=""white"" stroke-width=""3"" fill = ""white"" />
    
    </svg>
    </div>
        ",,,,,,,,,,,,stimulus,,,,,,,,,,,,,,,,,,21
27,html-keyboard-response,27,310891,0.0-27.0,239.0,arrowdown,,"
    <div style="" display: block;  position: relative;"">
    
    <svg width=1920 height=1080>
    <circle cx=897 cy=540 r=16.993788604567115 stroke=""black"" stroke-width=""1"" fill=""black"" />
    <circle cx=828.939 cy=540 r=24.276840863667307 stroke=""none"" stroke-width=""1.5"" fill=""none"" />
    <circle cx=702.54 cy=666.399 r=24.276840863667307 stroke=""none"" stroke-width=""1.5"" fill=""none"" />
    <circle cx=576.141 cy=540 r=24.276840863667307 stroke=""none"" stroke-width=""1.5"" fill=""none"" />
    <circle cx=702.54 cy=413.601 r=24.276840863667307 stroke=""none"" stroke-width=""1.5"" fill=""none"" />
    <polygon points = ""702.54,540 709.3689539507452,564.2768408636673 695.7110460492547,564.2768408636673"" stroke=""none"" stroke-width=""3"" fill = ""none"" />
    
    </svg>
    </div>
        ",,,,,,,,,,,,get_response,True,wxUg6WXLxZOaKJqH,,,True,False,True,194.46,4.0,580.1479999999999,126.39900000000002,2.6,1.0,0.0,,,,21
28,html-keyboard-response,28,311393,0.0-28.0,,,,"
    <div style="" display: block;  position: relative;"">
    
    <svg width=1920 height=1080>
    <circle cx=897 cy=540 r=16.993788604567115 stroke=""black"" stroke-width=""1"" fill=""black"" />
    <circle cx=828.939 cy=540 r=24.276840863667307 stroke=""none"" stroke-width=""1.5"" fill=""none"" />
    <circle cx=702.54 cy=666.399 r=24.276840863667307 stroke=""none"" stroke-width=""1.5"" fill=""none"" />
    <circle cx=576.141 cy=540 r=24.276840863667307 stroke=""none"" stroke-width=""1.5"" fill=""none"" />
    <circle cx=702.54 cy=413.601 r=24.276840863667307 stroke=""none"" stroke-width=""1.5"" fill=""none"" />
    <polygon points = ""702.54,540 709.3689539507452,564.2768408636673 695.7110460492547,564.2768408636673"" stroke=""none"" stroke-width=""3"" fill = ""none"" />
    
    </svg>
    </div>
        ",,,,,,,,,,,,,,,,,,,,,,,,,,,,,,21
29,html-keyboard-response,29,311545,0.0-29.0,,,,"
    <div style="" display: block;  position: relative;"">
    <svg width=1920 height=1080>
    
    <circle cx=897 cy=540 r=16.993788604567115 stroke=""black"" stroke-width=""1"" fill=""black"" />
    <circle cx=702.54 cy=540 r=24.276840863667307 stroke=""black"" stroke-width=""1.5"" fill=""none"" />
    <circle cx=828.939 cy=540 r=24.276840863667307 stroke=""black"" stroke-width=""1.5"" fill=""none"" />
    <circle cx=702.54 cy=666.399 r=24.276840863667307 stroke=""black"" stroke-width=""1.5"" fill=""none"" />
    <circle cx=576.141 cy=540 r=24.276840863667307 stroke=""black"" stroke-width=""1.5"" fill=""none"" />
    <circle cx=702.54 cy=413.601 r=24.276840863667307 stroke=""black"" stroke-width=""1.5"" fill=""none"" />
    <polygon points = ""702.54,540 709.3689539507452,515.7231591363327 695.7110460492547,515.7231591363327"" stroke=""white"" stroke-width=""3"" fill = ""white"" />
    
    </svg>
    </div>
        ",,,,,,,,,,,,stimulus,,,,,,,,,,,,,,,,,,21
30,html-keyboard-response,30,311739,0.0-30.0,191.5,arrowdown,,"
    <div style="" display: block;  position: relative;"">
    
    <svg width=1920 height=1080>
    <circle cx=897 cy=540 r=16.993788604567115 stroke=""black"" stroke-width=""1"" fill=""black"" />
    <circle cx=828.939 cy=540 r=24.276840863667307 stroke=""none"" stroke-width=""1.5"" fill=""none"" />
    <circle cx=702.54 cy=666.399 r=24.276840863667307 stroke=""none"" stroke-width=""1.5"" fill=""none"" />
    <circle cx=576.141 cy=540 r=24.276840863667307 stroke=""none"" stroke-width=""1.5"" fill=""none"" />
    <circle cx=702.54 cy=413.601 r=24.276840863667307 stroke=""none"" stroke-width=""1.5"" fill=""none"" />
    <polygon points = ""702.54,540 709.3689539507452,515.7231591363327 695.7110460492547,515.7231591363327"" stroke=""none"" stroke-width=""3"" fill = ""none"" />
    
    </svg>
    </div>
        ",,,,,,,,,,,,get_response,False,wxUg6WXLxZOaKJqH,,,True,True,True,194.46,4.0,580.1479999999999,126.39900000000002,2.6,1.0,0.0,,,,21
31,html-keyboard-response,31,312241,0.0-31.0,,,,"
    <div style="" display: block;  position: relative;"">
    
    <svg width=1920 height=1080>
    <circle cx=897 cy=540 r=16.993788604567115 stroke=""black"" stroke-width=""1"" fill=""black"" />
    <circle cx=828.939 cy=540 r=24.276840863667307 stroke=""none"" stroke-width=""1.5"" fill=""none"" />
    <circle cx=702.54 cy=666.399 r=24.276840863667307 stroke=""none"" stroke-width=""1.5"" fill=""none"" />
    <circle cx=576.141 cy=540 r=24.276840863667307 stroke=""none"" stroke-width=""1.5"" fill=""none"" />
    <circle cx=702.54 cy=413.601 r=24.276840863667307 stroke=""none"" stroke-width=""1.5"" fill=""none"" />
    <polygon points = ""702.54,540 709.3689539507452,515.7231591363327 695.7110460492547,515.7231591363327"" stroke=""none"" stroke-width=""3"" fill = ""none"" />
    
    </svg>
    </div>
        ",,,,,,,,,,,,,,,,,,,,,,,,,,,,,,21
32,html-keyboard-response,32,312393,0.0-32.0,,,,"
    <div style="" display: block;  position: relative;"">
    <svg width=1920 height=1080>
    
    <circle cx=897 cy=540 r=16.993788604567115 stroke=""black"" stroke-width=""1"" fill=""black"" />
    <circle cx=1091.46 cy=540 r=24.276840863667307 stroke=""black"" stroke-width=""1.5"" fill=""none"" />
    <circle cx=1219.3526365453308 cy=540 r=24.276840863667307 stroke=""black"" stroke-width=""1.5"" fill=""none"" />
    <circle cx=1091.46 cy=667.8926365453308 r=24.276840863667307 stroke=""black"" stroke-width=""1.5"" fill=""none"" />
    <circle cx=963.5673634546692 cy=540 r=24.276840863667307 stroke=""black"" stroke-width=""1.5"" fill=""none"" />
    <circle cx=1091.46 cy=412.1073634546692 r=24.276840863667307 stroke=""black"" stroke-width=""1.5"" fill=""none"" />
    <polygon points = ""1091.46,540 1098.2889539507453,515.7231591363327 1084.6310460492548,515.7231591363327"" stroke=""white"" stroke-width=""3"" fill = ""white"" />
    
    </svg>
    </div>
        ",,,,,,,,,,,,stimulus,,,,,,,,,,,,,,,,,,21
33,html-keyboard-response,33,312756,0.0-33.0,360.4000000357628,arrowup,,"
    <div style="" display: block;  position: relative;"">
    
    <svg width=1920 height=1080>
    <circle cx=897 cy=540 r=16.993788604567115 stroke=""black"" stroke-width=""1"" fill=""black"" />
    <circle cx=1219.3526365453308 cy=540 r=24.276840863667307 stroke=""none"" stroke-width=""1.5"" fill=""none"" />
    <circle cx=1091.46 cy=667.8926365453308 r=24.276840863667307 stroke=""none"" stroke-width=""1.5"" fill=""none"" />
    <circle cx=963.5673634546692 cy=540 r=24.276840863667307 stroke=""none"" stroke-width=""1.5"" fill=""none"" />
    <circle cx=1091.46 cy=412.1073634546692 r=24.276840863667307 stroke=""none"" stroke-width=""1.5"" fill=""none"" />
    <polygon points = ""1091.46,540 1098.2889539507453,515.7231591363327 1084.6310460492548,515.7231591363327"" stroke=""none"" stroke-width=""3"" fill = ""none"" />
    
    </svg>
    </div>
        ",,,,,,,,,,,,get_response,True,wxUg6WXLxZOaKJqH,,,False,True,True,194.46,4.0,580.1479999999999,127.89263654533076,2.63,1.0,0.0,,,,21
34,html-keyboard-response,34,313258,0.0-34.0,,,,"
    <div style="" display: block;  position: relative;"">
    
    <svg width=1920 height=1080>
    <circle cx=897 cy=540 r=16.993788604567115 stroke=""black"" stroke-width=""1"" fill=""black"" />
    <circle cx=1219.3526365453308 cy=540 r=24.276840863667307 stroke=""none"" stroke-width=""1.5"" fill=""none"" />
    <circle cx=1091.46 cy=667.8926365453308 r=24.276840863667307 stroke=""none"" stroke-width=""1.5"" fill=""none"" />
    <circle cx=963.5673634546692 cy=540 r=24.276840863667307 stroke=""none"" stroke-width=""1.5"" fill=""none"" />
    <circle cx=1091.46 cy=412.1073634546692 r=24.276840863667307 stroke=""none"" stroke-width=""1.5"" fill=""none"" />
    <polygon points = ""1091.46,540 1098.2889539507453,515.7231591363327 1084.6310460492548,515.7231591363327"" stroke=""none"" stroke-width=""3"" fill = ""none"" />
    
    </svg>
    </div>
        ",,,,,,,,,,,,,,,,,,,,,,,,,,,,,,21
35,html-keyboard-response,35,313410,0.0-35.0,,,,"
    <div style="" display: block;  position: relative;"">
    <svg width=1920 height=1080>
    
    <circle cx=897 cy=540 r=16.993788604567115 stroke=""black"" stroke-width=""1"" fill=""black"" />
    <circle cx=1091.46 cy=540 r=24.276840863667307 stroke=""black"" stroke-width=""1.5"" fill=""none"" />
    <circle cx=1219.3526365453308 cy=540 r=24.276840863667307 stroke=""black"" stroke-width=""1.5"" fill=""none"" />
    <circle cx=1091.46 cy=667.8926365453308 r=24.276840863667307 stroke=""black"" stroke-width=""1.5"" fill=""none"" />
    <circle cx=963.5673634546692 cy=540 r=24.276840863667307 stroke=""black"" stroke-width=""1.5"" fill=""none"" />
    <circle cx=1091.46 cy=412.1073634546692 r=24.276840863667307 stroke=""black"" stroke-width=""1.5"" fill=""none"" />
    <polygon points = ""1091.46,540 1098.2889539507453,515.7231591363327 1084.6310460492548,515.7231591363327"" stroke=""white"" stroke-width=""3"" fill = ""white"" />
    
    </svg>
    </div>
        ",,,,,,,,,,,,stimulus,,,,,,,,,,,,,,,,,,21
36,html-keyboard-response,36,313747,0.0-36.0,336.0999999642372,arrowup,,"
    <div style="" display: block;  position: relative;"">
    
    <svg width=1920 height=1080>
    <circle cx=897 cy=540 r=16.993788604567115 stroke=""black"" stroke-width=""1"" fill=""black"" />
    <circle cx=1219.3526365453308 cy=540 r=24.276840863667307 stroke=""none"" stroke-width=""1.5"" fill=""none"" />
    <circle cx=1091.46 cy=667.8926365453308 r=24.276840863667307 stroke=""none"" stroke-width=""1.5"" fill=""none"" />
    <circle cx=963.5673634546692 cy=540 r=24.276840863667307 stroke=""none"" stroke-width=""1.5"" fill=""none"" />
    <circle cx=1091.46 cy=412.1073634546692 r=24.276840863667307 stroke=""none"" stroke-width=""1.5"" fill=""none"" />
    <polygon points = ""1091.46,540 1098.2889539507453,515.7231591363327 1084.6310460492548,515.7231591363327"" stroke=""none"" stroke-width=""3"" fill = ""none"" />
    
    </svg>
    </div>
        ",,,,,,,,,,,,get_response,True,wxUg6WXLxZOaKJqH,,,False,True,True,194.46,4.0,580.1479999999999,127.89263654533076,2.63,1.0,0.0,,,,21
37,html-keyboard-response,37,314249,0.0-37.0,,,,"
    <div style="" display: block;  position: relative;"">
    
    <svg width=1920 height=1080>
    <circle cx=897 cy=540 r=16.993788604567115 stroke=""black"" stroke-width=""1"" fill=""black"" />
    <circle cx=1219.3526365453308 cy=540 r=24.276840863667307 stroke=""none"" stroke-width=""1.5"" fill=""none"" />
    <circle cx=1091.46 cy=667.8926365453308 r=24.276840863667307 stroke=""none"" stroke-width=""1.5"" fill=""none"" />
    <circle cx=963.5673634546692 cy=540 r=24.276840863667307 stroke=""none"" stroke-width=""1.5"" fill=""none"" />
    <circle cx=1091.46 cy=412.1073634546692 r=24.276840863667307 stroke=""none"" stroke-width=""1.5"" fill=""none"" />
    <polygon points = ""1091.46,540 1098.2889539507453,515.7231591363327 1084.6310460492548,515.7231591363327"" stroke=""none"" stroke-width=""3"" fill = ""none"" />
    
    </svg>
    </div>
        ",,,,,,,,,,,,,,,,,,,,,,,,,,,,,,21
38,html-keyboard-response,38,314402,0.0-38.0,,,,"
    <div style="" display: block;  position: relative;"">
    <svg width=1920 height=1080>
    
    <circle cx=897 cy=540 r=16.993788604567115 stroke=""black"" stroke-width=""1"" fill=""black"" />
    <circle cx=1091.46 cy=540 r=24.276840863667307 stroke=""black"" stroke-width=""1.5"" fill=""none"" />
    <circle cx=1219.3526365453308 cy=540 r=24.276840863667307 stroke=""black"" stroke-width=""1.5"" fill=""none"" />
    <circle cx=1091.46 cy=667.8926365453308 r=24.276840863667307 stroke=""black"" stroke-width=""1.5"" fill=""none"" />
    <circle cx=963.5673634546692 cy=540 r=24.276840863667307 stroke=""black"" stroke-width=""1.5"" fill=""none"" />
    <circle cx=1091.46 cy=412.1073634546692 r=24.276840863667307 stroke=""black"" stroke-width=""1.5"" fill=""none"" />
    <polygon points = ""1091.46,540 1098.2889539507453,564.2768408636673 1084.6310460492548,564.2768408636673"" stroke=""white"" stroke-width=""3"" fill = ""white"" />
    
    </svg>
    </div>
        ",,,,,,,,,,,,stimulus,,,,,,,,,,,,,,,,,,21
39,html-keyboard-response,39,314739,0.0-39.0,336.39999997615814,arrowdown,,"
    <div style="" display: block;  position: relative;"">
    
    <svg width=1920 height=1080>
    <circle cx=897 cy=540 r=16.993788604567115 stroke=""black"" stroke-width=""1"" fill=""black"" />
    <circle cx=1219.3526365453308 cy=540 r=24.276840863667307 stroke=""none"" stroke-width=""1.5"" fill=""none"" />
    <circle cx=1091.46 cy=667.8926365453308 r=24.276840863667307 stroke=""none"" stroke-width=""1.5"" fill=""none"" />
    <circle cx=963.5673634546692 cy=540 r=24.276840863667307 stroke=""none"" stroke-width=""1.5"" fill=""none"" />
    <circle cx=1091.46 cy=412.1073634546692 r=24.276840863667307 stroke=""none"" stroke-width=""1.5"" fill=""none"" />
    <polygon points = ""1091.46,540 1098.2889539507453,564.2768408636673 1084.6310460492548,564.2768408636673"" stroke=""none"" stroke-width=""3"" fill = ""none"" />
    
    </svg>
    </div>
        ",,,,,,,,,,,,get_response,True,wxUg6WXLxZOaKJqH,,,False,False,True,194.46,4.0,580.1479999999999,127.89263654533076,2.63,1.0,0.0,,,,21
40,html-keyboard-response,40,315242,0.0-40.0,,,,"
    <div style="" display: block;  position: relative;"">
    
    <svg width=1920 height=1080>
    <circle cx=897 cy=540 r=16.993788604567115 stroke=""black"" stroke-width=""1"" fill=""black"" />
    <circle cx=1219.3526365453308 cy=540 r=24.276840863667307 stroke=""none"" stroke-width=""1.5"" fill=""none"" />
    <circle cx=1091.46 cy=667.8926365453308 r=24.276840863667307 stroke=""none"" stroke-width=""1.5"" fill=""none"" />
    <circle cx=963.5673634546692 cy=540 r=24.276840863667307 stroke=""none"" stroke-width=""1.5"" fill=""none"" />
    <circle cx=1091.46 cy=412.1073634546692 r=24.276840863667307 stroke=""none"" stroke-width=""1.5"" fill=""none"" />
    <polygon points = ""1091.46,540 1098.2889539507453,564.2768408636673 1084.6310460492548,564.2768408636673"" stroke=""none"" stroke-width=""3"" fill = ""none"" />
    
    </svg>
    </div>
        ",,,,,,,,,,,,,,,,,,,,,,,,,,,,,,21
41,html-keyboard-response,41,315394,0.0-41.0,,,,"
    <div style="" display: block;  position: relative;"">
    <svg width=1920 height=1080>
    
    <circle cx=897 cy=540 r=16.993788604567115 stroke=""black"" stroke-width=""1"" fill=""black"" />
    <circle cx=1091.46 cy=540 r=24.276840863667307 stroke=""black"" stroke-width=""1.5"" fill=""none"" />
    <circle cx=1207.726033223028 cy=540 r=24.276840863667307 stroke=""black"" stroke-width=""1.5"" fill=""none"" />
    <circle cx=1091.46 cy=656.266033223028 r=24.276840863667307 stroke=""black"" stroke-width=""1.5"" fill=""none"" />
    <circle cx=975.193966776972 cy=540 r=24.276840863667307 stroke=""black"" stroke-width=""1.5"" fill=""none"" />
    <circle cx=1091.46 cy=423.733966776972 r=24.276840863667307 stroke=""black"" stroke-width=""1.5"" fill=""none"" />
    <polygon points = ""1091.46,540 1098.2889539507453,564.2768408636673 1084.6310460492548,564.2768408636673"" stroke=""white"" stroke-width=""3"" fill = ""white"" />
    
    </svg>
    </div>
        ",,,,,,,,,,,,stimulus,,,,,,,,,,,,,,,,,,21
42,html-keyboard-response,42,315628,0.0-42.0,230.7000000476837,arrowdown,,"
    <div style="" display: block;  position: relative;"">
    
    <svg width=1920 height=1080>
    <circle cx=897 cy=540 r=16.993788604567115 stroke=""black"" stroke-width=""1"" fill=""black"" />
    <circle cx=1207.726033223028 cy=540 r=24.276840863667307 stroke=""none"" stroke-width=""1.5"" fill=""none"" />
    <circle cx=1091.46 cy=656.266033223028 r=24.276840863667307 stroke=""none"" stroke-width=""1.5"" fill=""none"" />
    <circle cx=975.193966776972 cy=540 r=24.276840863667307 stroke=""none"" stroke-width=""1.5"" fill=""none"" />
    <circle cx=1091.46 cy=423.733966776972 r=24.276840863667307 stroke=""none"" stroke-width=""1.5"" fill=""none"" />
    <polygon points = ""1091.46,540 1098.2889539507453,564.2768408636673 1084.6310460492548,564.2768408636673"" stroke=""none"" stroke-width=""3"" fill = ""none"" />
    
    </svg>
    </div>
        ",,,,,,,,,,,,get_response,True,wxUg6WXLxZOaKJqH,,,False,False,True,194.46,4.0,580.1479999999999,116.26603322302796,2.39,1.0,0.0,,,,21
43,html-keyboard-response,43,316130,0.0-43.0,,,,"
    <div style="" display: block;  position: relative;"">
    
    <svg width=1920 height=1080>
    <circle cx=897 cy=540 r=16.993788604567115 stroke=""black"" stroke-width=""1"" fill=""black"" />
    <circle cx=1207.726033223028 cy=540 r=24.276840863667307 stroke=""none"" stroke-width=""1.5"" fill=""none"" />
    <circle cx=1091.46 cy=656.266033223028 r=24.276840863667307 stroke=""none"" stroke-width=""1.5"" fill=""none"" />
    <circle cx=975.193966776972 cy=540 r=24.276840863667307 stroke=""none"" stroke-width=""1.5"" fill=""none"" />
    <circle cx=1091.46 cy=423.733966776972 r=24.276840863667307 stroke=""none"" stroke-width=""1.5"" fill=""none"" />
    <polygon points = ""1091.46,540 1098.2889539507453,564.2768408636673 1084.6310460492548,564.2768408636673"" stroke=""none"" stroke-width=""3"" fill = ""none"" />
    
    </svg>
    </div>
        ",,,,,,,,,,,,,,,,,,,,,,,,,,,,,,21
44,html-keyboard-response,44,316282,0.0-44.0,,,,"
    <div style="" display: block;  position: relative;"">
    <svg width=1920 height=1080>
    
    <circle cx=897 cy=540 r=16.993788604567115 stroke=""black"" stroke-width=""1"" fill=""black"" />
    <circle cx=702.54 cy=540 r=24.276840863667307 stroke=""black"" stroke-width=""1.5"" fill=""none"" />
    <circle cx=808.2363938391163 cy=540 r=24.276840863667307 stroke=""black"" stroke-width=""1.5"" fill=""none"" />
    <circle cx=702.54 cy=645.6963938391164 r=24.276840863667307 stroke=""black"" stroke-width=""1.5"" fill=""none"" />
    <circle cx=596.8436061608836 cy=540 r=24.276840863667307 stroke=""black"" stroke-width=""1.5"" fill=""none"" />
    <circle cx=702.54 cy=434.30360616088365 r=24.276840863667307 stroke=""black"" stroke-width=""1.5"" fill=""none"" />
    <polygon points = ""702.54,540 709.3689539507452,564.2768408636673 695.7110460492547,564.2768408636673"" stroke=""white"" stroke-width=""3"" fill = ""white"" />
    
    </svg>
    </div>
        ",,,,,,,,,,,,stimulus,,,,,,,,,,,,,,,,,,21
45,html-keyboard-response,45,316748,0.0-45.0,463.8999999761581,arrowdown,,"
    <div style="" display: block;  position: relative;"">
    
    <svg width=1920 height=1080>
    <circle cx=897 cy=540 r=16.993788604567115 stroke=""black"" stroke-width=""1"" fill=""black"" />
    <circle cx=808.2363938391163 cy=540 r=24.276840863667307 stroke=""none"" stroke-width=""1.5"" fill=""none"" />
    <circle cx=702.54 cy=645.6963938391164 r=24.276840863667307 stroke=""none"" stroke-width=""1.5"" fill=""none"" />
    <circle cx=596.8436061608836 cy=540 r=24.276840863667307 stroke=""none"" stroke-width=""1.5"" fill=""none"" />
    <circle cx=702.54 cy=434.30360616088365 r=24.276840863667307 stroke=""none"" stroke-width=""1.5"" fill=""none"" />
    <polygon points = ""702.54,540 709.3689539507452,564.2768408636673 695.7110460492547,564.2768408636673"" stroke=""none"" stroke-width=""3"" fill = ""none"" />
    
    </svg>
    </div>
        ",,,,,,,,,,,,get_response,True,wxUg6WXLxZOaKJqH,,,True,False,True,194.46,4.0,580.1479999999999,105.69639383911633,2.17,1.0,0.0,,,,21
46,html-keyboard-response,46,317250,0.0-46.0,,,,"
    <div style="" display: block;  position: relative;"">
    
    <svg width=1920 height=1080>
    <circle cx=897 cy=540 r=16.993788604567115 stroke=""black"" stroke-width=""1"" fill=""black"" />
    <circle cx=808.2363938391163 cy=540 r=24.276840863667307 stroke=""none"" stroke-width=""1.5"" fill=""none"" />
    <circle cx=702.54 cy=645.6963938391164 r=24.276840863667307 stroke=""none"" stroke-width=""1.5"" fill=""none"" />
    <circle cx=596.8436061608836 cy=540 r=24.276840863667307 stroke=""none"" stroke-width=""1.5"" fill=""none"" />
    <circle cx=702.54 cy=434.30360616088365 r=24.276840863667307 stroke=""none"" stroke-width=""1.5"" fill=""none"" />
    <polygon points = ""702.54,540 709.3689539507452,564.2768408636673 695.7110460492547,564.2768408636673"" stroke=""none"" stroke-width=""3"" fill = ""none"" />
    
    </svg>
    </div>
        ",,,,,,,,,,,,,,,,,,,,,,,,,,,,,,21
47,html-keyboard-response,47,317403,0.0-47.0,,,,"
    <div style="" display: block;  position: relative;"">
    <svg width=1920 height=1080>
    
    <circle cx=897 cy=540 r=16.993788604567115 stroke=""black"" stroke-width=""1"" fill=""black"" />
    <circle cx=702.54 cy=540 r=24.276840863667307 stroke=""black"" stroke-width=""1.5"" fill=""none"" />
    <circle cx=798.627630762833 cy=540 r=24.276840863667307 stroke=""black"" stroke-width=""1.5"" fill=""none"" />
    <circle cx=702.54 cy=636.087630762833 r=24.276840863667307 stroke=""black"" stroke-width=""1.5"" fill=""none"" />
    <circle cx=606.452369237167 cy=540 r=24.276840863667307 stroke=""black"" stroke-width=""1.5"" fill=""none"" />
    <circle cx=702.54 cy=443.912369237167 r=24.276840863667307 stroke=""black"" stroke-width=""1.5"" fill=""none"" />
    <polygon points = ""702.54,540 709.3689539507452,515.7231591363327 695.7110460492547,515.7231591363327"" stroke=""white"" stroke-width=""3"" fill = ""white"" />
    
    </svg>
    </div>
        ",,,,,,,,,,,,stimulus,,,,,,,,,,,,,,,,,,21
48,html-keyboard-response,48,317723,0.0-48.0,319.0,arrowup,,"
    <div style="" display: block;  position: relative;"">
    
    <svg width=1920 height=1080>
    <circle cx=897 cy=540 r=16.993788604567115 stroke=""black"" stroke-width=""1"" fill=""black"" />
    <circle cx=798.627630762833 cy=540 r=24.276840863667307 stroke=""none"" stroke-width=""1.5"" fill=""none"" />
    <circle cx=702.54 cy=636.087630762833 r=24.276840863667307 stroke=""none"" stroke-width=""1.5"" fill=""none"" />
    <circle cx=606.452369237167 cy=540 r=24.276840863667307 stroke=""none"" stroke-width=""1.5"" fill=""none"" />
    <circle cx=702.54 cy=443.912369237167 r=24.276840863667307 stroke=""none"" stroke-width=""1.5"" fill=""none"" />
    <polygon points = ""702.54,540 709.3689539507452,515.7231591363327 695.7110460492547,515.7231591363327"" stroke=""none"" stroke-width=""3"" fill = ""none"" />
    
    </svg>
    </div>
        ",,,,,,,,,,,,get_response,True,wxUg6WXLxZOaKJqH,,,True,True,True,194.46,4.0,580.1479999999999,96.08763076283302,1.97,1.0,0.0,,,,21
49,html-keyboard-response,49,318225,0.0-49.0,,,,"
    <div style="" display: block;  position: relative;"">
    
    <svg width=1920 height=1080>
    <circle cx=897 cy=540 r=16.993788604567115 stroke=""black"" stroke-width=""1"" fill=""black"" />
    <circle cx=798.627630762833 cy=540 r=24.276840863667307 stroke=""none"" stroke-width=""1.5"" fill=""none"" />
    <circle cx=702.54 cy=636.087630762833 r=24.276840863667307 stroke=""none"" stroke-width=""1.5"" fill=""none"" />
    <circle cx=606.452369237167 cy=540 r=24.276840863667307 stroke=""none"" stroke-width=""1.5"" fill=""none"" />
    <circle cx=702.54 cy=443.912369237167 r=24.276840863667307 stroke=""none"" stroke-width=""1.5"" fill=""none"" />
    <polygon points = ""702.54,540 709.3689539507452,515.7231591363327 695.7110460492547,515.7231591363327"" stroke=""none"" stroke-width=""3"" fill = ""none"" />
    
    </svg>
    </div>
        ",,,,,,,,,,,,,,,,,,,,,,,,,,,,,,21
50,html-keyboard-response,50,318377,0.0-50.0,,,,"
    <div style="" display: block;  position: relative;"">
    <svg width=1920 height=1080>
    
    <circle cx=897 cy=540 r=16.993788604567115 stroke=""black"" stroke-width=""1"" fill=""black"" />
    <circle cx=702.54 cy=540 r=24.276840863667307 stroke=""black"" stroke-width=""1.5"" fill=""none"" />
    <circle cx=789.8923916025755 cy=540 r=24.276840863667307 stroke=""black"" stroke-width=""1.5"" fill=""none"" />
    <circle cx=702.54 cy=627.3523916025755 r=24.276840863667307 stroke=""black"" stroke-width=""1.5"" fill=""none"" />
    <circle cx=615.1876083974245 cy=540 r=24.276840863667307 stroke=""black"" stroke-width=""1.5"" fill=""none"" />
    <circle cx=702.54 cy=452.6476083974245 r=24.276840863667307 stroke=""black"" stroke-width=""1.5"" fill=""none"" />
    <polygon points = ""702.54,540 709.3689539507452,515.7231591363327 695.7110460492547,515.7231591363327"" stroke=""white"" stroke-width=""3"" fill = ""white"" />
    
    </svg>
    </div>
        ",,,,,,,,,,,,stimulus,,,,,,,,,,,,,,,,,,21
51,html-keyboard-response,51,318843,0.0-51.0,464.8000000119209,arrowup,,"
    <div style="" display: block;  position: relative;"">
    
    <svg width=1920 height=1080>
    <circle cx=897 cy=540 r=16.993788604567115 stroke=""black"" stroke-width=""1"" fill=""black"" />
    <circle cx=789.8923916025755 cy=540 r=24.276840863667307 stroke=""none"" stroke-width=""1.5"" fill=""none"" />
    <circle cx=702.54 cy=627.3523916025755 r=24.276840863667307 stroke=""none"" stroke-width=""1.5"" fill=""none"" />
    <circle cx=615.1876083974245 cy=540 r=24.276840863667307 stroke=""none"" stroke-width=""1.5"" fill=""none"" />
    <circle cx=702.54 cy=452.6476083974245 r=24.276840863667307 stroke=""none"" stroke-width=""1.5"" fill=""none"" />
    <polygon points = ""702.54,540 709.3689539507452,515.7231591363327 695.7110460492547,515.7231591363327"" stroke=""none"" stroke-width=""3"" fill = ""none"" />
    
    </svg>
    </div>
        ",,,,,,,,,,,,get_response,True,wxUg6WXLxZOaKJqH,,,True,True,True,194.46,4.0,580.1479999999999,87.35239160257547,1.79,1.0,0.0,,,,21
52,html-keyboard-response,52,319346,0.0-52.0,,,,"
    <div style="" display: block;  position: relative;"">
    
    <svg width=1920 height=1080>
    <circle cx=897 cy=540 r=16.993788604567115 stroke=""black"" stroke-width=""1"" fill=""black"" />
    <circle cx=789.8923916025755 cy=540 r=24.276840863667307 stroke=""none"" stroke-width=""1.5"" fill=""none"" />
    <circle cx=702.54 cy=627.3523916025755 r=24.276840863667307 stroke=""none"" stroke-width=""1.5"" fill=""none"" />
    <circle cx=615.1876083974245 cy=540 r=24.276840863667307 stroke=""none"" stroke-width=""1.5"" fill=""none"" />
    <circle cx=702.54 cy=452.6476083974245 r=24.276840863667307 stroke=""none"" stroke-width=""1.5"" fill=""none"" />
    <polygon points = ""702.54,540 709.3689539507452,515.7231591363327 695.7110460492547,515.7231591363327"" stroke=""none"" stroke-width=""3"" fill = ""none"" />
    
    </svg>
    </div>
        ",,,,,,,,,,,,,,,,,,,,,,,,,,,,,,21
53,html-keyboard-response,53,319499,0.0-53.0,,,,"
    <div style="" display: block;  position: relative;"">
    <svg width=1920 height=1080>
    
    <circle cx=897 cy=540 r=16.993788604567115 stroke=""black"" stroke-width=""1"" fill=""black"" />
    <circle cx=702.54 cy=540 r=24.276840863667307 stroke=""black"" stroke-width=""1.5"" fill=""none"" />
    <circle cx=781.9512650932504 cy=540 r=24.276840863667307 stroke=""black"" stroke-width=""1.5"" fill=""none"" />
    <circle cx=702.54 cy=619.4112650932504 r=24.276840863667307 stroke=""black"" stroke-width=""1.5"" fill=""none"" />
    <circle cx=623.1287349067495 cy=540 r=24.276840863667307 stroke=""black"" stroke-width=""1.5"" fill=""none"" />
    <circle cx=702.54 cy=460.58873490674955 r=24.276840863667307 stroke=""black"" stroke-width=""1.5"" fill=""none"" />
    <polygon points = ""702.54,540 709.3689539507452,564.2768408636673 695.7110460492547,564.2768408636673"" stroke=""white"" stroke-width=""3"" fill = ""white"" />
    
    </svg>
    </div>
        ",,,,,,,,,,,,stimulus,,,,,,,,,,,,,,,,,,21
54,html-keyboard-response,54,319891,0.0-54.0,390.1999999880791,arrowdown,,"
    <div style="" display: block;  position: relative;"">
    
    <svg width=1920 height=1080>
    <circle cx=897 cy=540 r=16.993788604567115 stroke=""black"" stroke-width=""1"" fill=""black"" />
    <circle cx=781.9512650932504 cy=540 r=24.276840863667307 stroke=""none"" stroke-width=""1.5"" fill=""none"" />
    <circle cx=702.54 cy=619.4112650932504 r=24.276840863667307 stroke=""none"" stroke-width=""1.5"" fill=""none"" />
    <circle cx=623.1287349067495 cy=540 r=24.276840863667307 stroke=""none"" stroke-width=""1.5"" fill=""none"" />
    <circle cx=702.54 cy=460.58873490674955 r=24.276840863667307 stroke=""none"" stroke-width=""1.5"" fill=""none"" />
    <polygon points = ""702.54,540 709.3689539507452,564.2768408636673 695.7110460492547,564.2768408636673"" stroke=""none"" stroke-width=""3"" fill = ""none"" />
    
    </svg>
    </div>
        ",,,,,,,,,,,,get_response,True,wxUg6WXLxZOaKJqH,,,True,False,True,194.46,4.0,580.1479999999999,79.41126509325042,1.63,1.0,0.0,,,,21
55,html-keyboard-response,55,320394,0.0-55.0,,,,"
    <div style="" display: block;  position: relative;"">
    
    <svg width=1920 height=1080>
    <circle cx=897 cy=540 r=16.993788604567115 stroke=""black"" stroke-width=""1"" fill=""black"" />
    <circle cx=781.9512650932504 cy=540 r=24.276840863667307 stroke=""none"" stroke-width=""1.5"" fill=""none"" />
    <circle cx=702.54 cy=619.4112650932504 r=24.276840863667307 stroke=""none"" stroke-width=""1.5"" fill=""none"" />
    <circle cx=623.1287349067495 cy=540 r=24.276840863667307 stroke=""none"" stroke-width=""1.5"" fill=""none"" />
    <circle cx=702.54 cy=460.58873490674955 r=24.276840863667307 stroke=""none"" stroke-width=""1.5"" fill=""none"" />
    <polygon points = ""702.54,540 709.3689539507452,564.2768408636673 695.7110460492547,564.2768408636673"" stroke=""none"" stroke-width=""3"" fill = ""none"" />
    
    </svg>
    </div>
        ",,,,,,,,,,,,,,,,,,,,,,,,,,,,,,21
56,html-keyboard-response,56,320546,0.0-56.0,,,,"
    <div style="" display: block;  position: relative;"">
    <svg width=1920 height=1080>
    
    <circle cx=897 cy=540 r=16.993788604567115 stroke=""black"" stroke-width=""1"" fill=""black"" />
    <circle cx=1091.46 cy=540 r=24.276840863667307 stroke=""black"" stroke-width=""1.5"" fill=""none"" />
    <circle cx=1163.6520591756823 cy=540 r=24.276840863667307 stroke=""black"" stroke-width=""1.5"" fill=""none"" />
    <circle cx=1091.46 cy=612.1920591756822 r=24.276840863667307 stroke=""black"" stroke-width=""1.5"" fill=""none"" />
    <circle cx=1019.2679408243179 cy=540 r=24.276840863667307 stroke=""black"" stroke-width=""1.5"" fill=""none"" />
    <circle cx=1091.46 cy=467.8079408243178 r=24.276840863667307 stroke=""black"" stroke-width=""1.5"" fill=""none"" />
    <polygon points = ""1091.46,540 1098.2889539507453,515.7231591363327 1084.6310460492548,515.7231591363327"" stroke=""white"" stroke-width=""3"" fill = ""white"" />
    
    </svg>
    </div>
        ",,,,,,,,,,,,stimulus,,,,,,,,,,,,,,,,,,21
57,html-keyboard-response,57,320747,0.0-57.0,199.9000000357628,arrowdown,,"
    <div style="" display: block;  position: relative;"">
    
    <svg width=1920 height=1080>
    <circle cx=897 cy=540 r=16.993788604567115 stroke=""black"" stroke-width=""1"" fill=""black"" />
    <circle cx=1163.6520591756823 cy=540 r=24.276840863667307 stroke=""none"" stroke-width=""1.5"" fill=""none"" />
    <circle cx=1091.46 cy=612.1920591756822 r=24.276840863667307 stroke=""none"" stroke-width=""1.5"" fill=""none"" />
    <circle cx=1019.2679408243179 cy=540 r=24.276840863667307 stroke=""none"" stroke-width=""1.5"" fill=""none"" />
    <circle cx=1091.46 cy=467.8079408243178 r=24.276840863667307 stroke=""none"" stroke-width=""1.5"" fill=""none"" />
    <polygon points = ""1091.46,540 1098.2889539507453,515.7231591363327 1084.6310460492548,515.7231591363327"" stroke=""none"" stroke-width=""3"" fill = ""none"" />
    
    </svg>
    </div>
        ",,,,,,,,,,,,get_response,False,wxUg6WXLxZOaKJqH,,,False,True,True,194.46,4.0,580.1479999999999,72.19205917568219,1.48,1.0,0.0,,,,21
58,html-keyboard-response,58,321249,0.0-58.0,,,,"
    <div style="" display: block;  position: relative;"">
    
    <svg width=1920 height=1080>
    <circle cx=897 cy=540 r=16.993788604567115 stroke=""black"" stroke-width=""1"" fill=""black"" />
    <circle cx=1163.6520591756823 cy=540 r=24.276840863667307 stroke=""none"" stroke-width=""1.5"" fill=""none"" />
    <circle cx=1091.46 cy=612.1920591756822 r=24.276840863667307 stroke=""none"" stroke-width=""1.5"" fill=""none"" />
    <circle cx=1019.2679408243179 cy=540 r=24.276840863667307 stroke=""none"" stroke-width=""1.5"" fill=""none"" />
    <circle cx=1091.46 cy=467.8079408243178 r=24.276840863667307 stroke=""none"" stroke-width=""1.5"" fill=""none"" />
    <polygon points = ""1091.46,540 1098.2889539507453,515.7231591363327 1084.6310460492548,515.7231591363327"" stroke=""none"" stroke-width=""3"" fill = ""none"" />
    
    </svg>
    </div>
        ",,,,,,,,,,,,,,,,,,,,,,,,,,,,,,21
59,html-keyboard-response,59,321401,0.0-59.0,,,,"
    <div style="" display: block;  position: relative;"">
    <svg width=1920 height=1080>
    
    <circle cx=897 cy=540 r=16.993788604567115 stroke=""black"" stroke-width=""1"" fill=""black"" />
    <circle cx=1091.46 cy=540 r=24.276840863667307 stroke=""black"" stroke-width=""1.5"" fill=""none"" />
    <circle cx=1185.3096769283868 cy=540 r=24.276840863667307 stroke=""black"" stroke-width=""1.5"" fill=""none"" />
    <circle cx=1091.46 cy=633.8496769283869 r=24.276840863667307 stroke=""black"" stroke-width=""1.5"" fill=""none"" />
    <circle cx=997.6103230716132 cy=540 r=24.276840863667307 stroke=""black"" stroke-width=""1.5"" fill=""none"" />
    <circle cx=1091.46 cy=446.1503230716131 r=24.276840863667307 stroke=""black"" stroke-width=""1.5"" fill=""none"" />
    <polygon points = ""1091.46,540 1098.2889539507453,515.7231591363327 1084.6310460492548,515.7231591363327"" stroke=""white"" stroke-width=""3"" fill = ""white"" />
    
    </svg>
    </div>
        ",,,,,,,,,,,,stimulus,,,,,,,,,,,,,,,,,,21
60,html-keyboard-response,60,321707,0.0-60.0,304.80000001192093,arrowup,,"
    <div style="" display: block;  position: relative;"">
    
    <svg width=1920 height=1080>
    <circle cx=897 cy=540 r=16.993788604567115 stroke=""black"" stroke-width=""1"" fill=""black"" />
    <circle cx=1185.3096769283868 cy=540 r=24.276840863667307 stroke=""none"" stroke-width=""1.5"" fill=""none"" />
    <circle cx=1091.46 cy=633.8496769283869 r=24.276840863667307 stroke=""none"" stroke-width=""1.5"" fill=""none"" />
    <circle cx=997.6103230716132 cy=540 r=24.276840863667307 stroke=""none"" stroke-width=""1.5"" fill=""none"" />
    <circle cx=1091.46 cy=446.1503230716131 r=24.276840863667307 stroke=""none"" stroke-width=""1.5"" fill=""none"" />
    <polygon points = ""1091.46,540 1098.2889539507453,515.7231591363327 1084.6310460492548,515.7231591363327"" stroke=""none"" stroke-width=""3"" fill = ""none"" />
    
    </svg>
    </div>
        ",,,,,,,,,,,,get_response,True,wxUg6WXLxZOaKJqH,,,False,True,True,194.46,4.0,580.1479999999999,93.84967692838686,1.93,1.0,0.0,,,,21
61,html-keyboard-response,61,322209,0.0-61.0,,,,"
    <div style="" display: block;  position: relative;"">
    
    <svg width=1920 height=1080>
    <circle cx=897 cy=540 r=16.993788604567115 stroke=""black"" stroke-width=""1"" fill=""black"" />
    <circle cx=1185.3096769283868 cy=540 r=24.276840863667307 stroke=""none"" stroke-width=""1.5"" fill=""none"" />
    <circle cx=1091.46 cy=633.8496769283869 r=24.276840863667307 stroke=""none"" stroke-width=""1.5"" fill=""none"" />
    <circle cx=997.6103230716132 cy=540 r=24.276840863667307 stroke=""none"" stroke-width=""1.5"" fill=""none"" />
    <circle cx=1091.46 cy=446.1503230716131 r=24.276840863667307 stroke=""none"" stroke-width=""1.5"" fill=""none"" />
    <polygon points = ""1091.46,540 1098.2889539507453,515.7231591363327 1084.6310460492548,515.7231591363327"" stroke=""none"" stroke-width=""3"" fill = ""none"" />
    
    </svg>
    </div>
        ",,,,,,,,,,,,,,,,,,,,,,,,,,,,,,21
62,html-keyboard-response,62,322362,0.0-62.0,,,,"
    <div style="" display: block;  position: relative;"">
    <svg width=1920 height=1080>
    
    <circle cx=897 cy=540 r=16.993788604567115 stroke=""black"" stroke-width=""1"" fill=""black"" />
    <circle cx=1091.46 cy=540 r=24.276840863667307 stroke=""black"" stroke-width=""1.5"" fill=""none"" />
    <circle cx=1185.3096769283868 cy=540 r=24.276840863667307 stroke=""black"" stroke-width=""1.5"" fill=""none"" />
    <circle cx=1091.46 cy=633.8496769283869 r=24.276840863667307 stroke=""black"" stroke-width=""1.5"" fill=""none"" />
    <circle cx=997.6103230716132 cy=540 r=24.276840863667307 stroke=""black"" stroke-width=""1.5"" fill=""none"" />
    <circle cx=1091.46 cy=446.1503230716131 r=24.276840863667307 stroke=""black"" stroke-width=""1.5"" fill=""none"" />
    <polygon points = ""1091.46,540 1098.2889539507453,564.2768408636673 1084.6310460492548,564.2768408636673"" stroke=""white"" stroke-width=""3"" fill = ""white"" />
    
    </svg>
    </div>
        ",,,,,,,,,,,,stimulus,,,,,,,,,,,,,,,,,,21
63,html-keyboard-response,63,322707,0.0-63.0,344.10000002384186,arrowdown,,"
    <div style="" display: block;  position: relative;"">
    
    <svg width=1920 height=1080>
    <circle cx=897 cy=540 r=16.993788604567115 stroke=""black"" stroke-width=""1"" fill=""black"" />
    <circle cx=1185.3096769283868 cy=540 r=24.276840863667307 stroke=""none"" stroke-width=""1.5"" fill=""none"" />
    <circle cx=1091.46 cy=633.8496769283869 r=24.276840863667307 stroke=""none"" stroke-width=""1.5"" fill=""none"" />
    <circle cx=997.6103230716132 cy=540 r=24.276840863667307 stroke=""none"" stroke-width=""1.5"" fill=""none"" />
    <circle cx=1091.46 cy=446.1503230716131 r=24.276840863667307 stroke=""none"" stroke-width=""1.5"" fill=""none"" />
    <polygon points = ""1091.46,540 1098.2889539507453,564.2768408636673 1084.6310460492548,564.2768408636673"" stroke=""none"" stroke-width=""3"" fill = ""none"" />
    
    </svg>
    </div>
        ",,,,,,,,,,,,get_response,True,wxUg6WXLxZOaKJqH,,,False,False,True,194.46,4.0,580.1479999999999,93.84967692838686,1.93,1.0,0.0,,,,21
64,html-keyboard-response,64,323209,0.0-64.0,,,,"
    <div style="" display: block;  position: relative;"">
    
    <svg width=1920 height=1080>
    <circle cx=897 cy=540 r=16.993788604567115 stroke=""black"" stroke-width=""1"" fill=""black"" />
    <circle cx=1185.3096769283868 cy=540 r=24.276840863667307 stroke=""none"" stroke-width=""1.5"" fill=""none"" />
    <circle cx=1091.46 cy=633.8496769283869 r=24.276840863667307 stroke=""none"" stroke-width=""1.5"" fill=""none"" />
    <circle cx=997.6103230716132 cy=540 r=24.276840863667307 stroke=""none"" stroke-width=""1.5"" fill=""none"" />
    <circle cx=1091.46 cy=446.1503230716131 r=24.276840863667307 stroke=""none"" stroke-width=""1.5"" fill=""none"" />
    <polygon points = ""1091.46,540 1098.2889539507453,564.2768408636673 1084.6310460492548,564.2768408636673"" stroke=""none"" stroke-width=""3"" fill = ""none"" />
    
    </svg>
    </div>
        ",,,,,,,,,,,,,,,,,,,,,,,,,,,,,,21
65,html-keyboard-response,65,323362,0.0-65.0,,,,"
    <div style="" display: block;  position: relative;"">
    <svg width=1920 height=1080>
    
    <circle cx=897 cy=540 r=16.993788604567115 stroke=""black"" stroke-width=""1"" fill=""black"" />
    <circle cx=1091.46 cy=540 r=24.276840863667307 stroke=""black"" stroke-width=""1.5"" fill=""none"" />
    <circle cx=1185.3096769283868 cy=540 r=24.276840863667307 stroke=""black"" stroke-width=""1.5"" fill=""none"" />
    <circle cx=1091.46 cy=633.8496769283869 r=24.276840863667307 stroke=""black"" stroke-width=""1.5"" fill=""none"" />
    <circle cx=997.6103230716132 cy=540 r=24.276840863667307 stroke=""black"" stroke-width=""1.5"" fill=""none"" />
    <circle cx=1091.46 cy=446.1503230716131 r=24.276840863667307 stroke=""black"" stroke-width=""1.5"" fill=""none"" />
    <polygon points = ""1091.46,540 1098.2889539507453,564.2768408636673 1084.6310460492548,564.2768408636673"" stroke=""white"" stroke-width=""3"" fill = ""white"" />
    
    </svg>
    </div>
        ",,,,,,,,,,,,stimulus,,,,,,,,,,,,,,,,,,21
66,html-keyboard-response,66,323731,0.0-66.0,368.0,arrowdown,,"
    <div style="" display: block;  position: relative;"">
    
    <svg width=1920 height=1080>
    <circle cx=897 cy=540 r=16.993788604567115 stroke=""black"" stroke-width=""1"" fill=""black"" />
    <circle cx=1185.3096769283868 cy=540 r=24.276840863667307 stroke=""none"" stroke-width=""1.5"" fill=""none"" />
    <circle cx=1091.46 cy=633.8496769283869 r=24.276840863667307 stroke=""none"" stroke-width=""1.5"" fill=""none"" />
    <circle cx=997.6103230716132 cy=540 r=24.276840863667307 stroke=""none"" stroke-width=""1.5"" fill=""none"" />
    <circle cx=1091.46 cy=446.1503230716131 r=24.276840863667307 stroke=""none"" stroke-width=""1.5"" fill=""none"" />
    <polygon points = ""1091.46,540 1098.2889539507453,564.2768408636673 1084.6310460492548,564.2768408636673"" stroke=""none"" stroke-width=""3"" fill = ""none"" />
    
    </svg>
    </div>
        ",,,,,,,,,,,,get_response,True,wxUg6WXLxZOaKJqH,,,False,False,True,194.46,4.0,580.1479999999999,93.84967692838686,1.93,1.0,0.0,,,,21
67,html-keyboard-response,67,324233,0.0-67.0,,,,"
    <div style="" display: block;  position: relative;"">
    
    <svg width=1920 height=1080>
    <circle cx=897 cy=540 r=16.993788604567115 stroke=""black"" stroke-width=""1"" fill=""black"" />
    <circle cx=1185.3096769283868 cy=540 r=24.276840863667307 stroke=""none"" stroke-width=""1.5"" fill=""none"" />
    <circle cx=1091.46 cy=633.8496769283869 r=24.276840863667307 stroke=""none"" stroke-width=""1.5"" fill=""none"" />
    <circle cx=997.6103230716132 cy=540 r=24.276840863667307 stroke=""none"" stroke-width=""1.5"" fill=""none"" />
    <circle cx=1091.46 cy=446.1503230716131 r=24.276840863667307 stroke=""none"" stroke-width=""1.5"" fill=""none"" />
    <polygon points = ""1091.46,540 1098.2889539507453,564.2768408636673 1084.6310460492548,564.2768408636673"" stroke=""none"" stroke-width=""3"" fill = ""none"" />
    
    </svg>
    </div>
        ",,,,,,,,,,,,,,,,,,,,,,,,,,,,,,21
68,html-keyboard-response,68,324385,0.0-68.0,,,,"
    <div style="" display: block;  position: relative;"">
    <svg width=1920 height=1080>
    
    <circle cx=897 cy=540 r=16.993788604567115 stroke=""black"" stroke-width=""1"" fill=""black"" />
    <circle cx=702.54 cy=540 r=24.276840863667307 stroke=""black"" stroke-width=""1.5"" fill=""none"" />
    <circle cx=787.8578881167152 cy=540 r=24.276840863667307 stroke=""black"" stroke-width=""1.5"" fill=""none"" />
    <circle cx=702.54 cy=625.3178881167153 r=24.276840863667307 stroke=""black"" stroke-width=""1.5"" fill=""none"" />
    <circle cx=617.2221118832847 cy=540 r=24.276840863667307 stroke=""black"" stroke-width=""1.5"" fill=""none"" />
    <circle cx=702.54 cy=454.6821118832847 r=24.276840863667307 stroke=""black"" stroke-width=""1.5"" fill=""none"" />
    <polygon points = ""702.54,540 709.3689539507452,564.2768408636673 695.7110460492547,564.2768408636673"" stroke=""white"" stroke-width=""3"" fill = ""white"" />
    
    </svg>
    </div>
        ",,,,,,,,,,,,stimulus,,,,,,,,,,,,,,,,,,21
69,html-keyboard-response,69,324668,0.0-69.0,281.4000000357628,arrowdown,,"
    <div style="" display: block;  position: relative;"">
    
    <svg width=1920 height=1080>
    <circle cx=897 cy=540 r=16.993788604567115 stroke=""black"" stroke-width=""1"" fill=""black"" />
    <circle cx=787.8578881167152 cy=540 r=24.276840863667307 stroke=""none"" stroke-width=""1.5"" fill=""none"" />
    <circle cx=702.54 cy=625.3178881167153 r=24.276840863667307 stroke=""none"" stroke-width=""1.5"" fill=""none"" />
    <circle cx=617.2221118832847 cy=540 r=24.276840863667307 stroke=""none"" stroke-width=""1.5"" fill=""none"" />
    <circle cx=702.54 cy=454.6821118832847 r=24.276840863667307 stroke=""none"" stroke-width=""1.5"" fill=""none"" />
    <polygon points = ""702.54,540 709.3689539507452,564.2768408636673 695.7110460492547,564.2768408636673"" stroke=""none"" stroke-width=""3"" fill = ""none"" />
    
    </svg>
    </div>
        ",,,,,,,,,,,,get_response,True,wxUg6WXLxZOaKJqH,,,True,False,True,194.46,4.0,580.1479999999999,85.31788811671532,1.75,1.0,0.0,,,,21
70,html-keyboard-response,70,325171,0.0-70.0,,,,"
    <div style="" display: block;  position: relative;"">
    
    <svg width=1920 height=1080>
    <circle cx=897 cy=540 r=16.993788604567115 stroke=""black"" stroke-width=""1"" fill=""black"" />
    <circle cx=787.8578881167152 cy=540 r=24.276840863667307 stroke=""none"" stroke-width=""1.5"" fill=""none"" />
    <circle cx=702.54 cy=625.3178881167153 r=24.276840863667307 stroke=""none"" stroke-width=""1.5"" fill=""none"" />
    <circle cx=617.2221118832847 cy=540 r=24.276840863667307 stroke=""none"" stroke-width=""1.5"" fill=""none"" />
    <circle cx=702.54 cy=454.6821118832847 r=24.276840863667307 stroke=""none"" stroke-width=""1.5"" fill=""none"" />
    <polygon points = ""702.54,540 709.3689539507452,564.2768408636673 695.7110460492547,564.2768408636673"" stroke=""none"" stroke-width=""3"" fill = ""none"" />
    
    </svg>
    </div>
        ",,,,,,,,,,,,,,,,,,,,,,,,,,,,,,21
71,html-keyboard-response,71,325323,0.0-71.0,,,,"
    <div style="" display: block;  position: relative;"">
    <svg width=1920 height=1080>
    
    <circle cx=897 cy=540 r=16.993788604567115 stroke=""black"" stroke-width=""1"" fill=""black"" />
    <circle cx=702.54 cy=540 r=24.276840863667307 stroke=""black"" stroke-width=""1.5"" fill=""none"" />
    <circle cx=780.1017164697412 cy=540 r=24.276840863667307 stroke=""black"" stroke-width=""1.5"" fill=""none"" />
    <circle cx=702.54 cy=617.5617164697412 r=24.276840863667307 stroke=""black"" stroke-width=""1.5"" fill=""none"" />
    <circle cx=624.9782835302588 cy=540 r=24.276840863667307 stroke=""black"" stroke-width=""1.5"" fill=""none"" />
    <circle cx=702.54 cy=462.4382835302588 r=24.276840863667307 stroke=""black"" stroke-width=""1.5"" fill=""none"" />
    <polygon points = ""702.54,540 709.3689539507452,515.7231591363327 695.7110460492547,515.7231591363327"" stroke=""white"" stroke-width=""3"" fill = ""white"" />
    
    </svg>
    </div>
        ",,,,,,,,,,,,stimulus,,,,,,,,,,,,,,,,,,21
72,html-keyboard-response,72,325636,0.0-72.0,311.4000000357628,arrowup,,"
    <div style="" display: block;  position: relative;"">
    
    <svg width=1920 height=1080>
    <circle cx=897 cy=540 r=16.993788604567115 stroke=""black"" stroke-width=""1"" fill=""black"" />
    <circle cx=780.1017164697412 cy=540 r=24.276840863667307 stroke=""none"" stroke-width=""1.5"" fill=""none"" />
    <circle cx=702.54 cy=617.5617164697412 r=24.276840863667307 stroke=""none"" stroke-width=""1.5"" fill=""none"" />
    <circle cx=624.9782835302588 cy=540 r=24.276840863667307 stroke=""none"" stroke-width=""1.5"" fill=""none"" />
    <circle cx=702.54 cy=462.4382835302588 r=24.276840863667307 stroke=""none"" stroke-width=""1.5"" fill=""none"" />
    <polygon points = ""702.54,540 709.3689539507452,515.7231591363327 695.7110460492547,515.7231591363327"" stroke=""none"" stroke-width=""3"" fill = ""none"" />
    
    </svg>
    </div>
        ",,,,,,,,,,,,get_response,True,wxUg6WXLxZOaKJqH,,,True,True,True,194.46,4.0,580.1479999999999,77.5617164697412,1.59,1.0,0.0,,,,21
73,html-keyboard-response,73,326137,0.0-73.0,,,,"
    <div style="" display: block;  position: relative;"">
    
    <svg width=1920 height=1080>
    <circle cx=897 cy=540 r=16.993788604567115 stroke=""black"" stroke-width=""1"" fill=""black"" />
    <circle cx=780.1017164697412 cy=540 r=24.276840863667307 stroke=""none"" stroke-width=""1.5"" fill=""none"" />
    <circle cx=702.54 cy=617.5617164697412 r=24.276840863667307 stroke=""none"" stroke-width=""1.5"" fill=""none"" />
    <circle cx=624.9782835302588 cy=540 r=24.276840863667307 stroke=""none"" stroke-width=""1.5"" fill=""none"" />
    <circle cx=702.54 cy=462.4382835302588 r=24.276840863667307 stroke=""none"" stroke-width=""1.5"" fill=""none"" />
    <polygon points = ""702.54,540 709.3689539507452,515.7231591363327 695.7110460492547,515.7231591363327"" stroke=""none"" stroke-width=""3"" fill = ""none"" />
    
    </svg>
    </div>
        ",,,,,,,,,,,,,,,,,,,,,,,,,,,,,,21
74,html-keyboard-response,74,326289,0.0-74.0,,,,"
    <div style="" display: block;  position: relative;"">
    <svg width=1920 height=1080>
    
    <circle cx=897 cy=540 r=16.993788604567115 stroke=""black"" stroke-width=""1"" fill=""black"" />
    <circle cx=1091.46 cy=540 r=24.276840863667307 stroke=""black"" stroke-width=""1.5"" fill=""none"" />
    <circle cx=1161.9706513361284 cy=540 r=24.276840863667307 stroke=""black"" stroke-width=""1.5"" fill=""none"" />
    <circle cx=1091.46 cy=610.5106513361284 r=24.276840863667307 stroke=""black"" stroke-width=""1.5"" fill=""none"" />
    <circle cx=1020.9493486638717 cy=540 r=24.276840863667307 stroke=""black"" stroke-width=""1.5"" fill=""none"" />
    <circle cx=1091.46 cy=469.4893486638716 r=24.276840863667307 stroke=""black"" stroke-width=""1.5"" fill=""none"" />
    <polygon points = ""1091.46,540 1098.2889539507453,515.7231591363327 1084.6310460492548,515.7231591363327"" stroke=""white"" stroke-width=""3"" fill = ""white"" />
    
    </svg>
    </div>
        ",,,,,,,,,,,,stimulus,,,,,,,,,,,,,,,,,,21
75,html-keyboard-response,75,326652,0.0-75.0,360.9000000357628,arrowup,,"
    <div style="" display: block;  position: relative;"">
    
    <svg width=1920 height=1080>
    <circle cx=897 cy=540 r=16.993788604567115 stroke=""black"" stroke-width=""1"" fill=""black"" />
    <circle cx=1161.9706513361284 cy=540 r=24.276840863667307 stroke=""none"" stroke-width=""1.5"" fill=""none"" />
    <circle cx=1091.46 cy=610.5106513361284 r=24.276840863667307 stroke=""none"" stroke-width=""1.5"" fill=""none"" />
    <circle cx=1020.9493486638717 cy=540 r=24.276840863667307 stroke=""none"" stroke-width=""1.5"" fill=""none"" />
    <circle cx=1091.46 cy=469.4893486638716 r=24.276840863667307 stroke=""none"" stroke-width=""1.5"" fill=""none"" />
    <polygon points = ""1091.46,540 1098.2889539507453,515.7231591363327 1084.6310460492548,515.7231591363327"" stroke=""none"" stroke-width=""3"" fill = ""none"" />
    
    </svg>
    </div>
        ",,,,,,,,,,,,get_response,True,wxUg6WXLxZOaKJqH,,,False,True,True,194.46,4.0,580.1479999999999,70.51065133612836,1.45,1.0,0.0,,,,21
76,html-keyboard-response,76,327154,0.0-76.0,,,,"
    <div style="" display: block;  position: relative;"">
    
    <svg width=1920 height=1080>
    <circle cx=897 cy=540 r=16.993788604567115 stroke=""black"" stroke-width=""1"" fill=""black"" />
    <circle cx=1161.9706513361284 cy=540 r=24.276840863667307 stroke=""none"" stroke-width=""1.5"" fill=""none"" />
    <circle cx=1091.46 cy=610.5106513361284 r=24.276840863667307 stroke=""none"" stroke-width=""1.5"" fill=""none"" />
    <circle cx=1020.9493486638717 cy=540 r=24.276840863667307 stroke=""none"" stroke-width=""1.5"" fill=""none"" />
    <circle cx=1091.46 cy=469.4893486638716 r=24.276840863667307 stroke=""none"" stroke-width=""1.5"" fill=""none"" />
    <polygon points = ""1091.46,540 1098.2889539507453,515.7231591363327 1084.6310460492548,515.7231591363327"" stroke=""none"" stroke-width=""3"" fill = ""none"" />
    
    </svg>
    </div>
        ",,,,,,,,,,,,,,,,,,,,,,,,,,,,,,21
77,html-keyboard-response,77,327307,0.0-77.0,,,,"
    <div style="" display: block;  position: relative;"">
    <svg width=1920 height=1080>
    
    <circle cx=897 cy=540 r=16.993788604567115 stroke=""black"" stroke-width=""1"" fill=""black"" />
    <circle cx=1091.46 cy=540 r=24.276840863667307 stroke=""black"" stroke-width=""1.5"" fill=""none"" />
    <circle cx=1155.5605921237532 cy=540 r=24.276840863667307 stroke=""black"" stroke-width=""1.5"" fill=""none"" />
    <circle cx=1091.46 cy=604.100592123753 r=24.276840863667307 stroke=""black"" stroke-width=""1.5"" fill=""none"" />
    <circle cx=1027.359407876247 cy=540 r=24.276840863667307 stroke=""black"" stroke-width=""1.5"" fill=""none"" />
    <circle cx=1091.46 cy=475.899407876247 r=24.276840863667307 stroke=""black"" stroke-width=""1.5"" fill=""none"" />
    <polygon points = ""1091.46,540 1098.2889539507453,564.2768408636673 1084.6310460492548,564.2768408636673"" stroke=""white"" stroke-width=""3"" fill = ""white"" />
    
    </svg>
    </div>
        ",,,,,,,,,,,,stimulus,,,,,,,,,,,,,,,,,,21
78,html-keyboard-response,78,327603,0.0-78.0,295.0,arrowdown,,"
    <div style="" display: block;  position: relative;"">
    
    <svg width=1920 height=1080>
    <circle cx=897 cy=540 r=16.993788604567115 stroke=""black"" stroke-width=""1"" fill=""black"" />
    <circle cx=1155.5605921237532 cy=540 r=24.276840863667307 stroke=""none"" stroke-width=""1.5"" fill=""none"" />
    <circle cx=1091.46 cy=604.100592123753 r=24.276840863667307 stroke=""none"" stroke-width=""1.5"" fill=""none"" />
    <circle cx=1027.359407876247 cy=540 r=24.276840863667307 stroke=""none"" stroke-width=""1.5"" fill=""none"" />
    <circle cx=1091.46 cy=475.899407876247 r=24.276840863667307 stroke=""none"" stroke-width=""1.5"" fill=""none"" />
    <polygon points = ""1091.46,540 1098.2889539507453,564.2768408636673 1084.6310460492548,564.2768408636673"" stroke=""none"" stroke-width=""3"" fill = ""none"" />
    
    </svg>
    </div>
        ",,,,,,,,,,,,get_response,True,wxUg6WXLxZOaKJqH,,,False,False,True,194.46,4.0,580.1479999999999,64.10059212375305,1.32,1.0,0.0,,,,21
79,html-keyboard-response,79,328106,0.0-79.0,,,,"
    <div style="" display: block;  position: relative;"">
    
    <svg width=1920 height=1080>
    <circle cx=897 cy=540 r=16.993788604567115 stroke=""black"" stroke-width=""1"" fill=""black"" />
    <circle cx=1155.5605921237532 cy=540 r=24.276840863667307 stroke=""none"" stroke-width=""1.5"" fill=""none"" />
    <circle cx=1091.46 cy=604.100592123753 r=24.276840863667307 stroke=""none"" stroke-width=""1.5"" fill=""none"" />
    <circle cx=1027.359407876247 cy=540 r=24.276840863667307 stroke=""none"" stroke-width=""1.5"" fill=""none"" />
    <circle cx=1091.46 cy=475.899407876247 r=24.276840863667307 stroke=""none"" stroke-width=""1.5"" fill=""none"" />
    <polygon points = ""1091.46,540 1098.2889539507453,564.2768408636673 1084.6310460492548,564.2768408636673"" stroke=""none"" stroke-width=""3"" fill = ""none"" />
    
    </svg>
    </div>
        ",,,,,,,,,,,,,,,,,,,,,,,,,,,,,,21
80,html-keyboard-response,80,328258,0.0-80.0,,,,"
    <div style="" display: block;  position: relative;"">
    <svg width=1920 height=1080>
    
    <circle cx=897 cy=540 r=16.993788604567115 stroke=""black"" stroke-width=""1"" fill=""black"" />
    <circle cx=1091.46 cy=540 r=24.276840863667307 stroke=""black"" stroke-width=""1.5"" fill=""none"" />
    <circle cx=1149.7332655670482 cy=540 r=24.276840863667307 stroke=""black"" stroke-width=""1.5"" fill=""none"" />
    <circle cx=1091.46 cy=598.2732655670483 r=24.276840863667307 stroke=""black"" stroke-width=""1.5"" fill=""none"" />
    <circle cx=1033.1867344329519 cy=540 r=24.276840863667307 stroke=""black"" stroke-width=""1.5"" fill=""none"" />
    <circle cx=1091.46 cy=481.7267344329518 r=24.276840863667307 stroke=""black"" stroke-width=""1.5"" fill=""none"" />
    <polygon points = ""1091.46,540 1098.2889539507453,515.7231591363327 1084.6310460492548,515.7231591363327"" stroke=""white"" stroke-width=""3"" fill = ""white"" />
    
    </svg>
    </div>
        ",,,,,,,,,,,,stimulus,,,,,,,,,,,,,,,,,,21
81,html-keyboard-response,81,328971,0.0-81.0,711.0,arrowup,,"
    <div style="" display: block;  position: relative;"">
    
    <svg width=1920 height=1080>
    <circle cx=897 cy=540 r=16.993788604567115 stroke=""black"" stroke-width=""1"" fill=""black"" />
    <circle cx=1149.7332655670482 cy=540 r=24.276840863667307 stroke=""none"" stroke-width=""1.5"" fill=""none"" />
    <circle cx=1091.46 cy=598.2732655670483 r=24.276840863667307 stroke=""none"" stroke-width=""1.5"" fill=""none"" />
    <circle cx=1033.1867344329519 cy=540 r=24.276840863667307 stroke=""none"" stroke-width=""1.5"" fill=""none"" />
    <circle cx=1091.46 cy=481.7267344329518 r=24.276840863667307 stroke=""none"" stroke-width=""1.5"" fill=""none"" />
    <polygon points = ""1091.46,540 1098.2889539507453,515.7231591363327 1084.6310460492548,515.7231591363327"" stroke=""none"" stroke-width=""3"" fill = ""none"" />
    
    </svg>
    </div>
        ",,,,,,,,,,,,get_response,True,wxUg6WXLxZOaKJqH,,,False,True,True,194.46,4.0,580.1479999999999,58.27326556704822,1.2,1.0,0.0,,,,21
82,html-keyboard-response,82,329473,0.0-82.0,,,,"
    <div style="" display: block;  position: relative;"">
    
    <svg width=1920 height=1080>
    <circle cx=897 cy=540 r=16.993788604567115 stroke=""black"" stroke-width=""1"" fill=""black"" />
    <circle cx=1149.7332655670482 cy=540 r=24.276840863667307 stroke=""none"" stroke-width=""1.5"" fill=""none"" />
    <circle cx=1091.46 cy=598.2732655670483 r=24.276840863667307 stroke=""none"" stroke-width=""1.5"" fill=""none"" />
    <circle cx=1033.1867344329519 cy=540 r=24.276840863667307 stroke=""none"" stroke-width=""1.5"" fill=""none"" />
    <circle cx=1091.46 cy=481.7267344329518 r=24.276840863667307 stroke=""none"" stroke-width=""1.5"" fill=""none"" />
    <polygon points = ""1091.46,540 1098.2889539507453,515.7231591363327 1084.6310460492548,515.7231591363327"" stroke=""none"" stroke-width=""3"" fill = ""none"" />
    
    </svg>
    </div>
        ",,,,,,,,,,,,,,,,,,,,,,,,,,,,,,21
83,html-keyboard-response,83,329625,0.0-83.0,,,,"
    <div style="" display: block;  position: relative;"">
    <svg width=1920 height=1080>
    
    <circle cx=897 cy=540 r=16.993788604567115 stroke=""black"" stroke-width=""1"" fill=""black"" />
    <circle cx=702.54 cy=540 r=24.276840863667307 stroke=""black"" stroke-width=""1.5"" fill=""none"" />
    <circle cx=755.5156959700438 cy=540 r=24.276840863667307 stroke=""black"" stroke-width=""1.5"" fill=""none"" />
    <circle cx=702.54 cy=592.9756959700438 r=24.276840863667307 stroke=""black"" stroke-width=""1.5"" fill=""none"" />
    <circle cx=649.5643040299561 cy=540 r=24.276840863667307 stroke=""black"" stroke-width=""1.5"" fill=""none"" />
    <circle cx=702.54 cy=487.02430402995617 r=24.276840863667307 stroke=""black"" stroke-width=""1.5"" fill=""none"" />
    <polygon points = ""702.54,540 709.3689539507452,515.7231591363327 695.7110460492547,515.7231591363327"" stroke=""white"" stroke-width=""3"" fill = ""white"" />
    
    </svg>
    </div>
        ",,,,,,,,,,,,stimulus,,,,,,,,,,,,,,,,,,21
84,html-keyboard-response,84,330580,0.0-84.0,952.8000000119208,arrowdown,,"
    <div style="" display: block;  position: relative;"">
    
    <svg width=1920 height=1080>
    <circle cx=897 cy=540 r=16.993788604567115 stroke=""black"" stroke-width=""1"" fill=""black"" />
    <circle cx=755.5156959700438 cy=540 r=24.276840863667307 stroke=""none"" stroke-width=""1.5"" fill=""none"" />
    <circle cx=702.54 cy=592.9756959700438 r=24.276840863667307 stroke=""none"" stroke-width=""1.5"" fill=""none"" />
    <circle cx=649.5643040299561 cy=540 r=24.276840863667307 stroke=""none"" stroke-width=""1.5"" fill=""none"" />
    <circle cx=702.54 cy=487.02430402995617 r=24.276840863667307 stroke=""none"" stroke-width=""1.5"" fill=""none"" />
    <polygon points = ""702.54,540 709.3689539507452,515.7231591363327 695.7110460492547,515.7231591363327"" stroke=""none"" stroke-width=""3"" fill = ""none"" />
    
    </svg>
    </div>
        ",,,,,,,,,,,,get_response,False,wxUg6WXLxZOaKJqH,,,True,True,True,194.46,4.0,580.1479999999999,52.97569597004383,1.09,1.0,0.0,,,,21
85,html-keyboard-response,85,331081,0.0-85.0,,,,"
    <div style="" display: block;  position: relative;"">
    
    <svg width=1920 height=1080>
    <circle cx=897 cy=540 r=16.993788604567115 stroke=""black"" stroke-width=""1"" fill=""black"" />
    <circle cx=755.5156959700438 cy=540 r=24.276840863667307 stroke=""none"" stroke-width=""1.5"" fill=""none"" />
    <circle cx=702.54 cy=592.9756959700438 r=24.276840863667307 stroke=""none"" stroke-width=""1.5"" fill=""none"" />
    <circle cx=649.5643040299561 cy=540 r=24.276840863667307 stroke=""none"" stroke-width=""1.5"" fill=""none"" />
    <circle cx=702.54 cy=487.02430402995617 r=24.276840863667307 stroke=""none"" stroke-width=""1.5"" fill=""none"" />
    <polygon points = ""702.54,540 709.3689539507452,515.7231591363327 695.7110460492547,515.7231591363327"" stroke=""none"" stroke-width=""3"" fill = ""none"" />
    
    </svg>
    </div>
        ",,,,,,,,,,,,,,,,,,,,,,,,,,,,,,21
86,html-keyboard-response,86,331233,0.0-86.0,,,,"
    <div style="" display: block;  position: relative;"">
    <svg width=1920 height=1080>
    
    <circle cx=897 cy=540 r=16.993788604567115 stroke=""black"" stroke-width=""1"" fill=""black"" />
    <circle cx=702.54 cy=540 r=24.276840863667307 stroke=""black"" stroke-width=""1.5"" fill=""none"" />
    <circle cx=771.408404761057 cy=540 r=24.276840863667307 stroke=""black"" stroke-width=""1.5"" fill=""none"" />
    <circle cx=702.54 cy=608.868404761057 r=24.276840863667307 stroke=""black"" stroke-width=""1.5"" fill=""none"" />
    <circle cx=633.6715952389429 cy=540 r=24.276840863667307 stroke=""black"" stroke-width=""1.5"" fill=""none"" />
    <circle cx=702.54 cy=471.131595238943 r=24.276840863667307 stroke=""black"" stroke-width=""1.5"" fill=""none"" />
    <polygon points = ""702.54,540 709.3689539507452,564.2768408636673 695.7110460492547,564.2768408636673"" stroke=""white"" stroke-width=""3"" fill = ""white"" />
    
    </svg>
    </div>
        ",,,,,,,,,,,,stimulus,,,,,,,,,,,,,,,,,,21
87,html-keyboard-response,87,331595,0.0-87.0,359.5,arrowdown,,"
    <div style="" display: block;  position: relative;"">
    
    <svg width=1920 height=1080>
    <circle cx=897 cy=540 r=16.993788604567115 stroke=""black"" stroke-width=""1"" fill=""black"" />
    <circle cx=771.408404761057 cy=540 r=24.276840863667307 stroke=""none"" stroke-width=""1.5"" fill=""none"" />
    <circle cx=702.54 cy=608.868404761057 r=24.276840863667307 stroke=""none"" stroke-width=""1.5"" fill=""none"" />
    <circle cx=633.6715952389429 cy=540 r=24.276840863667307 stroke=""none"" stroke-width=""1.5"" fill=""none"" />
    <circle cx=702.54 cy=471.131595238943 r=24.276840863667307 stroke=""none"" stroke-width=""1.5"" fill=""none"" />
    <polygon points = ""702.54,540 709.3689539507452,564.2768408636673 695.7110460492547,564.2768408636673"" stroke=""none"" stroke-width=""3"" fill = ""none"" />
    
    </svg>
    </div>
        ",,,,,,,,,,,,get_response,True,wxUg6WXLxZOaKJqH,,,True,False,True,194.46,4.0,580.1479999999999,68.86840476105698,1.41,1.0,0.0,,,,21
88,html-keyboard-response,88,332097,0.0-88.0,,,,"
    <div style="" display: block;  position: relative;"">
    
    <svg width=1920 height=1080>
    <circle cx=897 cy=540 r=16.993788604567115 stroke=""black"" stroke-width=""1"" fill=""black"" />
    <circle cx=771.408404761057 cy=540 r=24.276840863667307 stroke=""none"" stroke-width=""1.5"" fill=""none"" />
    <circle cx=702.54 cy=608.868404761057 r=24.276840863667307 stroke=""none"" stroke-width=""1.5"" fill=""none"" />
    <circle cx=633.6715952389429 cy=540 r=24.276840863667307 stroke=""none"" stroke-width=""1.5"" fill=""none"" />
    <circle cx=702.54 cy=471.131595238943 r=24.276840863667307 stroke=""none"" stroke-width=""1.5"" fill=""none"" />
    <polygon points = ""702.54,540 709.3689539507452,564.2768408636673 695.7110460492547,564.2768408636673"" stroke=""none"" stroke-width=""3"" fill = ""none"" />
    
    </svg>
    </div>
        ",,,,,,,,,,,,,,,,,,,,,,,,,,,,,,21
89,html-keyboard-response,89,332249,0.0-89.0,,,,"
    <div style="" display: block;  position: relative;"">
    <svg width=1920 height=1080>
    
    <circle cx=897 cy=540 r=16.993788604567115 stroke=""black"" stroke-width=""1"" fill=""black"" />
    <circle cx=702.54 cy=540 r=24.276840863667307 stroke=""black"" stroke-width=""1.5"" fill=""none"" />
    <circle cx=771.408404761057 cy=540 r=24.276840863667307 stroke=""black"" stroke-width=""1.5"" fill=""none"" />
    <circle cx=702.54 cy=608.868404761057 r=24.276840863667307 stroke=""black"" stroke-width=""1.5"" fill=""none"" />
    <circle cx=633.6715952389429 cy=540 r=24.276840863667307 stroke=""black"" stroke-width=""1.5"" fill=""none"" />
    <circle cx=702.54 cy=471.131595238943 r=24.276840863667307 stroke=""black"" stroke-width=""1.5"" fill=""none"" />
    <polygon points = ""702.54,540 709.3689539507452,515.7231591363327 695.7110460492547,515.7231591363327"" stroke=""white"" stroke-width=""3"" fill = ""white"" />
    
    </svg>
    </div>
        ",,,,,,,,,,,,stimulus,,,,,,,,,,,,,,,,,,21
90,html-keyboard-response,90,332715,0.0-90.0,464.9000000357628,arrowup,,"
    <div style="" display: block;  position: relative;"">
    
    <svg width=1920 height=1080>
    <circle cx=897 cy=540 r=16.993788604567115 stroke=""black"" stroke-width=""1"" fill=""black"" />
    <circle cx=771.408404761057 cy=540 r=24.276840863667307 stroke=""none"" stroke-width=""1.5"" fill=""none"" />
    <circle cx=702.54 cy=608.868404761057 r=24.276840863667307 stroke=""none"" stroke-width=""1.5"" fill=""none"" />
    <circle cx=633.6715952389429 cy=540 r=24.276840863667307 stroke=""none"" stroke-width=""1.5"" fill=""none"" />
    <circle cx=702.54 cy=471.131595238943 r=24.276840863667307 stroke=""none"" stroke-width=""1.5"" fill=""none"" />
    <polygon points = ""702.54,540 709.3689539507452,515.7231591363327 695.7110460492547,515.7231591363327"" stroke=""none"" stroke-width=""3"" fill = ""none"" />
    
    </svg>
    </div>
        ",,,,,,,,,,,,get_response,True,wxUg6WXLxZOaKJqH,,,True,True,True,194.46,4.0,580.1479999999999,68.86840476105698,1.41,1.0,0.0,,,,21
91,html-keyboard-response,91,333218,0.0-91.0,,,,"
    <div style="" display: block;  position: relative;"">
    
    <svg width=1920 height=1080>
    <circle cx=897 cy=540 r=16.993788604567115 stroke=""black"" stroke-width=""1"" fill=""black"" />
    <circle cx=771.408404761057 cy=540 r=24.276840863667307 stroke=""none"" stroke-width=""1.5"" fill=""none"" />
    <circle cx=702.54 cy=608.868404761057 r=24.276840863667307 stroke=""none"" stroke-width=""1.5"" fill=""none"" />
    <circle cx=633.6715952389429 cy=540 r=24.276840863667307 stroke=""none"" stroke-width=""1.5"" fill=""none"" />
    <circle cx=702.54 cy=471.131595238943 r=24.276840863667307 stroke=""none"" stroke-width=""1.5"" fill=""none"" />
    <polygon points = ""702.54,540 709.3689539507452,515.7231591363327 695.7110460492547,515.7231591363327"" stroke=""none"" stroke-width=""3"" fill = ""none"" />
    
    </svg>
    </div>
        ",,,,,,,,,,,,,,,,,,,,,,,,,,,,,,21
92,html-keyboard-response,92,333370,0.0-92.0,,,,"
    <div style="" display: block;  position: relative;"">
    <svg width=1920 height=1080>
    
    <circle cx=897 cy=540 r=16.993788604567115 stroke=""black"" stroke-width=""1"" fill=""black"" />
    <circle cx=1091.46 cy=540 r=24.276840863667307 stroke=""black"" stroke-width=""1.5"" fill=""none"" />
    <circle cx=1160.328404761057 cy=540 r=24.276840863667307 stroke=""black"" stroke-width=""1.5"" fill=""none"" />
    <circle cx=1091.46 cy=608.868404761057 r=24.276840863667307 stroke=""black"" stroke-width=""1.5"" fill=""none"" />
    <circle cx=1022.591595238943 cy=540 r=24.276840863667307 stroke=""black"" stroke-width=""1.5"" fill=""none"" />
    <circle cx=1091.46 cy=471.131595238943 r=24.276840863667307 stroke=""black"" stroke-width=""1.5"" fill=""none"" />
    <polygon points = ""1091.46,540 1098.2889539507453,515.7231591363327 1084.6310460492548,515.7231591363327"" stroke=""white"" stroke-width=""3"" fill = ""white"" />
    
    </svg>
    </div>
        ",,,,,,,,,,,,stimulus,,,,,,,,,,,,,,,,,,21
93,html-keyboard-response,93,333755,0.0-93.0,383.5,arrowup,,"
    <div style="" display: block;  position: relative;"">
    
    <svg width=1920 height=1080>
    <circle cx=897 cy=540 r=16.993788604567115 stroke=""black"" stroke-width=""1"" fill=""black"" />
    <circle cx=1160.328404761057 cy=540 r=24.276840863667307 stroke=""none"" stroke-width=""1.5"" fill=""none"" />
    <circle cx=1091.46 cy=608.868404761057 r=24.276840863667307 stroke=""none"" stroke-width=""1.5"" fill=""none"" />
    <circle cx=1022.591595238943 cy=540 r=24.276840863667307 stroke=""none"" stroke-width=""1.5"" fill=""none"" />
    <circle cx=1091.46 cy=471.131595238943 r=24.276840863667307 stroke=""none"" stroke-width=""1.5"" fill=""none"" />
    <polygon points = ""1091.46,540 1098.2889539507453,515.7231591363327 1084.6310460492548,515.7231591363327"" stroke=""none"" stroke-width=""3"" fill = ""none"" />
    
    </svg>
    </div>
        ",,,,,,,,,,,,get_response,True,wxUg6WXLxZOaKJqH,,,False,True,True,194.46,4.0,580.1479999999999,68.86840476105698,1.41,1.0,0.0,,,,21
94,html-keyboard-response,94,334258,0.0-94.0,,,,"
    <div style="" display: block;  position: relative;"">
    
    <svg width=1920 height=1080>
    <circle cx=897 cy=540 r=16.993788604567115 stroke=""black"" stroke-width=""1"" fill=""black"" />
    <circle cx=1160.328404761057 cy=540 r=24.276840863667307 stroke=""none"" stroke-width=""1.5"" fill=""none"" />
    <circle cx=1091.46 cy=608.868404761057 r=24.276840863667307 stroke=""none"" stroke-width=""1.5"" fill=""none"" />
    <circle cx=1022.591595238943 cy=540 r=24.276840863667307 stroke=""none"" stroke-width=""1.5"" fill=""none"" />
    <circle cx=1091.46 cy=471.131595238943 r=24.276840863667307 stroke=""none"" stroke-width=""1.5"" fill=""none"" />
    <polygon points = ""1091.46,540 1098.2889539507453,515.7231591363327 1084.6310460492548,515.7231591363327"" stroke=""none"" stroke-width=""3"" fill = ""none"" />
    
    </svg>
    </div>
        ",,,,,,,,,,,,,,,,,,,,,,,,,,,,,,21
95,html-keyboard-response,95,334409,0.0-95.0,,,,"
    <div style="" display: block;  position: relative;"">
    <svg width=1920 height=1080>
    
    <circle cx=897 cy=540 r=16.993788604567115 stroke=""black"" stroke-width=""1"" fill=""black"" />
    <circle cx=1091.46 cy=540 r=24.276840863667307 stroke=""black"" stroke-width=""1.5"" fill=""none"" />
    <circle cx=1154.06764069187 cy=540 r=24.276840863667307 stroke=""black"" stroke-width=""1.5"" fill=""none"" />
    <circle cx=1091.46 cy=602.60764069187 r=24.276840863667307 stroke=""black"" stroke-width=""1.5"" fill=""none"" />
    <circle cx=1028.85235930813 cy=540 r=24.276840863667307 stroke=""black"" stroke-width=""1.5"" fill=""none"" />
    <circle cx=1091.46 cy=477.39235930813004 r=24.276840863667307 stroke=""black"" stroke-width=""1.5"" fill=""none"" />
    <polygon points = ""1091.46,540 1098.2889539507453,564.2768408636673 1084.6310460492548,564.2768408636673"" stroke=""white"" stroke-width=""3"" fill = ""white"" />
    
    </svg>
    </div>
        ",,,,,,,,,,,,stimulus,,,,,,,,,,,,,,,,,,21
96,html-keyboard-response,96,334819,0.0-96.0,408.2999999523163,arrowdown,,"
    <div style="" display: block;  position: relative;"">
    
    <svg width=1920 height=1080>
    <circle cx=897 cy=540 r=16.993788604567115 stroke=""black"" stroke-width=""1"" fill=""black"" />
    <circle cx=1154.06764069187 cy=540 r=24.276840863667307 stroke=""none"" stroke-width=""1.5"" fill=""none"" />
    <circle cx=1091.46 cy=602.60764069187 r=24.276840863667307 stroke=""none"" stroke-width=""1.5"" fill=""none"" />
    <circle cx=1028.85235930813 cy=540 r=24.276840863667307 stroke=""none"" stroke-width=""1.5"" fill=""none"" />
    <circle cx=1091.46 cy=477.39235930813004 r=24.276840863667307 stroke=""none"" stroke-width=""1.5"" fill=""none"" />
    <polygon points = ""1091.46,540 1098.2889539507453,564.2768408636673 1084.6310460492548,564.2768408636673"" stroke=""none"" stroke-width=""3"" fill = ""none"" />
    
    </svg>
    </div>
        ",,,,,,,,,,,,get_response,True,wxUg6WXLxZOaKJqH,,,False,False,True,194.46,4.0,580.1479999999999,62.607640691869975,1.29,1.0,0.0,,,,21
97,html-keyboard-response,97,335322,0.0-97.0,,,,"
    <div style="" display: block;  position: relative;"">
    
    <svg width=1920 height=1080>
    <circle cx=897 cy=540 r=16.993788604567115 stroke=""black"" stroke-width=""1"" fill=""black"" />
    <circle cx=1154.06764069187 cy=540 r=24.276840863667307 stroke=""none"" stroke-width=""1.5"" fill=""none"" />
    <circle cx=1091.46 cy=602.60764069187 r=24.276840863667307 stroke=""none"" stroke-width=""1.5"" fill=""none"" />
    <circle cx=1028.85235930813 cy=540 r=24.276840863667307 stroke=""none"" stroke-width=""1.5"" fill=""none"" />
    <circle cx=1091.46 cy=477.39235930813004 r=24.276840863667307 stroke=""none"" stroke-width=""1.5"" fill=""none"" />
    <polygon points = ""1091.46,540 1098.2889539507453,564.2768408636673 1084.6310460492548,564.2768408636673"" stroke=""none"" stroke-width=""3"" fill = ""none"" />
    
    </svg>
    </div>
        ",,,,,,,,,,,,,,,,,,,,,,,,,,,,,,21
98,html-keyboard-response,98,335474,0.0-98.0,,,,"
    <div style="" display: block;  position: relative;"">
    <svg width=1920 height=1080>
    
    <circle cx=897 cy=540 r=16.993788604567115 stroke=""black"" stroke-width=""1"" fill=""black"" />
    <circle cx=702.54 cy=540 r=24.276840863667307 stroke=""black"" stroke-width=""1.5"" fill=""none"" />
    <circle cx=759.456036992609 cy=540 r=24.276840863667307 stroke=""black"" stroke-width=""1.5"" fill=""none"" />
    <circle cx=702.54 cy=596.9160369926091 r=24.276840863667307 stroke=""black"" stroke-width=""1.5"" fill=""none"" />
    <circle cx=645.6239630073909 cy=540 r=24.276840863667307 stroke=""black"" stroke-width=""1.5"" fill=""none"" />
    <circle cx=702.54 cy=483.08396300739093 r=24.276840863667307 stroke=""black"" stroke-width=""1.5"" fill=""none"" />
    <polygon points = ""702.54,540 709.3689539507452,564.2768408636673 695.7110460492547,564.2768408636673"" stroke=""white"" stroke-width=""3"" fill = ""white"" />
    
    </svg>
    </div>
        ",,,,,,,,,,,,stimulus,,,,,,,,,,,,,,,,,,21
99,html-keyboard-response,99,335835,0.0-99.0,359.39999997615814,arrowdown,,"
    <div style="" display: block;  position: relative;"">
    
    <svg width=1920 height=1080>
    <circle cx=897 cy=540 r=16.993788604567115 stroke=""black"" stroke-width=""1"" fill=""black"" />
    <circle cx=759.456036992609 cy=540 r=24.276840863667307 stroke=""none"" stroke-width=""1.5"" fill=""none"" />
    <circle cx=702.54 cy=596.9160369926091 r=24.276840863667307 stroke=""none"" stroke-width=""1.5"" fill=""none"" />
    <circle cx=645.6239630073909 cy=540 r=24.276840863667307 stroke=""none"" stroke-width=""1.5"" fill=""none"" />
    <circle cx=702.54 cy=483.08396300739093 r=24.276840863667307 stroke=""none"" stroke-width=""1.5"" fill=""none"" />
    <polygon points = ""702.54,540 709.3689539507452,564.2768408636673 695.7110460492547,564.2768408636673"" stroke=""none"" stroke-width=""3"" fill = ""none"" />
    
    </svg>
    </div>
        ",,,,,,,,,,,,get_response,True,wxUg6WXLxZOaKJqH,,,True,False,True,194.46,4.0,580.1479999999999,56.916036992609065,1.17,1.0,0.88,,,,21
100,html-keyboard-response,100,341995,0.0-100.0,6159.100000023842,arrowdown,,"<div id=""continue""> 
<h2 class=""bolded-blue"">Great Job! You have completed half of the study!</h2>
<p>Before you start the session 2, let&#39;s measure your viewing distance again using the virtual chinrest.</p>
<p>Please press the <b>down</b> arrow key to continue. </p>
</div>",,,,,,,,,,,,,,,,,,,,,,,,,,,,,,21
101,virtual-chinrest,101,414272,0.0-101.0,72275.80000001192,,,,,,85.6,53.98,338.0,3.95,668.43,7.327367788144119,46.1284338076892,41.622917613126354,23.412891157383577,,,,,,,,,,,,,,,,,,,21
102,html-keyboard-response,102,429979,0.0-102.0,15706.0,arrowdown,,"<div><h2 class=""bolded-blue"">Alright, let&#39;s do the peripheral vision test one more time!</h2>
<p>Please do not move around and keep your eye on the <b>black dot</b> all the time. Click <b>up</b> or <b>down</b> to indicate the opening
    of the center circle. The test is difficult for everyone, so if you are not sure, just take your best guess! </p> 
    <p>Now, press the <b>down</b> arrow key to start the task when you are ready!</p></div>",,,,,,,,,,,,,,,,,,,,,,,,,,,,,,21
103,html-keyboard-response,103,430480,0.0-103.0,,,,"
    <div style="" display: block;  position: relative;"">
    
    <svg width=1920 height=1080>
    <circle cx=897 cy=540 r=16.163204325585525 stroke=""black"" stroke-width=""1"" fill=""black"" />
    <circle cx=768.956036992609 cy=540 r=23.090291893693607 stroke=""none"" stroke-width=""1.5"" fill=""none"" />
    <circle cx=712.04 cy=596.9160369926091 r=23.090291893693607 stroke=""none"" stroke-width=""1.5"" fill=""none"" />
    <circle cx=655.1239630073909 cy=540 r=23.090291893693607 stroke=""none"" stroke-width=""1.5"" fill=""none"" />
    <circle cx=712.04 cy=483.08396300739093 r=23.090291893693607 stroke=""none"" stroke-width=""1.5"" fill=""none"" />
    <polygon points = ""712.04,540 718.5351836582365,563.0902918936936 705.5448163417634,563.0902918936936"" stroke=""none"" stroke-width=""3"" fill = ""none"" />
    
    </svg>
    </div>
        ",,,,,,,,,,,,,,,,,,,,,,,,,,,,,,21
104,html-keyboard-response,104,430633,0.0-104.0,,,,"
    <div style="" display: block;  position: relative;"">
    <svg width=1920 height=1080>
    
    <circle cx=897 cy=540 r=16.163204325585525 stroke=""black"" stroke-width=""1"" fill=""black"" />
    <circle cx=712.04 cy=540 r=23.090291893693607 stroke=""black"" stroke-width=""1.5"" fill=""none"" />
    <circle cx=832.264 cy=540 r=23.090291893693607 stroke=""black"" stroke-width=""1.5"" fill=""none"" />
    <circle cx=712.04 cy=660.224 r=23.090291893693607 stroke=""black"" stroke-width=""1.5"" fill=""none"" />
    <circle cx=591.8159999999999 cy=540 r=23.090291893693607 stroke=""black"" stroke-width=""1.5"" fill=""none"" />
    <circle cx=712.04 cy=419.776 r=23.090291893693607 stroke=""black"" stroke-width=""1.5"" fill=""none"" />
    <polygon points = ""712.04,540 718.5351836582365,516.9097081063064 705.5448163417634,516.9097081063064"" stroke=""white"" stroke-width=""3"" fill = ""white"" />
    
    </svg>
    </div>
        ",,,,,,,,,,,,stimulus,,,,,,,,,,,,,,,,,,21
105,html-keyboard-response,105,430964,0.0-105.0,329.0999999642372,arrowup,,"
    <div style="" display: block;  position: relative;"">
    
    <svg width=1920 height=1080>
    <circle cx=897 cy=540 r=16.163204325585525 stroke=""black"" stroke-width=""1"" fill=""black"" />
