"trial_type","trial_index","time_elapsed","internal_node_id","rt","response","success","stimulus","start_time","start_time_unix","item_width_mm","item_height_mm","item_width_px","px2mm","view_dist_mm","item_width_deg","px2deg","win_width_deg","win_height_deg","trialType","correct","participantID","criticalSpacing","criticalSpacing_deg","isLeft","isUp","isEccen4","eccentricity","eccentricity_deg","viewingDistanceMean","critical_spacing","critical_spacing_deg","crowding_session","correctRate","viewDistance_1","viewDistance_2","viewDistance_3"
"pavlovia","0","3","0.0-0.0","","","","","","","","","","","","","","","","","","","","","","","","","","","","","","","","",""
"survey-text","1","13735","0.0-1.0","13706.399999999907","{""Q0"":""""}","","","","","","","","","","","","","","","","","","","","","","","","","","","","","","",""
"fullscreen","2","16772","0.0-2.0","","","true","","","","","","","","","","","","","","","","","","","","","","","","","","","","","",""
"html-keyboard-response","3","20232","0.0-3.0","3456.399999999907"," ","","<h1>Consent Form</h1>
       <p>By answering the following questions, you are participating in a study being performed by cognitive scientists in the Stanford Department of Psychology. If you have questions about this research, please contact us at stanfordpsych251@gmail.com. You must be at least 18 years old to participate. Your participation in this research is voluntary. You may decline to answer any or all of the following questions. You may decline further participation by closing the window, at any time, without adverse consequences. Your anonymity is assured; the researchers who have requested your participation will not receive any personal information about you.</p>
       <p>Press <b>any key</b> to start the experiment!</p>","","","","","","","","","","","","","","","","","","","","","","","","","","","","",""
"html-keyboard-response","4","23437","0.0-4.0","3203.0999999996275"," ","","<h1>Welcome to the Visual Crowding Experiment!</h1>
       <p>This test will take <b>10-12</b> minutes to complete.</p>
       <p>Press any key to start the experiment!</p>","12/1/2021, 7:56:52 AM","1638338212096","","","","","","","","","","","","","","","","","","","","","","","","","","",""
"html-keyboard-response","5","42980","0.0-5.0","19540.299999999814","arrowdown","","<div> 
<p> Before you begin this study, let&#39;s quickly test how far away you are sitting. You might know that vision tests at a doctor&#39;s practice often involve chinrests, the doctor basically asks you to sit away from a screen in a specific distance. We do this here with a <b>virtual chinrest</b>. </p>
<p> Please press the <b>down</b> arrow to continue.
</p>
</div>","","","","","","","","","","","","","","","","","","","","","","","","","","","","",""
"virtual-chinrest","6","227788","0.0-6.0","184806.6000000001","","","","","","85.6","53.98","356","4.16","553.66","8.84077595556424","40.267958580710264","31.787059615511872","17.880221033725427","","","","","","","","","","","","","","","","","",""
"html-keyboard-response","7","252372","0.0-7.0","24579.700000000186","arrowdown","","
	<h2 class=""bolded-blue"">Now, you will take a peripheral vision test!</h2>
<p> 
	<b>
		<font size=""140%"">1. </font>
	</b>
	<em><b>Please use both eyes for the following task.</b></em> First, you will see a screen (like the one in the image below) showing a <b>black dot</b> in the middle of the screen, with a group of circles displayed on either the <span class=""bolded-blue"">left</span> or <span class=""bolded-blue"">right</span> of the black dot for 150 ms. <span class=""bolded-blue"">Please make sure to focus on the black dot all the time!</span>

	<div>
		<img src=""example.png"" alt=""example"" style=""border: 2px solid black"" width=""600""/> 
	</div>
	
	<b>
		<font size=""140%"">2. </font>
	</b>
	Your task is to identify whether the opening of the <b class=""bolded-blue"">center circle</b> is upward by pressing UP or downward by pressing DOWN on your keyboard. The opening of the circle will only be upward or downward, not towards left or right.

	<div>
		<img src=""arrow_keys+.png"" alt=""arrows"" style=""border: 2px solid black"" width=""600""/>
	</div>
	<br>

<p>Please press the <b>down</b> arrow key to start the <span class=""bolded-blue"">practice task</span> (this first practice task will not count toward your final results).</p>
</p>
","","","","","","","","","","","","","","","","","","","","","","","","","","","","",""
"html-keyboard-response","8","252885","0.0-8.0","null","null","","
    <div style="" display: block;  position: relative;"">
    
    <svg width=1280 height=720>
    <circle cx=577 cy=360 r=14.139785276417765 stroke=""black"" stroke-width=""1"" fill=""black"" />
    <circle cx=NaN cy=360 r=20.19969325202538 stroke=""none"" stroke-width=""1.5"" fill=""none"" />
    <circle cx=415.2 cy=NaN r=20.19969325202538 stroke=""none"" stroke-width=""1.5"" fill=""none"" />
    <circle cx=NaN cy=360 r=20.19969325202538 stroke=""none"" stroke-width=""1.5"" fill=""none"" />
    <circle cx=415.2 cy=NaN r=20.19969325202538 stroke=""none"" stroke-width=""1.5"" fill=""none"" />
    <polygon points = ""415.2,360 420.88207271332845,380.1996932520254 409.5179272866715,380.1996932520254"" stroke=""none"" stroke-width=""3"" fill = ""none"" />
    
    </svg>
    </div>
        ","","","","","","","","","","","","","","","","","","","","","","","","","","","","",""
"html-keyboard-response","9","253042","0.0-9.0","null","null","","
    <div style="" display: block;  position: relative;"">
    <svg width=1280 height=720>
    
    <circle cx=577 cy=360 r=14.139785276417765 stroke=""black"" stroke-width=""1"" fill=""black"" />
    <circle cx=738.8 cy=360 r=20.19969325202538 stroke=""black"" stroke-width=""1.5"" fill=""none"" />
    <circle cx=843.97 cy=360 r=20.19969325202538 stroke=""black"" stroke-width=""1.5"" fill=""none"" />
    <circle cx=738.8 cy=465.17 r=20.19969325202538 stroke=""black"" stroke-width=""1.5"" fill=""none"" />
    <circle cx=633.6299999999999 cy=360 r=20.19969325202538 stroke=""black"" stroke-width=""1.5"" fill=""none"" />
    <circle cx=738.8 cy=254.82999999999998 r=20.19969325202538 stroke=""black"" stroke-width=""1.5"" fill=""none"" />
    <polygon points = ""738.8,360 744.4820727133284,380.1996932520254 733.1179272866715,380.1996932520254"" stroke=""white"" stroke-width=""3"" fill = ""white"" />
    
    </svg>
    </div>
        ","","","","","","","","","","","","stimulus","","","","","","","","","","","","","","","","",""
"html-keyboard-response","10","254770","0.0-10.0","1726.5","arrowup","","
    <div style="" display: block;  position: relative;"">
    
    <svg width=1280 height=720>
    <circle cx=577 cy=360 r=14.139785276417765 stroke=""black"" stroke-width=""1"" fill=""black"" />
    <circle cx=843.97 cy=360 r=20.19969325202538 stroke=""none"" stroke-width=""1.5"" fill=""none"" />
    <circle cx=738.8 cy=465.17 r=20.19969325202538 stroke=""none"" stroke-width=""1.5"" fill=""none"" />
    <circle cx=633.6299999999999 cy=360 r=20.19969325202538 stroke=""none"" stroke-width=""1.5"" fill=""none"" />
    <circle cx=738.8 cy=254.82999999999998 r=20.19969325202538 stroke=""none"" stroke-width=""1.5"" fill=""none"" />
    <polygon points = ""738.8,360 744.4820727133284,380.1996932520254 733.1179272866715,380.1996932520254"" stroke=""none"" stroke-width=""3"" fill = ""none"" />
    
    </svg>
    </div>
        ","","","","","","","","","","","","practice_get_response","false","VXdOP9Jc7L8WEWY0","105.17000000000002","2.6","false","false","true","161.8","4","558.14","","","","","","",""
"html-keyboard-response","11","255281","0.0-11.0","null","null","","
    <div style="" display: block;  position: relative;"">
    
    <svg width=1280 height=720>
    <circle cx=577 cy=360 r=14.139785276417765 stroke=""black"" stroke-width=""1"" fill=""black"" />
    <circle cx=843.97 cy=360 r=20.19969325202538 stroke=""none"" stroke-width=""1.5"" fill=""none"" />
    <circle cx=738.8 cy=465.17 r=20.19969325202538 stroke=""none"" stroke-width=""1.5"" fill=""none"" />
    <circle cx=633.6299999999999 cy=360 r=20.19969325202538 stroke=""none"" stroke-width=""1.5"" fill=""none"" />
    <circle cx=738.8 cy=254.82999999999998 r=20.19969325202538 stroke=""none"" stroke-width=""1.5"" fill=""none"" />
    <polygon points = ""738.8,360 744.4820727133284,380.1996932520254 733.1179272866715,380.1996932520254"" stroke=""none"" stroke-width=""3"" fill = ""none"" />
    
    </svg>
    </div>
        ","","","","","","","","","","","","","","","","","","","","","","","","","","","","",""
"html-keyboard-response","12","255309","0.0-12.0","24.300000000279397","arrowup","","
    <div style="" display: block;  position: relative;"">
    <svg width=1280 height=720>
    
    <circle cx=577 cy=360 r=14.139785276417765 stroke=""black"" stroke-width=""1"" fill=""black"" />
    <circle cx=415.2 cy=360 r=20.19969325202538 stroke=""black"" stroke-width=""1.5"" fill=""none"" />
    <circle cx=536.6006134959492 cy=360 r=20.19969325202538 stroke=""black"" stroke-width=""1.5"" fill=""none"" />
    <circle cx=415.2 cy=481.40061349594924 r=20.19969325202538 stroke=""black"" stroke-width=""1.5"" fill=""none"" />
    <circle cx=293.79938650405074 cy=360 r=20.19969325202538 stroke=""black"" stroke-width=""1.5"" fill=""none"" />
    <circle cx=415.2 cy=238.59938650405076 r=20.19969325202538 stroke=""black"" stroke-width=""1.5"" fill=""none"" />
    <polygon points = ""415.2,360 420.88207271332845,380.1996932520254 409.5179272866715,380.1996932520254"" stroke=""white"" stroke-width=""3"" fill = ""white"" />
    
    </svg>
    </div>
        ","","","","","","","","","","","","stimulus","","","","","","","","","","","","","","","","",""
"html-keyboard-response","13","258592","0.0-13.0","3279.2999999998137","arrowup","","
    <div style="" display: block;  position: relative;"">
    
    <svg width=1280 height=720>
    <circle cx=577 cy=360 r=14.139785276417765 stroke=""black"" stroke-width=""1"" fill=""black"" />
    <circle cx=536.6006134959492 cy=360 r=20.19969325202538 stroke=""none"" stroke-width=""1.5"" fill=""none"" />
    <circle cx=415.2 cy=481.40061349594924 r=20.19969325202538 stroke=""none"" stroke-width=""1.5"" fill=""none"" />
    <circle cx=293.79938650405074 cy=360 r=20.19969325202538 stroke=""none"" stroke-width=""1.5"" fill=""none"" />
    <circle cx=415.2 cy=238.59938650405076 r=20.19969325202538 stroke=""none"" stroke-width=""1.5"" fill=""none"" />
    <polygon points = ""415.2,360 420.88207271332845,380.1996932520254 409.5179272866715,380.1996932520254"" stroke=""none"" stroke-width=""3"" fill = ""none"" />
    
    </svg>
    </div>
        ","","","","","","","","","","","","practice_get_response","false","VXdOP9Jc7L8WEWY0","121.40061349594924","3","true","false","true","161.8","4","558.14","","","","","","",""
"html-keyboard-response","14","259105","0.0-14.0","null","null","","
    <div style="" display: block;  position: relative;"">
    
    <svg width=1280 height=720>
    <circle cx=577 cy=360 r=14.139785276417765 stroke=""black"" stroke-width=""1"" fill=""black"" />
    <circle cx=536.6006134959492 cy=360 r=20.19969325202538 stroke=""none"" stroke-width=""1.5"" fill=""none"" />
    <circle cx=415.2 cy=481.40061349594924 r=20.19969325202538 stroke=""none"" stroke-width=""1.5"" fill=""none"" />
    <circle cx=293.79938650405074 cy=360 r=20.19969325202538 stroke=""none"" stroke-width=""1.5"" fill=""none"" />
    <circle cx=415.2 cy=238.59938650405076 r=20.19969325202538 stroke=""none"" stroke-width=""1.5"" fill=""none"" />
    <polygon points = ""415.2,360 420.88207271332845,380.1996932520254 409.5179272866715,380.1996932520254"" stroke=""none"" stroke-width=""3"" fill = ""none"" />
    
    </svg>
    </div>
        ","","","","","","","","","","","","","","","","","","","","","","","","","","","","",""
"html-keyboard-response","15","259167","0.0-15.0","58.6999999997206","arrowdown","","
    <div style="" display: block;  position: relative;"">
    <svg width=1280 height=720>
    
    <circle cx=577 cy=360 r=14.139785276417765 stroke=""black"" stroke-width=""1"" fill=""black"" />
    <circle cx=415.2 cy=360 r=20.19969325202538 stroke=""black"" stroke-width=""1.5"" fill=""none"" />
    <circle cx=536.6006134959492 cy=360 r=20.19969325202538 stroke=""black"" stroke-width=""1.5"" fill=""none"" />
    <circle cx=415.2 cy=481.40061349594924 r=20.19969325202538 stroke=""black"" stroke-width=""1.5"" fill=""none"" />
    <circle cx=293.79938650405074 cy=360 r=20.19969325202538 stroke=""black"" stroke-width=""1.5"" fill=""none"" />
    <circle cx=415.2 cy=238.59938650405076 r=20.19969325202538 stroke=""black"" stroke-width=""1.5"" fill=""none"" />
    <polygon points = ""415.2,360 420.88207271332845,339.8003067479746 409.5179272866715,339.8003067479746"" stroke=""white"" stroke-width=""3"" fill = ""white"" />
    
    </svg>
    </div>
        ","","","","","","","","","","","","stimulus","","","","","","","","","","","","","","","","",""
"html-keyboard-response","16","263545","0.0-16.0","4374.199999999721","arrowup","","
    <div style="" display: block;  position: relative;"">
    
    <svg width=1280 height=720>
    <circle cx=577 cy=360 r=14.139785276417765 stroke=""black"" stroke-width=""1"" fill=""black"" />
    <circle cx=536.6006134959492 cy=360 r=20.19969325202538 stroke=""none"" stroke-width=""1.5"" fill=""none"" />
    <circle cx=415.2 cy=481.40061349594924 r=20.19969325202538 stroke=""none"" stroke-width=""1.5"" fill=""none"" />
    <circle cx=293.79938650405074 cy=360 r=20.19969325202538 stroke=""none"" stroke-width=""1.5"" fill=""none"" />
    <circle cx=415.2 cy=238.59938650405076 r=20.19969325202538 stroke=""none"" stroke-width=""1.5"" fill=""none"" />
    <polygon points = ""415.2,360 420.88207271332845,339.8003067479746 409.5179272866715,339.8003067479746"" stroke=""none"" stroke-width=""3"" fill = ""none"" />
    
    </svg>
    </div>
        ","","","","","","","","","","","","practice_get_response","true","VXdOP9Jc7L8WEWY0","121.40061349594924","3","true","true","true","161.8","4","558.14","","","","","","",""
"html-keyboard-response","17","263935","0.0-17.0","387","arrowup","","
    <div style="" display: block;  position: relative;"">
    
    <svg width=1280 height=720>
    <circle cx=577 cy=360 r=14.139785276417765 stroke=""black"" stroke-width=""1"" fill=""black"" />
    <circle cx=536.6006134959492 cy=360 r=20.19969325202538 stroke=""none"" stroke-width=""1.5"" fill=""none"" />
    <circle cx=415.2 cy=481.40061349594924 r=20.19969325202538 stroke=""none"" stroke-width=""1.5"" fill=""none"" />
    <circle cx=293.79938650405074 cy=360 r=20.19969325202538 stroke=""none"" stroke-width=""1.5"" fill=""none"" />
    <circle cx=415.2 cy=238.59938650405076 r=20.19969325202538 stroke=""none"" stroke-width=""1.5"" fill=""none"" />
    <polygon points = ""415.2,360 420.88207271332845,339.8003067479746 409.5179272866715,339.8003067479746"" stroke=""none"" stroke-width=""3"" fill = ""none"" />
    
    </svg>
    </div>
        ","","","","","","","","","","","","","","","","","","","","","","","","","","","","",""
"html-keyboard-response","18","264100","0.0-18.0","null","null","","
    <div style="" display: block;  position: relative;"">
    <svg width=1280 height=720>
    
    <circle cx=577 cy=360 r=14.139785276417765 stroke=""black"" stroke-width=""1"" fill=""black"" />
    <circle cx=738.8 cy=360 r=20.19969325202538 stroke=""black"" stroke-width=""1.5"" fill=""none"" />
    <circle cx=860.2006134959493 cy=360 r=20.19969325202538 stroke=""black"" stroke-width=""1.5"" fill=""none"" />
    <circle cx=738.8 cy=481.40061349594924 r=20.19969325202538 stroke=""black"" stroke-width=""1.5"" fill=""none"" />
    <circle cx=617.3993865040507 cy=360 r=20.19969325202538 stroke=""black"" stroke-width=""1.5"" fill=""none"" />
    <circle cx=738.8 cy=238.59938650405076 r=20.19969325202538 stroke=""black"" stroke-width=""1.5"" fill=""none"" />
    <polygon points = ""738.8,360 744.4820727133284,380.1996932520254 733.1179272866715,380.1996932520254"" stroke=""white"" stroke-width=""3"" fill = ""white"" />
    
    </svg>
    </div>
        ","","","","","","","","","","","","stimulus","","","","","","","","","","","","","","","","",""
"html-keyboard-response","19","264453","0.0-19.0","350.79999999981374","arrowup","","
    <div style="" display: block;  position: relative;"">
    
    <svg width=1280 height=720>
    <circle cx=577 cy=360 r=14.139785276417765 stroke=""black"" stroke-width=""1"" fill=""black"" />
    <circle cx=860.2006134959493 cy=360 r=20.19969325202538 stroke=""none"" stroke-width=""1.5"" fill=""none"" />
    <circle cx=738.8 cy=481.40061349594924 r=20.19969325202538 stroke=""none"" stroke-width=""1.5"" fill=""none"" />
    <circle cx=617.3993865040507 cy=360 r=20.19969325202538 stroke=""none"" stroke-width=""1.5"" fill=""none"" />
    <circle cx=738.8 cy=238.59938650405076 r=20.19969325202538 stroke=""none"" stroke-width=""1.5"" fill=""none"" />
    <polygon points = ""738.8,360 744.4820727133284,380.1996932520254 733.1179272866715,380.1996932520254"" stroke=""none"" stroke-width=""3"" fill = ""none"" />
    
    </svg>
    </div>
        ","","","","","","","","","","","","practice_get_response","false","VXdOP9Jc7L8WEWY0","121.40061349594924","3","false","false","true","161.8","4","558.14","","","","","","",""
"html-keyboard-response","20","264960","0.0-20.0","null","null","","
    <div style="" display: block;  position: relative;"">
    
    <svg width=1280 height=720>
    <circle cx=577 cy=360 r=14.139785276417765 stroke=""black"" stroke-width=""1"" fill=""black"" />
    <circle cx=860.2006134959493 cy=360 r=20.19969325202538 stroke=""none"" stroke-width=""1.5"" fill=""none"" />
    <circle cx=738.8 cy=481.40061349594924 r=20.19969325202538 stroke=""none"" stroke-width=""1.5"" fill=""none"" />
    <circle cx=617.3993865040507 cy=360 r=20.19969325202538 stroke=""none"" stroke-width=""1.5"" fill=""none"" />
    <circle cx=738.8 cy=238.59938650405076 r=20.19969325202538 stroke=""none"" stroke-width=""1.5"" fill=""none"" />
    <polygon points = ""738.8,360 744.4820727133284,380.1996932520254 733.1179272866715,380.1996932520254"" stroke=""none"" stroke-width=""3"" fill = ""none"" />
    
    </svg>
    </div>
        ","","","","","","","","","","","","","","","","","","","","","","","","","","","","",""
"html-keyboard-response","21","265119","0.0-21.0","null","null","","
    <div style="" display: block;  position: relative;"">
    <svg width=1280 height=720>
    
    <circle cx=577 cy=360 r=14.139785276417765 stroke=""black"" stroke-width=""1"" fill=""black"" />
    <circle cx=738.8 cy=360 r=20.19969325202538 stroke=""black"" stroke-width=""1.5"" fill=""none"" />
    <circle cx=860.2006134959493 cy=360 r=20.19969325202538 stroke=""black"" stroke-width=""1.5"" fill=""none"" />
    <circle cx=738.8 cy=481.40061349594924 r=20.19969325202538 stroke=""black"" stroke-width=""1.5"" fill=""none"" />
    <circle cx=617.3993865040507 cy=360 r=20.19969325202538 stroke=""black"" stroke-width=""1.5"" fill=""none"" />
    <circle cx=738.8 cy=238.59938650405076 r=20.19969325202538 stroke=""black"" stroke-width=""1.5"" fill=""none"" />
    <polygon points = ""738.8,360 744.4820727133284,339.8003067479746 733.1179272866715,339.8003067479746"" stroke=""white"" stroke-width=""3"" fill = ""white"" />
    
    </svg>
    </div>
        ","","","","","","","","","","","","stimulus","","","","","","","","","","","","","","","","",""
"html-keyboard-response","22","277111","0.0-22.0","11990.5","arrowdown","","
    <div style="" display: block;  position: relative;"">
    
    <svg width=1280 height=720>
    <circle cx=577 cy=360 r=14.139785276417765 stroke=""black"" stroke-width=""1"" fill=""black"" />
    <circle cx=860.2006134959493 cy=360 r=20.19969325202538 stroke=""none"" stroke-width=""1.5"" fill=""none"" />
    <circle cx=738.8 cy=481.40061349594924 r=20.19969325202538 stroke=""none"" stroke-width=""1.5"" fill=""none"" />
    <circle cx=617.3993865040507 cy=360 r=20.19969325202538 stroke=""none"" stroke-width=""1.5"" fill=""none"" />
    <circle cx=738.8 cy=238.59938650405076 r=20.19969325202538 stroke=""none"" stroke-width=""1.5"" fill=""none"" />
    <polygon points = ""738.8,360 744.4820727133284,339.8003067479746 733.1179272866715,339.8003067479746"" stroke=""none"" stroke-width=""3"" fill = ""none"" />
    
    </svg>
    </div>
        ","","","","","","","","","","","","practice_get_response","false","VXdOP9Jc7L8WEWY0","121.40061349594924","3","false","true","true","161.8","4","558.14","","","","","","",""
"html-keyboard-response","23","290184","0.0-23.0","13070.799999999814","arrowdown","","<div> 
<h2 class=""bolded-blue"">Well done!</h2>
<p> Now that you have the hang of it, we&#39;ll start the study. This session has 25 trials and takes about 2 minute to complete. </p> 
<p>If you are ready for the real deal, please press the <b>down</b> arrow to continue.
</p>
</div>","","","","","","","","","","","","","","","","","","","","","","","","","","","","",""
"html-keyboard-response","24","321240","0.0-24.0","31052.900000000373","arrowdown","","<div id=""continue""> 
<p>Again, please keep the <b>full screen</b> mode for the best experience.</p>
<p>Please do not move around and keep your eye on the black dot. Click <b>up</b> or <b>down</b> key on your keyboard to indicate the opening of the center circle. Make your best guess!</p>
<p>Please press the <b>down</b> arrow key to start the session 1. </p>
</div>","","","","","","","","","","","","","","","","","","","","","","","","","","","","",""
"html-keyboard-response","25","321756","0.0-25.0","null","null","","
    <div style="" display: block;  position: relative;"">
    
    <svg width=1280 height=720>
    <circle cx=577 cy=360 r=14.139785276417765 stroke=""black"" stroke-width=""1"" fill=""black"" />
    <circle cx=536.6006134959492 cy=360 r=20.19969325202538 stroke=""none"" stroke-width=""1.5"" fill=""none"" />
    <circle cx=415.2 cy=481.40061349594924 r=20.19969325202538 stroke=""none"" stroke-width=""1.5"" fill=""none"" />
    <circle cx=293.79938650405074 cy=360 r=20.19969325202538 stroke=""none"" stroke-width=""1.5"" fill=""none"" />
    <circle cx=415.2 cy=238.59938650405076 r=20.19969325202538 stroke=""none"" stroke-width=""1.5"" fill=""none"" />
    <polygon points = ""415.2,360 420.88207271332845,380.1996932520254 409.5179272866715,380.1996932520254"" stroke=""none"" stroke-width=""3"" fill = ""none"" />
    
    </svg>
    </div>
        ","","","","","","","","","","","","","","","","","","","","","","","","","","","","",""
"html-keyboard-response","26","321913","0.0-26.0","null","null","","
    <div style="" display: block;  position: relative;"">
    <svg width=1280 height=720>
    
    <circle cx=577 cy=360 r=14.139785276417765 stroke=""black"" stroke-width=""1"" fill=""black"" />
    <circle cx=415.2 cy=360 r=20.19969325202538 stroke=""black"" stroke-width=""1.5"" fill=""none"" />
    <circle cx=520.37 cy=360 r=20.19969325202538 stroke=""black"" stroke-width=""1.5"" fill=""none"" />
    <circle cx=415.2 cy=465.17 r=20.19969325202538 stroke=""black"" stroke-width=""1.5"" fill=""none"" />
    <circle cx=310.03 cy=360 r=20.19969325202538 stroke=""black"" stroke-width=""1.5"" fill=""none"" />
    <circle cx=415.2 cy=254.82999999999998 r=20.19969325202538 stroke=""black"" stroke-width=""1.5"" fill=""none"" />
    <polygon points = ""415.2,360 420.88207271332845,380.1996932520254 409.5179272866715,380.1996932520254"" stroke=""white"" stroke-width=""3"" fill = ""white"" />
    
    </svg>
    </div>
        ","","","","","","","","","","","","stimulus","","","","","","","","","","","","","","","","",""
"html-keyboard-response","27","322749","0.0-27.0","833.5999999996275","arrowdown","","
    <div style="" display: block;  position: relative;"">
    
    <svg width=1280 height=720>
    <circle cx=577 cy=360 r=14.139785276417765 stroke=""black"" stroke-width=""1"" fill=""black"" />
    <circle cx=520.37 cy=360 r=20.19969325202538 stroke=""none"" stroke-width=""1.5"" fill=""none"" />
    <circle cx=415.2 cy=465.17 r=20.19969325202538 stroke=""none"" stroke-width=""1.5"" fill=""none"" />
    <circle cx=310.03 cy=360 r=20.19969325202538 stroke=""none"" stroke-width=""1.5"" fill=""none"" />
    <circle cx=415.2 cy=254.82999999999998 r=20.19969325202538 stroke=""none"" stroke-width=""1.5"" fill=""none"" />
    <polygon points = ""415.2,360 420.88207271332845,380.1996932520254 409.5179272866715,380.1996932520254"" stroke=""none"" stroke-width=""3"" fill = ""none"" />
    
    </svg>
    </div>
        ","","","","","","","","","","","","get_response","true","VXdOP9Jc7L8WEWY0","","","true","false","true","161.8","4","558.14","105.17000000000002","2.6","1","0","","",""
"html-keyboard-response","28","323264","0.0-28.0","null","null","","
    <div style="" display: block;  position: relative;"">
    
    <svg width=1280 height=720>
    <circle cx=577 cy=360 r=14.139785276417765 stroke=""black"" stroke-width=""1"" fill=""black"" />
    <circle cx=520.37 cy=360 r=20.19969325202538 stroke=""none"" stroke-width=""1.5"" fill=""none"" />
    <circle cx=415.2 cy=465.17 r=20.19969325202538 stroke=""none"" stroke-width=""1.5"" fill=""none"" />
    <circle cx=310.03 cy=360 r=20.19969325202538 stroke=""none"" stroke-width=""1.5"" fill=""none"" />
    <circle cx=415.2 cy=254.82999999999998 r=20.19969325202538 stroke=""none"" stroke-width=""1.5"" fill=""none"" />
    <polygon points = ""415.2,360 420.88207271332845,380.1996932520254 409.5179272866715,380.1996932520254"" stroke=""none"" stroke-width=""3"" fill = ""none"" />
    
    </svg>
    </div>
        ","","","","","","","","","","","","","","","","","","","","","","","","","","","","",""
"html-keyboard-response","29","323419","0.0-29.0","null","null","","
    <div style="" display: block;  position: relative;"">
    <svg width=1280 height=720>
    
    <circle cx=577 cy=360 r=14.139785276417765 stroke=""black"" stroke-width=""1"" fill=""black"" />
    <circle cx=415.2 cy=360 r=20.19969325202538 stroke=""black"" stroke-width=""1.5"" fill=""none"" />
    <circle cx=520.37 cy=360 r=20.19969325202538 stroke=""black"" stroke-width=""1.5"" fill=""none"" />
    <circle cx=415.2 cy=465.17 r=20.19969325202538 stroke=""black"" stroke-width=""1.5"" fill=""none"" />
    <circle cx=310.03 cy=360 r=20.19969325202538 stroke=""black"" stroke-width=""1.5"" fill=""none"" />
    <circle cx=415.2 cy=254.82999999999998 r=20.19969325202538 stroke=""black"" stroke-width=""1.5"" fill=""none"" />
    <polygon points = ""415.2,360 420.88207271332845,339.8003067479746 409.5179272866715,339.8003067479746"" stroke=""white"" stroke-width=""3"" fill = ""white"" />
    
    </svg>
    </div>
        ","","","","","","","","","","","","stimulus","","","","","","","","","","","","","","","","",""
"html-keyboard-response","30","323916","0.0-30.0","494.60000000009313","arrowup","","
    <div style="" display: block;  position: relative;"">
    
    <svg width=1280 height=720>
    <circle cx=577 cy=360 r=14.139785276417765 stroke=""black"" stroke-width=""1"" fill=""black"" />
    <circle cx=520.37 cy=360 r=20.19969325202538 stroke=""none"" stroke-width=""1.5"" fill=""none"" />
    <circle cx=415.2 cy=465.17 r=20.19969325202538 stroke=""none"" stroke-width=""1.5"" fill=""none"" />
    <circle cx=310.03 cy=360 r=20.19969325202538 stroke=""none"" stroke-width=""1.5"" fill=""none"" />
    <circle cx=415.2 cy=254.82999999999998 r=20.19969325202538 stroke=""none"" stroke-width=""1.5"" fill=""none"" />
    <polygon points = ""415.2,360 420.88207271332845,339.8003067479746 409.5179272866715,339.8003067479746"" stroke=""none"" stroke-width=""3"" fill = ""none"" />
    
    </svg>
    </div>
        ","","","","","","","","","","","","get_response","true","VXdOP9Jc7L8WEWY0","","","true","true","true","161.8","4","558.14","105.17000000000002","2.6","1","0","","",""
"html-keyboard-response","31","324420","0.0-31.0","null","null","","
    <div style="" display: block;  position: relative;"">
    
    <svg width=1280 height=720>
    <circle cx=577 cy=360 r=14.139785276417765 stroke=""black"" stroke-width=""1"" fill=""black"" />
    <circle cx=520.37 cy=360 r=20.19969325202538 stroke=""none"" stroke-width=""1.5"" fill=""none"" />
    <circle cx=415.2 cy=465.17 r=20.19969325202538 stroke=""none"" stroke-width=""1.5"" fill=""none"" />
    <circle cx=310.03 cy=360 r=20.19969325202538 stroke=""none"" stroke-width=""1.5"" fill=""none"" />
    <circle cx=415.2 cy=254.82999999999998 r=20.19969325202538 stroke=""none"" stroke-width=""1.5"" fill=""none"" />
    <polygon points = ""415.2,360 420.88207271332845,339.8003067479746 409.5179272866715,339.8003067479746"" stroke=""none"" stroke-width=""3"" fill = ""none"" />
    
    </svg>
    </div>
        ","","","","","","","","","","","","","","","","","","","","","","","","","","","","",""
"html-keyboard-response","32","324577","0.0-32.0","null","null","","
    <div style="" display: block;  position: relative;"">
    <svg width=1280 height=720>
    
    <circle cx=577 cy=360 r=14.139785276417765 stroke=""black"" stroke-width=""1"" fill=""black"" />
    <circle cx=738.8 cy=360 r=20.19969325202538 stroke=""black"" stroke-width=""1.5"" fill=""none"" />
    <circle cx=843.97 cy=360 r=20.19969325202538 stroke=""black"" stroke-width=""1.5"" fill=""none"" />
    <circle cx=738.8 cy=465.17 r=20.19969325202538 stroke=""black"" stroke-width=""1.5"" fill=""none"" />
    <circle cx=633.6299999999999 cy=360 r=20.19969325202538 stroke=""black"" stroke-width=""1.5"" fill=""none"" />
    <circle cx=738.8 cy=254.82999999999998 r=20.19969325202538 stroke=""black"" stroke-width=""1.5"" fill=""none"" />
    <polygon points = ""738.8,360 744.4820727133284,380.1996932520254 733.1179272866715,380.1996932520254"" stroke=""white"" stroke-width=""3"" fill = ""white"" />
    
    </svg>
    </div>
        ","","","","","","","","","","","","stimulus","","","","","","","","","","","","","","","","",""
"html-keyboard-response","33","325834","0.0-33.0","1254.7999999998137","arrowup","","
    <div style="" display: block;  position: relative;"">
    
    <svg width=1280 height=720>
    <circle cx=577 cy=360 r=14.139785276417765 stroke=""black"" stroke-width=""1"" fill=""black"" />
    <circle cx=843.97 cy=360 r=20.19969325202538 stroke=""none"" stroke-width=""1.5"" fill=""none"" />
    <circle cx=738.8 cy=465.17 r=20.19969325202538 stroke=""none"" stroke-width=""1.5"" fill=""none"" />
    <circle cx=633.6299999999999 cy=360 r=20.19969325202538 stroke=""none"" stroke-width=""1.5"" fill=""none"" />
    <circle cx=738.8 cy=254.82999999999998 r=20.19969325202538 stroke=""none"" stroke-width=""1.5"" fill=""none"" />
    <polygon points = ""738.8,360 744.4820727133284,380.1996932520254 733.1179272866715,380.1996932520254"" stroke=""none"" stroke-width=""3"" fill = ""none"" />
    
    </svg>
    </div>
        ","","","","","","","","","","","","get_response","false","VXdOP9Jc7L8WEWY0","","","false","false","true","161.8","4","558.14","105.17000000000002","2.6","1","0","","",""
"html-keyboard-response","34","326343","0.0-34.0","null","null","","
    <div style="" display: block;  position: relative;"">
    
    <svg width=1280 height=720>
    <circle cx=577 cy=360 r=14.139785276417765 stroke=""black"" stroke-width=""1"" fill=""black"" />
    <circle cx=843.97 cy=360 r=20.19969325202538 stroke=""none"" stroke-width=""1.5"" fill=""none"" />
    <circle cx=738.8 cy=465.17 r=20.19969325202538 stroke=""none"" stroke-width=""1.5"" fill=""none"" />
    <circle cx=633.6299999999999 cy=360 r=20.19969325202538 stroke=""none"" stroke-width=""1.5"" fill=""none"" />
    <circle cx=738.8 cy=254.82999999999998 r=20.19969325202538 stroke=""none"" stroke-width=""1.5"" fill=""none"" />
    <polygon points = ""738.8,360 744.4820727133284,380.1996932520254 733.1179272866715,380.1996932520254"" stroke=""none"" stroke-width=""3"" fill = ""none"" />
    
    </svg>
    </div>
        ","","","","","","","","","","","","","","","","","","","","","","","","","","","","",""
"html-keyboard-response","35","326501","0.0-35.0","null","null","","
    <div style="" display: block;  position: relative;"">
    <svg width=1280 height=720>
    
    <circle cx=577 cy=360 r=14.139785276417765 stroke=""black"" stroke-width=""1"" fill=""black"" />
    <circle cx=415.2 cy=360 r=20.19969325202538 stroke=""black"" stroke-width=""1.5"" fill=""none"" />
    <circle cx=536.6006134959492 cy=360 r=20.19969325202538 stroke=""black"" stroke-width=""1.5"" fill=""none"" />
    <circle cx=415.2 cy=481.40061349594924 r=20.19969325202538 stroke=""black"" stroke-width=""1.5"" fill=""none"" />
    <circle cx=293.79938650405074 cy=360 r=20.19969325202538 stroke=""black"" stroke-width=""1.5"" fill=""none"" />
    <circle cx=415.2 cy=238.59938650405076 r=20.19969325202538 stroke=""black"" stroke-width=""1.5"" fill=""none"" />
    <polygon points = ""415.2,360 420.88207271332845,339.8003067479746 409.5179272866715,339.8003067479746"" stroke=""white"" stroke-width=""3"" fill = ""white"" />
    
    </svg>
    </div>
        ","","","","","","","","","","","","stimulus","","","","","","","","","","","","","","","","",""
"html-keyboard-response","36","326968","0.0-36.0","465","arrowup","","
    <div style="" display: block;  position: relative;"">
    
    <svg width=1280 height=720>
    <circle cx=577 cy=360 r=14.139785276417765 stroke=""black"" stroke-width=""1"" fill=""black"" />
    <circle cx=536.6006134959492 cy=360 r=20.19969325202538 stroke=""none"" stroke-width=""1.5"" fill=""none"" />
    <circle cx=415.2 cy=481.40061349594924 r=20.19969325202538 stroke=""none"" stroke-width=""1.5"" fill=""none"" />
    <circle cx=293.79938650405074 cy=360 r=20.19969325202538 stroke=""none"" stroke-width=""1.5"" fill=""none"" />
    <circle cx=415.2 cy=238.59938650405076 r=20.19969325202538 stroke=""none"" stroke-width=""1.5"" fill=""none"" />
    <polygon points = ""415.2,360 420.88207271332845,339.8003067479746 409.5179272866715,339.8003067479746"" stroke=""none"" stroke-width=""3"" fill = ""none"" />
    
    </svg>
    </div>
        ","","","","","","","","","","","","get_response","true","VXdOP9Jc7L8WEWY0","","","true","true","true","161.8","4","558.14","121.40061349594924","3","1","0","","",""
"html-keyboard-response","37","327479","0.0-37.0","null","null","","
    <div style="" display: block;  position: relative;"">
    
    <svg width=1280 height=720>
    <circle cx=577 cy=360 r=14.139785276417765 stroke=""black"" stroke-width=""1"" fill=""black"" />
    <circle cx=536.6006134959492 cy=360 r=20.19969325202538 stroke=""none"" stroke-width=""1.5"" fill=""none"" />
    <circle cx=415.2 cy=481.40061349594924 r=20.19969325202538 stroke=""none"" stroke-width=""1.5"" fill=""none"" />
    <circle cx=293.79938650405074 cy=360 r=20.19969325202538 stroke=""none"" stroke-width=""1.5"" fill=""none"" />
    <circle cx=415.2 cy=238.59938650405076 r=20.19969325202538 stroke=""none"" stroke-width=""1.5"" fill=""none"" />
    <polygon points = ""415.2,360 420.88207271332845,339.8003067479746 409.5179272866715,339.8003067479746"" stroke=""none"" stroke-width=""3"" fill = ""none"" />
    
    </svg>
    </div>
        ","","","","","","","","","","","","","","","","","","","","","","","","","","","","",""
"html-keyboard-response","38","327633","0.0-38.0","null","null","","
    <div style="" display: block;  position: relative;"">
    <svg width=1280 height=720>
    
    <circle cx=577 cy=360 r=14.139785276417765 stroke=""black"" stroke-width=""1"" fill=""black"" />
    <circle cx=415.2 cy=360 r=20.19969325202538 stroke=""black"" stroke-width=""1.5"" fill=""none"" />
    <circle cx=536.6006134959492 cy=360 r=20.19969325202538 stroke=""black"" stroke-width=""1.5"" fill=""none"" />
    <circle cx=415.2 cy=481.40061349594924 r=20.19969325202538 stroke=""black"" stroke-width=""1.5"" fill=""none"" />
    <circle cx=293.79938650405074 cy=360 r=20.19969325202538 stroke=""black"" stroke-width=""1.5"" fill=""none"" />
    <circle cx=415.2 cy=238.59938650405076 r=20.19969325202538 stroke=""black"" stroke-width=""1.5"" fill=""none"" />
    <polygon points = ""415.2,360 420.88207271332845,380.1996932520254 409.5179272866715,380.1996932520254"" stroke=""white"" stroke-width=""3"" fill = ""white"" />
    
    </svg>
    </div>
        ","","","","","","","","","","","","stimulus","","","","","","","","","","","","","","","","",""
"html-keyboard-response","39","328024","0.0-39.0","388.10000000009313","arrowdown","","
    <div style="" display: block;  position: relative;"">
    
    <svg width=1280 height=720>
    <circle cx=577 cy=360 r=14.139785276417765 stroke=""black"" stroke-width=""1"" fill=""black"" />
    <circle cx=536.6006134959492 cy=360 r=20.19969325202538 stroke=""none"" stroke-width=""1.5"" fill=""none"" />
    <circle cx=415.2 cy=481.40061349594924 r=20.19969325202538 stroke=""none"" stroke-width=""1.5"" fill=""none"" />
    <circle cx=293.79938650405074 cy=360 r=20.19969325202538 stroke=""none"" stroke-width=""1.5"" fill=""none"" />
    <circle cx=415.2 cy=238.59938650405076 r=20.19969325202538 stroke=""none"" stroke-width=""1.5"" fill=""none"" />
    <polygon points = ""415.2,360 420.88207271332845,380.1996932520254 409.5179272866715,380.1996932520254"" stroke=""none"" stroke-width=""3"" fill = ""none"" />
    
    </svg>
    </div>
        ","","","","","","","","","","","","get_response","true","VXdOP9Jc7L8WEWY0","","","true","false","true","161.8","4","558.14","121.40061349594924","3","1","0","","",""
"html-keyboard-response","40","328535","0.0-40.0","null","null","","
    <div style="" display: block;  position: relative;"">
    
    <svg width=1280 height=720>
    <circle cx=577 cy=360 r=14.139785276417765 stroke=""black"" stroke-width=""1"" fill=""black"" />
    <circle cx=536.6006134959492 cy=360 r=20.19969325202538 stroke=""none"" stroke-width=""1.5"" fill=""none"" />
    <circle cx=415.2 cy=481.40061349594924 r=20.19969325202538 stroke=""none"" stroke-width=""1.5"" fill=""none"" />
    <circle cx=293.79938650405074 cy=360 r=20.19969325202538 stroke=""none"" stroke-width=""1.5"" fill=""none"" />
    <circle cx=415.2 cy=238.59938650405076 r=20.19969325202538 stroke=""none"" stroke-width=""1.5"" fill=""none"" />
    <polygon points = ""415.2,360 420.88207271332845,380.1996932520254 409.5179272866715,380.1996932520254"" stroke=""none"" stroke-width=""3"" fill = ""none"" />
    
    </svg>
    </div>
        ","","","","","","","","","","","","","","","","","","","","","","","","","","","","",""
"html-keyboard-response","41","328692","0.0-41.0","null","null","","
    <div style="" display: block;  position: relative;"">
    <svg width=1280 height=720>
    
    <circle cx=577 cy=360 r=14.139785276417765 stroke=""black"" stroke-width=""1"" fill=""black"" />
    <circle cx=738.8 cy=360 r=20.19969325202538 stroke=""black"" stroke-width=""1.5"" fill=""none"" />
    <circle cx=860.2006134959493 cy=360 r=20.19969325202538 stroke=""black"" stroke-width=""1.5"" fill=""none"" />
    <circle cx=738.8 cy=481.40061349594924 r=20.19969325202538 stroke=""black"" stroke-width=""1.5"" fill=""none"" />
    <circle cx=617.3993865040507 cy=360 r=20.19969325202538 stroke=""black"" stroke-width=""1.5"" fill=""none"" />
    <circle cx=738.8 cy=238.59938650405076 r=20.19969325202538 stroke=""black"" stroke-width=""1.5"" fill=""none"" />
    <polygon points = ""738.8,360 744.4820727133284,380.1996932520254 733.1179272866715,380.1996932520254"" stroke=""white"" stroke-width=""3"" fill = ""white"" />
    
    </svg>
    </div>
        ","","","","","","","","","","","","stimulus","","","","","","","","","","","","","","","","",""
"html-keyboard-response","42","329263","0.0-42.0","568.2999999998137","arrowdown","","
    <div style="" display: block;  position: relative;"">
    
    <svg width=1280 height=720>
    <circle cx=577 cy=360 r=14.139785276417765 stroke=""black"" stroke-width=""1"" fill=""black"" />
    <circle cx=860.2006134959493 cy=360 r=20.19969325202538 stroke=""none"" stroke-width=""1.5"" fill=""none"" />
    <circle cx=738.8 cy=481.40061349594924 r=20.19969325202538 stroke=""none"" stroke-width=""1.5"" fill=""none"" />
    <circle cx=617.3993865040507 cy=360 r=20.19969325202538 stroke=""none"" stroke-width=""1.5"" fill=""none"" />
    <circle cx=738.8 cy=238.59938650405076 r=20.19969325202538 stroke=""none"" stroke-width=""1.5"" fill=""none"" />
    <polygon points = ""738.8,360 744.4820727133284,380.1996932520254 733.1179272866715,380.1996932520254"" stroke=""none"" stroke-width=""3"" fill = ""none"" />
    
    </svg>
    </div>
        ","","","","","","","","","","","","get_response","true","VXdOP9Jc7L8WEWY0","","","false","false","true","161.8","4","558.14","121.40061349594924","3","1","0","","",""
"html-keyboard-response","43","329779","0.0-43.0","null","null","","
    <div style="" display: block;  position: relative;"">
    
    <svg width=1280 height=720>
    <circle cx=577 cy=360 r=14.139785276417765 stroke=""black"" stroke-width=""1"" fill=""black"" />
    <circle cx=860.2006134959493 cy=360 r=20.19969325202538 stroke=""none"" stroke-width=""1.5"" fill=""none"" />
    <circle cx=738.8 cy=481.40061349594924 r=20.19969325202538 stroke=""none"" stroke-width=""1.5"" fill=""none"" />
    <circle cx=617.3993865040507 cy=360 r=20.19969325202538 stroke=""none"" stroke-width=""1.5"" fill=""none"" />
    <circle cx=738.8 cy=238.59938650405076 r=20.19969325202538 stroke=""none"" stroke-width=""1.5"" fill=""none"" />
    <polygon points = ""738.8,360 744.4820727133284,380.1996932520254 733.1179272866715,380.1996932520254"" stroke=""none"" stroke-width=""3"" fill = ""none"" />
    
    </svg>
    </div>
        ","","","","","","","","","","","","","","","","","","","","","","","","","","","","",""
"html-keyboard-response","44","329936","0.0-44.0","null","null","","
    <div style="" display: block;  position: relative;"">
    <svg width=1280 height=720>
    
    <circle cx=577 cy=360 r=14.139785276417765 stroke=""black"" stroke-width=""1"" fill=""black"" />
    <circle cx=415.2 cy=360 r=20.19969325202538 stroke=""black"" stroke-width=""1.5"" fill=""none"" />
    <circle cx=525.5641940872266 cy=360 r=20.19969325202538 stroke=""black"" stroke-width=""1.5"" fill=""none"" />
    <circle cx=415.2 cy=470.36419408722656 r=20.19969325202538 stroke=""black"" stroke-width=""1.5"" fill=""none"" />
    <circle cx=304.8358059127734 cy=360 r=20.19969325202538 stroke=""black"" stroke-width=""1.5"" fill=""none"" />
    <circle cx=415.2 cy=249.63580591277344 r=20.19969325202538 stroke=""black"" stroke-width=""1.5"" fill=""none"" />
    <polygon points = ""415.2,360 420.88207271332845,380.1996932520254 409.5179272866715,380.1996932520254"" stroke=""white"" stroke-width=""3"" fill = ""white"" />
    
    </svg>
    </div>
        ","","","","","","","","","","","","stimulus","","","","","","","","","","","","","","","","",""
"html-keyboard-response","45","330436","0.0-45.0","497.39999999990687","arrowdown","","
    <div style="" display: block;  position: relative;"">
    
    <svg width=1280 height=720>
    <circle cx=577 cy=360 r=14.139785276417765 stroke=""black"" stroke-width=""1"" fill=""black"" />
    <circle cx=525.5641940872266 cy=360 r=20.19969325202538 stroke=""none"" stroke-width=""1.5"" fill=""none"" />
    <circle cx=415.2 cy=470.36419408722656 r=20.19969325202538 stroke=""none"" stroke-width=""1.5"" fill=""none"" />
    <circle cx=304.8358059127734 cy=360 r=20.19969325202538 stroke=""none"" stroke-width=""1.5"" fill=""none"" />
    <circle cx=415.2 cy=249.63580591277344 r=20.19969325202538 stroke=""none"" stroke-width=""1.5"" fill=""none"" />
    <polygon points = ""415.2,360 420.88207271332845,380.1996932520254 409.5179272866715,380.1996932520254"" stroke=""none"" stroke-width=""3"" fill = ""none"" />
    
    </svg>
    </div>
        ","","","","","","","","","","","","get_response","true","VXdOP9Jc7L8WEWY0","","","true","false","true","161.8","4","558.14","110.36419408722658","2.73","1","0","","",""
"html-keyboard-response","46","330949","0.0-46.0","null","null","","
    <div style="" display: block;  position: relative;"">
    
    <svg width=1280 height=720>
    <circle cx=577 cy=360 r=14.139785276417765 stroke=""black"" stroke-width=""1"" fill=""black"" />
    <circle cx=525.5641940872266 cy=360 r=20.19969325202538 stroke=""none"" stroke-width=""1.5"" fill=""none"" />
    <circle cx=415.2 cy=470.36419408722656 r=20.19969325202538 stroke=""none"" stroke-width=""1.5"" fill=""none"" />
    <circle cx=304.8358059127734 cy=360 r=20.19969325202538 stroke=""none"" stroke-width=""1.5"" fill=""none"" />
    <circle cx=415.2 cy=249.63580591277344 r=20.19969325202538 stroke=""none"" stroke-width=""1.5"" fill=""none"" />
    <polygon points = ""415.2,360 420.88207271332845,380.1996932520254 409.5179272866715,380.1996932520254"" stroke=""none"" stroke-width=""3"" fill = ""none"" />
    
    </svg>
    </div>
        ","","","","","","","","","","","","","","","","","","","","","","","","","","","","",""
"html-keyboard-response","47","331105","0.0-47.0","null","null","","
    <div style="" display: block;  position: relative;"">
    <svg width=1280 height=720>
    
    <circle cx=577 cy=360 r=14.139785276417765 stroke=""black"" stroke-width=""1"" fill=""black"" />
    <circle cx=415.2 cy=360 r=20.19969325202538 stroke=""black"" stroke-width=""1.5"" fill=""none"" />
    <circle cx=515.5310855338423 cy=360 r=20.19969325202538 stroke=""black"" stroke-width=""1.5"" fill=""none"" />
    <circle cx=415.2 cy=460.3310855338423 r=20.19969325202538 stroke=""black"" stroke-width=""1.5"" fill=""none"" />
    <circle cx=314.86891446615766 cy=360 r=20.19969325202538 stroke=""black"" stroke-width=""1.5"" fill=""none"" />
    <circle cx=415.2 cy=259.6689144661577 r=20.19969325202538 stroke=""black"" stroke-width=""1.5"" fill=""none"" />
    <polygon points = ""415.2,360 420.88207271332845,339.8003067479746 409.5179272866715,339.8003067479746"" stroke=""white"" stroke-width=""3"" fill = ""white"" />
    
    </svg>
    </div>
        ","","","","","","","","","","","","stimulus","","","","","","","","","","","","","","","","",""
"html-keyboard-response","48","331407","0.0-48.0","299.10000000009313","arrowup","","
    <div style="" display: block;  position: relative;"">
    
    <svg width=1280 height=720>
    <circle cx=577 cy=360 r=14.139785276417765 stroke=""black"" stroke-width=""1"" fill=""black"" />
    <circle cx=515.5310855338423 cy=360 r=20.19969325202538 stroke=""none"" stroke-width=""1.5"" fill=""none"" />
    <circle cx=415.2 cy=460.3310855338423 r=20.19969325202538 stroke=""none"" stroke-width=""1.5"" fill=""none"" />
    <circle cx=314.86891446615766 cy=360 r=20.19969325202538 stroke=""none"" stroke-width=""1.5"" fill=""none"" />
    <circle cx=415.2 cy=259.6689144661577 r=20.19969325202538 stroke=""none"" stroke-width=""1.5"" fill=""none"" />
    <polygon points = ""415.2,360 420.88207271332845,339.8003067479746 409.5179272866715,339.8003067479746"" stroke=""none"" stroke-width=""3"" fill = ""none"" />
    
    </svg>
    </div>
        ","","","","","","","","","","","","get_response","true","VXdOP9Jc7L8WEWY0","","","true","true","true","161.8","4","558.14","100.33108553384234","2.48","1","0","","",""
"html-keyboard-response","49","331918","0.0-49.0","null","null","","
    <div style="" display: block;  position: relative;"">
    
    <svg width=1280 height=720>
    <circle cx=577 cy=360 r=14.139785276417765 stroke=""black"" stroke-width=""1"" fill=""black"" />
    <circle cx=515.5310855338423 cy=360 r=20.19969325202538 stroke=""none"" stroke-width=""1.5"" fill=""none"" />
    <circle cx=415.2 cy=460.3310855338423 r=20.19969325202538 stroke=""none"" stroke-width=""1.5"" fill=""none"" />
    <circle cx=314.86891446615766 cy=360 r=20.19969325202538 stroke=""none"" stroke-width=""1.5"" fill=""none"" />
    <circle cx=415.2 cy=259.6689144661577 r=20.19969325202538 stroke=""none"" stroke-width=""1.5"" fill=""none"" />
    <polygon points = ""415.2,360 420.88207271332845,339.8003067479746 409.5179272866715,339.8003067479746"" stroke=""none"" stroke-width=""3"" fill = ""none"" />
    
    </svg>
    </div>
        ","","","","","","","","","","","","","","","","","","","","","","","","","","","","",""
"html-keyboard-response","50","332073","0.0-50.0","null","null","","
    <div style="" display: block;  position: relative;"">
    <svg width=1280 height=720>
    
    <circle cx=577 cy=360 r=14.139785276417765 stroke=""black"" stroke-width=""1"" fill=""black"" />
    <circle cx=738.8 cy=360 r=20.19969325202538 stroke=""black"" stroke-width=""1.5"" fill=""none"" />
    <circle cx=830.0100777580384 cy=360 r=20.19969325202538 stroke=""black"" stroke-width=""1.5"" fill=""none"" />
    <circle cx=738.8 cy=451.2100777580385 r=20.19969325202538 stroke=""black"" stroke-width=""1.5"" fill=""none"" />
    <circle cx=647.5899222419615 cy=360 r=20.19969325202538 stroke=""black"" stroke-width=""1.5"" fill=""none"" />
    <circle cx=738.8 cy=268.7899222419615 r=20.19969325202538 stroke=""black"" stroke-width=""1.5"" fill=""none"" />
    <polygon points = ""738.8,360 744.4820727133284,339.8003067479746 733.1179272866715,339.8003067479746"" stroke=""white"" stroke-width=""3"" fill = ""white"" />
    
    </svg>
    </div>
        ","","","","","","","","","","","","stimulus","","","","","","","","","","","","","","","","",""
"html-keyboard-response","51","332858","0.0-51.0","782.9000000003725","arrowup","","
    <div style="" display: block;  position: relative;"">
    
    <svg width=1280 height=720>
    <circle cx=577 cy=360 r=14.139785276417765 stroke=""black"" stroke-width=""1"" fill=""black"" />
    <circle cx=830.0100777580384 cy=360 r=20.19969325202538 stroke=""none"" stroke-width=""1.5"" fill=""none"" />
    <circle cx=738.8 cy=451.2100777580385 r=20.19969325202538 stroke=""none"" stroke-width=""1.5"" fill=""none"" />
    <circle cx=647.5899222419615 cy=360 r=20.19969325202538 stroke=""none"" stroke-width=""1.5"" fill=""none"" />
    <circle cx=738.8 cy=268.7899222419615 r=20.19969325202538 stroke=""none"" stroke-width=""1.5"" fill=""none"" />
    <polygon points = ""738.8,360 744.4820727133284,339.8003067479746 733.1179272866715,339.8003067479746"" stroke=""none"" stroke-width=""3"" fill = ""none"" />
    
    </svg>
    </div>
        ","","","","","","","","","","","","get_response","true","VXdOP9Jc7L8WEWY0","","","false","true","true","161.8","4","558.14","91.21007775803848","2.25","1","0","","",""
"html-keyboard-response","52","333368","0.0-52.0","null","null","","
    <div style="" display: block;  position: relative;"">
    
    <svg width=1280 height=720>
    <circle cx=577 cy=360 r=14.139785276417765 stroke=""black"" stroke-width=""1"" fill=""black"" />
    <circle cx=830.0100777580384 cy=360 r=20.19969325202538 stroke=""none"" stroke-width=""1.5"" fill=""none"" />
    <circle cx=738.8 cy=451.2100777580385 r=20.19969325202538 stroke=""none"" stroke-width=""1.5"" fill=""none"" />
    <circle cx=647.5899222419615 cy=360 r=20.19969325202538 stroke=""none"" stroke-width=""1.5"" fill=""none"" />
    <circle cx=738.8 cy=268.7899222419615 r=20.19969325202538 stroke=""none"" stroke-width=""1.5"" fill=""none"" />
    <polygon points = ""738.8,360 744.4820727133284,339.8003067479746 733.1179272866715,339.8003067479746"" stroke=""none"" stroke-width=""3"" fill = ""none"" />
    
    </svg>
    </div>
        ","","","","","","","","","","","","","","","","","","","","","","","","","","","","",""
"html-keyboard-response","53","333523","0.0-53.0","null","null","","
    <div style="" display: block;  position: relative;"">
    <svg width=1280 height=720>
    
    <circle cx=577 cy=360 r=14.139785276417765 stroke=""black"" stroke-width=""1"" fill=""black"" />
    <circle cx=415.2 cy=360 r=20.19969325202538 stroke=""black"" stroke-width=""1.5"" fill=""none"" />
    <circle cx=498.1182525073077 cy=360 r=20.19969325202538 stroke=""black"" stroke-width=""1.5"" fill=""none"" />
    <circle cx=415.2 cy=442.91825250730767 r=20.19969325202538 stroke=""black"" stroke-width=""1.5"" fill=""none"" />
    <circle cx=332.28174749269226 cy=360 r=20.19969325202538 stroke=""black"" stroke-width=""1.5"" fill=""none"" />
    <circle cx=415.2 cy=277.08174749269233 r=20.19969325202538 stroke=""black"" stroke-width=""1.5"" fill=""none"" />
    <polygon points = ""415.2,360 420.88207271332845,380.1996932520254 409.5179272866715,380.1996932520254"" stroke=""white"" stroke-width=""3"" fill = ""white"" />
    
    </svg>
    </div>
        ","","","","","","","","","","","","stimulus","","","","","","","","","","","","","","","","",""
"html-keyboard-response","54","335064","0.0-54.0","1539.1000000000931","arrowup","","
    <div style="" display: block;  position: relative;"">
    
    <svg width=1280 height=720>
    <circle cx=577 cy=360 r=14.139785276417765 stroke=""black"" stroke-width=""1"" fill=""black"" />
    <circle cx=498.1182525073077 cy=360 r=20.19969325202538 stroke=""none"" stroke-width=""1.5"" fill=""none"" />
    <circle cx=415.2 cy=442.91825250730767 r=20.19969325202538 stroke=""none"" stroke-width=""1.5"" fill=""none"" />
    <circle cx=332.28174749269226 cy=360 r=20.19969325202538 stroke=""none"" stroke-width=""1.5"" fill=""none"" />
    <circle cx=415.2 cy=277.08174749269233 r=20.19969325202538 stroke=""none"" stroke-width=""1.5"" fill=""none"" />
    <polygon points = ""415.2,360 420.88207271332845,380.1996932520254 409.5179272866715,380.1996932520254"" stroke=""none"" stroke-width=""3"" fill = ""none"" />
    
    </svg>
    </div>
        ","","","","","","","","","","","","get_response","false","VXdOP9Jc7L8WEWY0","","","true","false","true","161.8","4","558.14","82.9182525073077","2.05","1","0","","",""
"html-keyboard-response","55","335581","0.0-55.0","null","null","","
    <div style="" display: block;  position: relative;"">
    
    <svg width=1280 height=720>
    <circle cx=577 cy=360 r=14.139785276417765 stroke=""black"" stroke-width=""1"" fill=""black"" />
    <circle cx=498.1182525073077 cy=360 r=20.19969325202538 stroke=""none"" stroke-width=""1.5"" fill=""none"" />
    <circle cx=415.2 cy=442.91825250730767 r=20.19969325202538 stroke=""none"" stroke-width=""1.5"" fill=""none"" />
    <circle cx=332.28174749269226 cy=360 r=20.19969325202538 stroke=""none"" stroke-width=""1.5"" fill=""none"" />
    <circle cx=415.2 cy=277.08174749269233 r=20.19969325202538 stroke=""none"" stroke-width=""1.5"" fill=""none"" />
    <polygon points = ""415.2,360 420.88207271332845,380.1996932520254 409.5179272866715,380.1996932520254"" stroke=""none"" stroke-width=""3"" fill = ""none"" />
    
    </svg>
    </div>
        ","","","","","","","","","","","","","","","","","","","","","","","","","","","","",""
"html-keyboard-response","56","335739","0.0-56.0","null","null","","
    <div style="" display: block;  position: relative;"">
    <svg width=1280 height=720>
    
    <circle cx=577 cy=360 r=14.139785276417765 stroke=""black"" stroke-width=""1"" fill=""black"" />
    <circle cx=415.2 cy=360 r=20.19969325202538 stroke=""black"" stroke-width=""1.5"" fill=""none"" />
    <circle cx=522.9937282595 cy=360 r=20.19969325202538 stroke=""black"" stroke-width=""1.5"" fill=""none"" />
    <circle cx=415.2 cy=467.7937282595 r=20.19969325202538 stroke=""black"" stroke-width=""1.5"" fill=""none"" />
    <circle cx=307.40627174049996 cy=360 r=20.19969325202538 stroke=""black"" stroke-width=""1.5"" fill=""none"" />
    <circle cx=415.2 cy=252.20627174049997 r=20.19969325202538 stroke=""black"" stroke-width=""1.5"" fill=""none"" />
    <polygon points = ""415.2,360 420.88207271332845,380.1996932520254 409.5179272866715,380.1996932520254"" stroke=""white"" stroke-width=""3"" fill = ""white"" />
    
    </svg>
    </div>
        ","","","","","","","","","","","","stimulus","","","","","","","","","","","","","","","","",""
"html-keyboard-response","57","336520","0.0-57.0","778.7000000001863","arrowdown","","
    <div style="" display: block;  position: relative;"">
    
    <svg width=1280 height=720>
    <circle cx=577 cy=360 r=14.139785276417765 stroke=""black"" stroke-width=""1"" fill=""black"" />
    <circle cx=522.9937282595 cy=360 r=20.19969325202538 stroke=""none"" stroke-width=""1.5"" fill=""none"" />
    <circle cx=415.2 cy=467.7937282595 r=20.19969325202538 stroke=""none"" stroke-width=""1.5"" fill=""none"" />
    <circle cx=307.40627174049996 cy=360 r=20.19969325202538 stroke=""none"" stroke-width=""1.5"" fill=""none"" />
    <circle cx=415.2 cy=252.20627174049997 r=20.19969325202538 stroke=""none"" stroke-width=""1.5"" fill=""none"" />
    <polygon points = ""415.2,360 420.88207271332845,380.1996932520254 409.5179272866715,380.1996932520254"" stroke=""none"" stroke-width=""3"" fill = ""none"" />
    
    </svg>
    </div>
        ","","","","","","","","","","","","get_response","true","VXdOP9Jc7L8WEWY0","","","true","false","true","161.8","4","558.14","107.79372825950001","2.66","1","0","","",""
"html-keyboard-response","58","337030","0.0-58.0","null","null","","
    <div style="" display: block;  position: relative;"">
    
    <svg width=1280 height=720>
    <circle cx=577 cy=360 r=14.139785276417765 stroke=""black"" stroke-width=""1"" fill=""black"" />
    <circle cx=522.9937282595 cy=360 r=20.19969325202538 stroke=""none"" stroke-width=""1.5"" fill=""none"" />
    <circle cx=415.2 cy=467.7937282595 r=20.19969325202538 stroke=""none"" stroke-width=""1.5"" fill=""none"" />
    <circle cx=307.40627174049996 cy=360 r=20.19969325202538 stroke=""none"" stroke-width=""1.5"" fill=""none"" />
    <circle cx=415.2 cy=252.20627174049997 r=20.19969325202538 stroke=""none"" stroke-width=""1.5"" fill=""none"" />
    <polygon points = ""415.2,360 420.88207271332845,380.1996932520254 409.5179272866715,380.1996932520254"" stroke=""none"" stroke-width=""3"" fill = ""none"" />
    
    </svg>
    </div>
        ","","","","","","","","","","","","","","","","","","","","","","","","","","","","",""
"html-keyboard-response","59","337186","0.0-59.0","null","null","","
    <div style="" display: block;  position: relative;"">
    <svg width=1280 height=720>
    
    <circle cx=577 cy=360 r=14.139785276417765 stroke=""black"" stroke-width=""1"" fill=""black"" />
    <circle cx=738.8 cy=360 r=20.19969325202538 stroke=""black"" stroke-width=""1.5"" fill=""none"" />
    <circle cx=846.5937282594999 cy=360 r=20.19969325202538 stroke=""black"" stroke-width=""1.5"" fill=""none"" />
    <circle cx=738.8 cy=467.7937282595 r=20.19969325202538 stroke=""black"" stroke-width=""1.5"" fill=""none"" />
    <circle cx=631.0062717405 cy=360 r=20.19969325202538 stroke=""black"" stroke-width=""1.5"" fill=""none"" />
    <circle cx=738.8 cy=252.20627174049997 r=20.19969325202538 stroke=""black"" stroke-width=""1.5"" fill=""none"" />
    <polygon points = ""738.8,360 744.4820727133284,380.1996932520254 733.1179272866715,380.1996932520254"" stroke=""white"" stroke-width=""3"" fill = ""white"" />
    
    </svg>
    </div>
        ","","","","","","","","","","","","stimulus","","","","","","","","","","","","","","","","",""
"html-keyboard-response","60","337985","0.0-60.0","796.1000000000931","arrowdown","","
    <div style="" display: block;  position: relative;"">
    
    <svg width=1280 height=720>
    <circle cx=577 cy=360 r=14.139785276417765 stroke=""black"" stroke-width=""1"" fill=""black"" />
    <circle cx=846.5937282594999 cy=360 r=20.19969325202538 stroke=""none"" stroke-width=""1.5"" fill=""none"" />
    <circle cx=738.8 cy=467.7937282595 r=20.19969325202538 stroke=""none"" stroke-width=""1.5"" fill=""none"" />
    <circle cx=631.0062717405 cy=360 r=20.19969325202538 stroke=""none"" stroke-width=""1.5"" fill=""none"" />
    <circle cx=738.8 cy=252.20627174049997 r=20.19969325202538 stroke=""none"" stroke-width=""1.5"" fill=""none"" />
    <polygon points = ""738.8,360 744.4820727133284,380.1996932520254 733.1179272866715,380.1996932520254"" stroke=""none"" stroke-width=""3"" fill = ""none"" />
    
    </svg>
    </div>
        ","","","","","","","","","","","","get_response","true","VXdOP9Jc7L8WEWY0","","","false","false","true","161.8","4","558.14","107.79372825950001","2.66","1","0","","",""
"html-keyboard-response","61","338493","0.0-61.0","null","null","","
    <div style="" display: block;  position: relative;"">
    
    <svg width=1280 height=720>
    <circle cx=577 cy=360 r=14.139785276417765 stroke=""black"" stroke-width=""1"" fill=""black"" />
    <circle cx=846.5937282594999 cy=360 r=20.19969325202538 stroke=""none"" stroke-width=""1.5"" fill=""none"" />
    <circle cx=738.8 cy=467.7937282595 r=20.19969325202538 stroke=""none"" stroke-width=""1.5"" fill=""none"" />
    <circle cx=631.0062717405 cy=360 r=20.19969325202538 stroke=""none"" stroke-width=""1.5"" fill=""none"" />
    <circle cx=738.8 cy=252.20627174049997 r=20.19969325202538 stroke=""none"" stroke-width=""1.5"" fill=""none"" />
    <polygon points = ""738.8,360 744.4820727133284,380.1996932520254 733.1179272866715,380.1996932520254"" stroke=""none"" stroke-width=""3"" fill = ""none"" />
    
    </svg>
    </div>
        ","","","","","","","","","","","","","","","","","","","","","","","","","","","","",""
"html-keyboard-response","62","338648","0.0-62.0","null","null","","
    <div style="" display: block;  position: relative;"">
    <svg width=1280 height=720>
    
    <circle cx=577 cy=360 r=14.139785276417765 stroke=""black"" stroke-width=""1"" fill=""black"" />
    <circle cx=738.8 cy=360 r=20.19969325202538 stroke=""black"" stroke-width=""1.5"" fill=""none"" />
    <circle cx=846.5937282594999 cy=360 r=20.19969325202538 stroke=""black"" stroke-width=""1.5"" fill=""none"" />
    <circle cx=738.8 cy=467.7937282595 r=20.19969325202538 stroke=""black"" stroke-width=""1.5"" fill=""none"" />
    <circle cx=631.0062717405 cy=360 r=20.19969325202538 stroke=""black"" stroke-width=""1.5"" fill=""none"" />
    <circle cx=738.8 cy=252.20627174049997 r=20.19969325202538 stroke=""black"" stroke-width=""1.5"" fill=""none"" />
    <polygon points = ""738.8,360 744.4820727133284,339.8003067479746 733.1179272866715,339.8003067479746"" stroke=""white"" stroke-width=""3"" fill = ""white"" />
    
    </svg>
    </div>
        ","","","","","","","","","","","","stimulus","","","","","","","","","","","","","","","","",""
"html-keyboard-response","63","339105","0.0-63.0","454.59999999962747","arrowup","","
    <div style="" display: block;  position: relative;"">
    
    <svg width=1280 height=720>
    <circle cx=577 cy=360 r=14.139785276417765 stroke=""black"" stroke-width=""1"" fill=""black"" />
    <circle cx=846.5937282594999 cy=360 r=20.19969325202538 stroke=""none"" stroke-width=""1.5"" fill=""none"" />
    <circle cx=738.8 cy=467.7937282595 r=20.19969325202538 stroke=""none"" stroke-width=""1.5"" fill=""none"" />
    <circle cx=631.0062717405 cy=360 r=20.19969325202538 stroke=""none"" stroke-width=""1.5"" fill=""none"" />
    <circle cx=738.8 cy=252.20627174049997 r=20.19969325202538 stroke=""none"" stroke-width=""1.5"" fill=""none"" />
    <polygon points = ""738.8,360 744.4820727133284,339.8003067479746 733.1179272866715,339.8003067479746"" stroke=""none"" stroke-width=""3"" fill = ""none"" />
    
    </svg>
    </div>
        ","","","","","","","","","","","","get_response","true","VXdOP9Jc7L8WEWY0","","","false","true","true","161.8","4","558.14","107.79372825950001","2.66","1","0","","",""
"html-keyboard-response","64","339617","0.0-64.0","null","null","","
    <div style="" display: block;  position: relative;"">
    
    <svg width=1280 height=720>
    <circle cx=577 cy=360 r=14.139785276417765 stroke=""black"" stroke-width=""1"" fill=""black"" />
    <circle cx=846.5937282594999 cy=360 r=20.19969325202538 stroke=""none"" stroke-width=""1.5"" fill=""none"" />
    <circle cx=738.8 cy=467.7937282595 r=20.19969325202538 stroke=""none"" stroke-width=""1.5"" fill=""none"" />
    <circle cx=631.0062717405 cy=360 r=20.19969325202538 stroke=""none"" stroke-width=""1.5"" fill=""none"" />
    <circle cx=738.8 cy=252.20627174049997 r=20.19969325202538 stroke=""none"" stroke-width=""1.5"" fill=""none"" />
    <polygon points = ""738.8,360 744.4820727133284,339.8003067479746 733.1179272866715,339.8003067479746"" stroke=""none"" stroke-width=""3"" fill = ""none"" />
    
    </svg>
    </div>
        ","","","","","","","","","","","","","","","","","","","","","","","","","","","","",""
"html-keyboard-response","65","339785","0.0-65.0","null","null","","
    <div style="" display: block;  position: relative;"">
    <svg width=1280 height=720>
    
    <circle cx=577 cy=360 r=14.139785276417765 stroke=""black"" stroke-width=""1"" fill=""black"" />
    <circle cx=415.2 cy=360 r=20.19969325202538 stroke=""black"" stroke-width=""1.5"" fill=""none"" />
    <circle cx=513.1942984177273 cy=360 r=20.19969325202538 stroke=""black"" stroke-width=""1.5"" fill=""none"" />
    <circle cx=415.2 cy=457.9942984177273 r=20.19969325202538 stroke=""black"" stroke-width=""1.5"" fill=""none"" />
    <circle cx=317.2057015822727 cy=360 r=20.19969325202538 stroke=""black"" stroke-width=""1.5"" fill=""none"" />
    <circle cx=415.2 cy=262.0057015822727 r=20.19969325202538 stroke=""black"" stroke-width=""1.5"" fill=""none"" />
    <polygon points = ""415.2,360 420.88207271332845,339.8003067479746 409.5179272866715,339.8003067479746"" stroke=""white"" stroke-width=""3"" fill = ""white"" />
    
    </svg>
    </div>
        ","","","","","","","","","","","","stimulus","","","","","","","","","","","","","","","","",""
"html-keyboard-response","66","341116","0.0-66.0","1328.7999999998137","arrowup","","
    <div style="" display: block;  position: relative;"">
    
    <svg width=1280 height=720>
    <circle cx=577 cy=360 r=14.139785276417765 stroke=""black"" stroke-width=""1"" fill=""black"" />
    <circle cx=513.1942984177273 cy=360 r=20.19969325202538 stroke=""none"" stroke-width=""1.5"" fill=""none"" />
    <circle cx=415.2 cy=457.9942984177273 r=20.19969325202538 stroke=""none"" stroke-width=""1.5"" fill=""none"" />
    <circle cx=317.2057015822727 cy=360 r=20.19969325202538 stroke=""none"" stroke-width=""1.5"" fill=""none"" />
    <circle cx=415.2 cy=262.0057015822727 r=20.19969325202538 stroke=""none"" stroke-width=""1.5"" fill=""none"" />
    <polygon points = ""415.2,360 420.88207271332845,339.8003067479746 409.5179272866715,339.8003067479746"" stroke=""none"" stroke-width=""3"" fill = ""none"" />
    
    </svg>
    </div>
        ","","","","","","","","","","","","get_response","true","VXdOP9Jc7L8WEWY0","","","true","true","true","161.8","4","558.14","97.99429841772728","2.42","1","0","","",""
"html-keyboard-response","67","341630","0.0-67.0","null","null","","
    <div style="" display: block;  position: relative;"">
    
    <svg width=1280 height=720>
    <circle cx=577 cy=360 r=14.139785276417765 stroke=""black"" stroke-width=""1"" fill=""black"" />
    <circle cx=513.1942984177273 cy=360 r=20.19969325202538 stroke=""none"" stroke-width=""1.5"" fill=""none"" />
    <circle cx=415.2 cy=457.9942984177273 r=20.19969325202538 stroke=""none"" stroke-width=""1.5"" fill=""none"" />
    <circle cx=317.2057015822727 cy=360 r=20.19969325202538 stroke=""none"" stroke-width=""1.5"" fill=""none"" />
    <circle cx=415.2 cy=262.0057015822727 r=20.19969325202538 stroke=""none"" stroke-width=""1.5"" fill=""none"" />
    <polygon points = ""415.2,360 420.88207271332845,339.8003067479746 409.5179272866715,339.8003067479746"" stroke=""none"" stroke-width=""3"" fill = ""none"" />
    
    </svg>
    </div>
        ","","","","","","","","","","","","","","","","","","","","","","","","","","","","",""
"html-keyboard-response","68","341785","0.0-68.0","null","null","","
    <div style="" display: block;  position: relative;"">
    <svg width=1280 height=720>
    
    <circle cx=577 cy=360 r=14.139785276417765 stroke=""black"" stroke-width=""1"" fill=""black"" />
    <circle cx=415.2 cy=360 r=20.19969325202538 stroke=""black"" stroke-width=""1.5"" fill=""none"" />
    <circle cx=504.2857258342975 cy=360 r=20.19969325202538 stroke=""black"" stroke-width=""1.5"" fill=""none"" />
    <circle cx=415.2 cy=449.08572583429753 r=20.19969325202538 stroke=""black"" stroke-width=""1.5"" fill=""none"" />
    <circle cx=326.11427416570245 cy=360 r=20.19969325202538 stroke=""black"" stroke-width=""1.5"" fill=""none"" />
    <circle cx=415.2 cy=270.91427416570247 r=20.19969325202538 stroke=""black"" stroke-width=""1.5"" fill=""none"" />
    <polygon points = ""415.2,360 420.88207271332845,380.1996932520254 409.5179272866715,380.1996932520254"" stroke=""white"" stroke-width=""3"" fill = ""white"" />
    
    </svg>
    </div>
        ","","","","","","","","","","","","stimulus","","","","","","","","","","","","","","","","",""
"html-keyboard-response","69","342150","0.0-69.0","362.59999999962747","arrowdown","","
    <div style="" display: block;  position: relative;"">
    
    <svg width=1280 height=720>
    <circle cx=577 cy=360 r=14.139785276417765 stroke=""black"" stroke-width=""1"" fill=""black"" />
    <circle cx=504.2857258342975 cy=360 r=20.19969325202538 stroke=""none"" stroke-width=""1.5"" fill=""none"" />
    <circle cx=415.2 cy=449.08572583429753 r=20.19969325202538 stroke=""none"" stroke-width=""1.5"" fill=""none"" />
    <circle cx=326.11427416570245 cy=360 r=20.19969325202538 stroke=""none"" stroke-width=""1.5"" fill=""none"" />
    <circle cx=415.2 cy=270.91427416570247 r=20.19969325202538 stroke=""none"" stroke-width=""1.5"" fill=""none"" />
    <polygon points = ""415.2,360 420.88207271332845,380.1996932520254 409.5179272866715,380.1996932520254"" stroke=""none"" stroke-width=""3"" fill = ""none"" />
    
    </svg>
    </div>
        ","","","","","","","","","","","","get_response","true","VXdOP9Jc7L8WEWY0","","","true","false","true","161.8","4","558.14","89.08572583429752","2.2","1","0","","",""
"html-keyboard-response","70","342664","0.0-70.0","null","null","","
    <div style="" display: block;  position: relative;"">
    
    <svg width=1280 height=720>
    <circle cx=577 cy=360 r=14.139785276417765 stroke=""black"" stroke-width=""1"" fill=""black"" />
    <circle cx=504.2857258342975 cy=360 r=20.19969325202538 stroke=""none"" stroke-width=""1.5"" fill=""none"" />
    <circle cx=415.2 cy=449.08572583429753 r=20.19969325202538 stroke=""none"" stroke-width=""1.5"" fill=""none"" />
    <circle cx=326.11427416570245 cy=360 r=20.19969325202538 stroke=""none"" stroke-width=""1.5"" fill=""none"" />
    <circle cx=415.2 cy=270.91427416570247 r=20.19969325202538 stroke=""none"" stroke-width=""1.5"" fill=""none"" />
    <polygon points = ""415.2,360 420.88207271332845,380.1996932520254 409.5179272866715,380.1996932520254"" stroke=""none"" stroke-width=""3"" fill = ""none"" />
    
    </svg>
    </div>
        ","","","","","","","","","","","","","","","","","","","","","","","","","","","","",""
"html-keyboard-response","71","342820","0.0-71.0","null","null","","
    <div style="" display: block;  position: relative;"">
    <svg width=1280 height=720>
    
    <circle cx=577 cy=360 r=14.139785276417765 stroke=""black"" stroke-width=""1"" fill=""black"" />
    <circle cx=738.8 cy=360 r=20.19969325202538 stroke=""black"" stroke-width=""1.5"" fill=""none"" />
    <circle cx=819.787023485725 cy=360 r=20.19969325202538 stroke=""black"" stroke-width=""1.5"" fill=""none"" />
    <circle cx=738.8 cy=440.987023485725 r=20.19969325202538 stroke=""black"" stroke-width=""1.5"" fill=""none"" />
    <circle cx=657.812976514275 cy=360 r=20.19969325202538 stroke=""black"" stroke-width=""1.5"" fill=""none"" />
    <circle cx=738.8 cy=279.012976514275 r=20.19969325202538 stroke=""black"" stroke-width=""1.5"" fill=""none"" />
    <polygon points = ""738.8,360 744.4820727133284,339.8003067479746 733.1179272866715,339.8003067479746"" stroke=""white"" stroke-width=""3"" fill = ""white"" />
    
    </svg>
    </div>
        ","","","","","","","","","","","","stimulus","","","","","","","","","","","","","","","","",""
"html-keyboard-response","72","343779","0.0-72.0","956.7000000001863","arrowup","","
    <div style="" display: block;  position: relative;"">
    
    <svg width=1280 height=720>
    <circle cx=577 cy=360 r=14.139785276417765 stroke=""black"" stroke-width=""1"" fill=""black"" />
    <circle cx=819.787023485725 cy=360 r=20.19969325202538 stroke=""none"" stroke-width=""1.5"" fill=""none"" />
    <circle cx=738.8 cy=440.987023485725 r=20.19969325202538 stroke=""none"" stroke-width=""1.5"" fill=""none"" />
    <circle cx=657.812976514275 cy=360 r=20.19969325202538 stroke=""none"" stroke-width=""1.5"" fill=""none"" />
    <circle cx=738.8 cy=279.012976514275 r=20.19969325202538 stroke=""none"" stroke-width=""1.5"" fill=""none"" />
    <polygon points = ""738.8,360 744.4820727133284,339.8003067479746 733.1179272866715,339.8003067479746"" stroke=""none"" stroke-width=""3"" fill = ""none"" />
    
    </svg>
    </div>
        ","","","","","","","","","","","","get_response","true","VXdOP9Jc7L8WEWY0","","","false","true","true","161.8","4","558.14","80.98702348572502","2","1","0","","",""
"html-keyboard-response","73","344287","0.0-73.0","null","null","","
    <div style="" display: block;  position: relative;"">
    
    <svg width=1280 height=720>
    <circle cx=577 cy=360 r=14.139785276417765 stroke=""black"" stroke-width=""1"" fill=""black"" />
    <circle cx=819.787023485725 cy=360 r=20.19969325202538 stroke=""none"" stroke-width=""1.5"" fill=""none"" />
    <circle cx=738.8 cy=440.987023485725 r=20.19969325202538 stroke=""none"" stroke-width=""1.5"" fill=""none"" />
    <circle cx=657.812976514275 cy=360 r=20.19969325202538 stroke=""none"" stroke-width=""1.5"" fill=""none"" />
    <circle cx=738.8 cy=279.012976514275 r=20.19969325202538 stroke=""none"" stroke-width=""1.5"" fill=""none"" />
    <polygon points = ""738.8,360 744.4820727133284,339.8003067479746 733.1179272866715,339.8003067479746"" stroke=""none"" stroke-width=""3"" fill = ""none"" />
    
    </svg>
    </div>
        ","","","","","","","","","","","","","","","","","","","","","","","","","","","","",""
"html-keyboard-response","74","344442","0.0-74.0","null","null","","
    <div style="" display: block;  position: relative;"">
    <svg width=1280 height=720>
    
    <circle cx=577 cy=360 r=14.139785276417765 stroke=""black"" stroke-width=""1"" fill=""black"" />
    <circle cx=415.2 cy=360 r=20.19969325202538 stroke=""black"" stroke-width=""1.5"" fill=""none"" />
    <circle cx=488.82456680520454 cy=360 r=20.19969325202538 stroke=""black"" stroke-width=""1.5"" fill=""none"" />
    <circle cx=415.2 cy=433.62456680520455 r=20.19969325202538 stroke=""black"" stroke-width=""1.5"" fill=""none"" />
    <circle cx=341.57543319479544 cy=360 r=20.19969325202538 stroke=""black"" stroke-width=""1.5"" fill=""none"" />
    <circle cx=415.2 cy=286.37543319479545 r=20.19969325202538 stroke=""black"" stroke-width=""1.5"" fill=""none"" />
    <polygon points = ""415.2,360 420.88207271332845,339.8003067479746 409.5179272866715,339.8003067479746"" stroke=""white"" stroke-width=""3"" fill = ""white"" />
    
    </svg>
    </div>
        ","","","","","","","","","","","","stimulus","","","","","","","","","","","","","","","","",""
"html-keyboard-response","75","346016","0.0-75.0","1571.8999999999069","arrowup","","
    <div style="" display: block;  position: relative;"">
    
    <svg width=1280 height=720>
    <circle cx=577 cy=360 r=14.139785276417765 stroke=""black"" stroke-width=""1"" fill=""black"" />
    <circle cx=488.82456680520454 cy=360 r=20.19969325202538 stroke=""none"" stroke-width=""1.5"" fill=""none"" />
    <circle cx=415.2 cy=433.62456680520455 r=20.19969325202538 stroke=""none"" stroke-width=""1.5"" fill=""none"" />
    <circle cx=341.57543319479544 cy=360 r=20.19969325202538 stroke=""none"" stroke-width=""1.5"" fill=""none"" />
    <circle cx=415.2 cy=286.37543319479545 r=20.19969325202538 stroke=""none"" stroke-width=""1.5"" fill=""none"" />
    <polygon points = ""415.2,360 420.88207271332845,339.8003067479746 409.5179272866715,339.8003067479746"" stroke=""none"" stroke-width=""3"" fill = ""none"" />
    
    </svg>
    </div>
        ","","","","","","","","","","","","get_response","true","VXdOP9Jc7L8WEWY0","","","true","true","true","161.8","4","558.14","73.62456680520455","1.82","1","0","","",""
"html-keyboard-response","76","346531","0.0-76.0","null","null","","
    <div style="" display: block;  position: relative;"">
    
    <svg width=1280 height=720>
    <circle cx=577 cy=360 r=14.139785276417765 stroke=""black"" stroke-width=""1"" fill=""black"" />
    <circle cx=488.82456680520454 cy=360 r=20.19969325202538 stroke=""none"" stroke-width=""1.5"" fill=""none"" />
    <circle cx=415.2 cy=433.62456680520455 r=20.19969325202538 stroke=""none"" stroke-width=""1.5"" fill=""none"" />
    <circle cx=341.57543319479544 cy=360 r=20.19969325202538 stroke=""none"" stroke-width=""1.5"" fill=""none"" />
    <circle cx=415.2 cy=286.37543319479545 r=20.19969325202538 stroke=""none"" stroke-width=""1.5"" fill=""none"" />
    <polygon points = ""415.2,360 420.88207271332845,339.8003067479746 409.5179272866715,339.8003067479746"" stroke=""none"" stroke-width=""3"" fill = ""none"" />
    
    </svg>
    </div>
        ","","","","","","","","","","","","","","","","","","","","","","","","","","","","",""
"html-keyboard-response","77","346690","0.0-77.0","null","null","","
    <div style="" display: block;  position: relative;"">
    <svg width=1280 height=720>
    
    <circle cx=577 cy=360 r=14.139785276417765 stroke=""black"" stroke-width=""1"" fill=""black"" />
    <circle cx=738.8 cy=360 r=20.19969325202538 stroke=""black"" stroke-width=""1.5"" fill=""none"" />
    <circle cx=805.7314243683677 cy=360 r=20.19969325202538 stroke=""black"" stroke-width=""1.5"" fill=""none"" />
    <circle cx=738.8 cy=426.93142436836774 r=20.19969325202538 stroke=""black"" stroke-width=""1.5"" fill=""none"" />
    <circle cx=671.8685756316322 cy=360 r=20.19969325202538 stroke=""black"" stroke-width=""1.5"" fill=""none"" />
    <circle cx=738.8 cy=293.06857563163226 r=20.19969325202538 stroke=""black"" stroke-width=""1.5"" fill=""none"" />
    <polygon points = ""738.8,360 744.4820727133284,380.1996932520254 733.1179272866715,380.1996932520254"" stroke=""white"" stroke-width=""3"" fill = ""white"" />
    
    </svg>
    </div>
        ","","","","","","","","","","","","stimulus","","","","","","","","","","","","","","","","",""
"html-keyboard-response","78","347216","0.0-78.0","523.5","arrowdown","","
    <div style="" display: block;  position: relative;"">
    
    <svg width=1280 height=720>
    <circle cx=577 cy=360 r=14.139785276417765 stroke=""black"" stroke-width=""1"" fill=""black"" />
    <circle cx=805.7314243683677 cy=360 r=20.19969325202538 stroke=""none"" stroke-width=""1.5"" fill=""none"" />
    <circle cx=738.8 cy=426.93142436836774 r=20.19969325202538 stroke=""none"" stroke-width=""1.5"" fill=""none"" />
    <circle cx=671.8685756316322 cy=360 r=20.19969325202538 stroke=""none"" stroke-width=""1.5"" fill=""none"" />
    <circle cx=738.8 cy=293.06857563163226 r=20.19969325202538 stroke=""none"" stroke-width=""1.5"" fill=""none"" />
    <polygon points = ""738.8,360 744.4820727133284,380.1996932520254 733.1179272866715,380.1996932520254"" stroke=""none"" stroke-width=""3"" fill = ""none"" />
    
    </svg>
    </div>
        ","","","","","","","","","","","","get_response","true","VXdOP9Jc7L8WEWY0","","","false","false","true","161.8","4","558.14","66.93142436836777","1.65","1","0","","",""
"html-keyboard-response","79","347732","0.0-79.0","null","null","","
    <div style="" display: block;  position: relative;"">
    
    <svg width=1280 height=720>
    <circle cx=577 cy=360 r=14.139785276417765 stroke=""black"" stroke-width=""1"" fill=""black"" />
    <circle cx=805.7314243683677 cy=360 r=20.19969325202538 stroke=""none"" stroke-width=""1.5"" fill=""none"" />
    <circle cx=738.8 cy=426.93142436836774 r=20.19969325202538 stroke=""none"" stroke-width=""1.5"" fill=""none"" />
    <circle cx=671.8685756316322 cy=360 r=20.19969325202538 stroke=""none"" stroke-width=""1.5"" fill=""none"" />
    <circle cx=738.8 cy=293.06857563163226 r=20.19969325202538 stroke=""none"" stroke-width=""1.5"" fill=""none"" />
    <polygon points = ""738.8,360 744.4820727133284,380.1996932520254 733.1179272866715,380.1996932520254"" stroke=""none"" stroke-width=""3"" fill = ""none"" />
    
    </svg>
    </div>
        ","","","","","","","","","","","","","","","","","","","","","","","","","","","","",""
"html-keyboard-response","80","347889","0.0-80.0","null","null","","
    <div style="" display: block;  position: relative;"">
    <svg width=1280 height=720>
    
    <circle cx=577 cy=360 r=14.139785276417765 stroke=""black"" stroke-width=""1"" fill=""black"" />
    <circle cx=415.2 cy=360 r=20.19969325202538 stroke=""black"" stroke-width=""1.5"" fill=""none"" />
    <circle cx=476.04674942578885 cy=360 r=20.19969325202538 stroke=""black"" stroke-width=""1.5"" fill=""none"" />
    <circle cx=415.2 cy=420.84674942578886 r=20.19969325202538 stroke=""black"" stroke-width=""1.5"" fill=""none"" />
    <circle cx=354.35325057421113 cy=360 r=20.19969325202538 stroke=""black"" stroke-width=""1.5"" fill=""none"" />
    <circle cx=415.2 cy=299.15325057421114 r=20.19969325202538 stroke=""black"" stroke-width=""1.5"" fill=""none"" />
    <polygon points = ""415.2,360 420.88207271332845,339.8003067479746 409.5179272866715,339.8003067479746"" stroke=""white"" stroke-width=""3"" fill = ""white"" />
    
    </svg>
    </div>
        ","","","","","","","","","","","","stimulus","","","","","","","","","","","","","","","","",""
"html-keyboard-response","81","348472","0.0-81.0","580.3999999999069","arrowdown","","
    <div style="" display: block;  position: relative;"">
    
    <svg width=1280 height=720>
    <circle cx=577 cy=360 r=14.139785276417765 stroke=""black"" stroke-width=""1"" fill=""black"" />
    <circle cx=476.04674942578885 cy=360 r=20.19969325202538 stroke=""none"" stroke-width=""1.5"" fill=""none"" />
    <circle cx=415.2 cy=420.84674942578886 r=20.19969325202538 stroke=""none"" stroke-width=""1.5"" fill=""none"" />
    <circle cx=354.35325057421113 cy=360 r=20.19969325202538 stroke=""none"" stroke-width=""1.5"" fill=""none"" />
    <circle cx=415.2 cy=299.15325057421114 r=20.19969325202538 stroke=""none"" stroke-width=""1.5"" fill=""none"" />
    <polygon points = ""415.2,360 420.88207271332845,339.8003067479746 409.5179272866715,339.8003067479746"" stroke=""none"" stroke-width=""3"" fill = ""none"" />
    
    </svg>
    </div>
        ","","","","","","","","","","","","get_response","false","VXdOP9Jc7L8WEWY0","","","true","true","true","161.8","4","558.14","60.84674942578888","1.5","1","0","","",""
"html-keyboard-response","82","348979","0.0-82.0","null","null","","
    <div style="" display: block;  position: relative;"">
    
    <svg width=1280 height=720>
    <circle cx=577 cy=360 r=14.139785276417765 stroke=""black"" stroke-width=""1"" fill=""black"" />
    <circle cx=476.04674942578885 cy=360 r=20.19969325202538 stroke=""none"" stroke-width=""1.5"" fill=""none"" />
    <circle cx=415.2 cy=420.84674942578886 r=20.19969325202538 stroke=""none"" stroke-width=""1.5"" fill=""none"" />
    <circle cx=354.35325057421113 cy=360 r=20.19969325202538 stroke=""none"" stroke-width=""1.5"" fill=""none"" />
    <circle cx=415.2 cy=299.15325057421114 r=20.19969325202538 stroke=""none"" stroke-width=""1.5"" fill=""none"" />
    <polygon points = ""415.2,360 420.88207271332845,339.8003067479746 409.5179272866715,339.8003067479746"" stroke=""none"" stroke-width=""3"" fill = ""none"" />
    
    </svg>
    </div>
        ","","","","","","","","","","","","","","","","","","","","","","","","","","","","",""
"html-keyboard-response","83","349135","0.0-83.0","null","null","","
    <div style="" display: block;  position: relative;"">
    <svg width=1280 height=720>
    
    <circle cx=577 cy=360 r=14.139785276417765 stroke=""black"" stroke-width=""1"" fill=""black"" />
    <circle cx=415.2 cy=360 r=20.19969325202538 stroke=""black"" stroke-width=""1.5"" fill=""none"" />
    <circle cx=494.30077425352556 cy=360 r=20.19969325202538 stroke=""black"" stroke-width=""1.5"" fill=""none"" />
    <circle cx=415.2 cy=439.1007742535255 r=20.19969325202538 stroke=""black"" stroke-width=""1.5"" fill=""none"" />
    <circle cx=336.0992257464744 cy=360 r=20.19969325202538 stroke=""black"" stroke-width=""1.5"" fill=""none"" />
    <circle cx=415.2 cy=280.8992257464745 r=20.19969325202538 stroke=""black"" stroke-width=""1.5"" fill=""none"" />
    <polygon points = ""415.2,360 420.88207271332845,380.1996932520254 409.5179272866715,380.1996932520254"" stroke=""white"" stroke-width=""3"" fill = ""white"" />
    
    </svg>
    </div>
        ","","","","","","","","","","","","stimulus","","","","","","","","","","","","","","","","",""
"html-keyboard-response","84","349616","0.0-84.0","478.89999999990687","arrowdown","","
    <div style="" display: block;  position: relative;"">
    
    <svg width=1280 height=720>
    <circle cx=577 cy=360 r=14.139785276417765 stroke=""black"" stroke-width=""1"" fill=""black"" />
    <circle cx=494.30077425352556 cy=360 r=20.19969325202538 stroke=""none"" stroke-width=""1.5"" fill=""none"" />
    <circle cx=415.2 cy=439.1007742535255 r=20.19969325202538 stroke=""none"" stroke-width=""1.5"" fill=""none"" />
    <circle cx=336.0992257464744 cy=360 r=20.19969325202538 stroke=""none"" stroke-width=""1.5"" fill=""none"" />
    <circle cx=415.2 cy=280.8992257464745 r=20.19969325202538 stroke=""none"" stroke-width=""1.5"" fill=""none"" />
    <polygon points = ""415.2,360 420.88207271332845,380.1996932520254 409.5179272866715,380.1996932520254"" stroke=""none"" stroke-width=""3"" fill = ""none"" />
    
    </svg>
    </div>
        ","","","","","","","","","","","","get_response","true","VXdOP9Jc7L8WEWY0","","","true","false","true","161.8","4","558.14","79.10077425352554","1.95","1","0","","",""
"html-keyboard-response","85","350129","0.0-85.0","null","null","","
    <div style="" display: block;  position: relative;"">
    
    <svg width=1280 height=720>
    <circle cx=577 cy=360 r=14.139785276417765 stroke=""black"" stroke-width=""1"" fill=""black"" />
    <circle cx=494.30077425352556 cy=360 r=20.19969325202538 stroke=""none"" stroke-width=""1.5"" fill=""none"" />
    <circle cx=415.2 cy=439.1007742535255 r=20.19969325202538 stroke=""none"" stroke-width=""1.5"" fill=""none"" />
    <circle cx=336.0992257464744 cy=360 r=20.19969325202538 stroke=""none"" stroke-width=""1.5"" fill=""none"" />
    <circle cx=415.2 cy=280.8992257464745 r=20.19969325202538 stroke=""none"" stroke-width=""1.5"" fill=""none"" />
    <polygon points = ""415.2,360 420.88207271332845,380.1996932520254 409.5179272866715,380.1996932520254"" stroke=""none"" stroke-width=""3"" fill = ""none"" />
    
    </svg>
    </div>
        ","","","","","","","","","","","","","","","","","","","","","","","","","","","","",""
"html-keyboard-response","86","350284","0.0-86.0","null","null","","
    <div style="" display: block;  position: relative;"">
    <svg width=1280 height=720>
    
    <circle cx=577 cy=360 r=14.139785276417765 stroke=""black"" stroke-width=""1"" fill=""black"" />
    <circle cx=415.2 cy=360 r=20.19969325202538 stroke=""black"" stroke-width=""1.5"" fill=""none"" />
    <circle cx=494.30077425352556 cy=360 r=20.19969325202538 stroke=""black"" stroke-width=""1.5"" fill=""none"" />
    <circle cx=415.2 cy=439.1007742535255 r=20.19969325202538 stroke=""black"" stroke-width=""1.5"" fill=""none"" />
    <circle cx=336.0992257464744 cy=360 r=20.19969325202538 stroke=""black"" stroke-width=""1.5"" fill=""none"" />
    <circle cx=415.2 cy=280.8992257464745 r=20.19969325202538 stroke=""black"" stroke-width=""1.5"" fill=""none"" />
    <polygon points = ""415.2,360 420.88207271332845,339.8003067479746 409.5179272866715,339.8003067479746"" stroke=""white"" stroke-width=""3"" fill = ""white"" />
    
    </svg>
    </div>
        ","","","","","","","","","","","","stimulus","","","","","","","","","","","","","","","","",""
"html-keyboard-response","87","350691","0.0-87.0","403.5","arrowup","","
    <div style="" display: block;  position: relative;"">
    
    <svg width=1280 height=720>
    <circle cx=577 cy=360 r=14.139785276417765 stroke=""black"" stroke-width=""1"" fill=""black"" />
    <circle cx=494.30077425352556 cy=360 r=20.19969325202538 stroke=""none"" stroke-width=""1.5"" fill=""none"" />
    <circle cx=415.2 cy=439.1007742535255 r=20.19969325202538 stroke=""none"" stroke-width=""1.5"" fill=""none"" />
    <circle cx=336.0992257464744 cy=360 r=20.19969325202538 stroke=""none"" stroke-width=""1.5"" fill=""none"" />
    <circle cx=415.2 cy=280.8992257464745 r=20.19969325202538 stroke=""none"" stroke-width=""1.5"" fill=""none"" />
    <polygon points = ""415.2,360 420.88207271332845,339.8003067479746 409.5179272866715,339.8003067479746"" stroke=""none"" stroke-width=""3"" fill = ""none"" />
    
    </svg>
    </div>
        ","","","","","","","","","","","","get_response","true","VXdOP9Jc7L8WEWY0","","","true","true","true","161.8","4","558.14","79.10077425352554","1.95","1","0","","",""
"html-keyboard-response","88","351196","0.0-88.0","null","null","","
    <div style="" display: block;  position: relative;"">
    
    <svg width=1280 height=720>
    <circle cx=577 cy=360 r=14.139785276417765 stroke=""black"" stroke-width=""1"" fill=""black"" />
    <circle cx=494.30077425352556 cy=360 r=20.19969325202538 stroke=""none"" stroke-width=""1.5"" fill=""none"" />
    <circle cx=415.2 cy=439.1007742535255 r=20.19969325202538 stroke=""none"" stroke-width=""1.5"" fill=""none"" />
    <circle cx=336.0992257464744 cy=360 r=20.19969325202538 stroke=""none"" stroke-width=""1.5"" fill=""none"" />
    <circle cx=415.2 cy=280.8992257464745 r=20.19969325202538 stroke=""none"" stroke-width=""1.5"" fill=""none"" />
    <polygon points = ""415.2,360 420.88207271332845,339.8003067479746 409.5179272866715,339.8003067479746"" stroke=""none"" stroke-width=""3"" fill = ""none"" />
    
    </svg>
    </div>
        ","","","","","","","","","","","","","","","","","","","","","","","","","","","","",""
"html-keyboard-response","89","351354","0.0-89.0","null","null","","
    <div style="" display: block;  position: relative;"">
    <svg width=1280 height=720>
    
    <circle cx=577 cy=360 r=14.139785276417765 stroke=""black"" stroke-width=""1"" fill=""black"" />
    <circle cx=415.2 cy=360 r=20.19969325202538 stroke=""black"" stroke-width=""1.5"" fill=""none"" />
    <circle cx=494.30077425352556 cy=360 r=20.19969325202538 stroke=""black"" stroke-width=""1.5"" fill=""none"" />
    <circle cx=415.2 cy=439.1007742535255 r=20.19969325202538 stroke=""black"" stroke-width=""1.5"" fill=""none"" />
    <circle cx=336.0992257464744 cy=360 r=20.19969325202538 stroke=""black"" stroke-width=""1.5"" fill=""none"" />
    <circle cx=415.2 cy=280.8992257464745 r=20.19969325202538 stroke=""black"" stroke-width=""1.5"" fill=""none"" />
    <polygon points = ""415.2,360 420.88207271332845,339.8003067479746 409.5179272866715,339.8003067479746"" stroke=""white"" stroke-width=""3"" fill = ""white"" />
    
    </svg>
    </div>
        ","","","","","","","","","","","","stimulus","","","","","","","","","","","","","","","","",""
"html-keyboard-response","90","351808","0.0-90.0","452.3000000002794","arrowup","","
    <div style="" display: block;  position: relative;"">
    
    <svg width=1280 height=720>
    <circle cx=577 cy=360 r=14.139785276417765 stroke=""black"" stroke-width=""1"" fill=""black"" />
    <circle cx=494.30077425352556 cy=360 r=20.19969325202538 stroke=""none"" stroke-width=""1.5"" fill=""none"" />
    <circle cx=415.2 cy=439.1007742535255 r=20.19969325202538 stroke=""none"" stroke-width=""1.5"" fill=""none"" />
    <circle cx=336.0992257464744 cy=360 r=20.19969325202538 stroke=""none"" stroke-width=""1.5"" fill=""none"" />
    <circle cx=415.2 cy=280.8992257464745 r=20.19969325202538 stroke=""none"" stroke-width=""1.5"" fill=""none"" />
    <polygon points = ""415.2,360 420.88207271332845,339.8003067479746 409.5179272866715,339.8003067479746"" stroke=""none"" stroke-width=""3"" fill = ""none"" />
    
    </svg>
    </div>
        ","","","","","","","","","","","","get_response","true","VXdOP9Jc7L8WEWY0","","","true","true","true","161.8","4","558.14","79.10077425352554","1.95","1","0","","",""
"html-keyboard-response","91","352321","0.0-91.0","null","null","","
    <div style="" display: block;  position: relative;"">
    
    <svg width=1280 height=720>
    <circle cx=577 cy=360 r=14.139785276417765 stroke=""black"" stroke-width=""1"" fill=""black"" />
    <circle cx=494.30077425352556 cy=360 r=20.19969325202538 stroke=""none"" stroke-width=""1.5"" fill=""none"" />
    <circle cx=415.2 cy=439.1007742535255 r=20.19969325202538 stroke=""none"" stroke-width=""1.5"" fill=""none"" />
    <circle cx=336.0992257464744 cy=360 r=20.19969325202538 stroke=""none"" stroke-width=""1.5"" fill=""none"" />
    <circle cx=415.2 cy=280.8992257464745 r=20.19969325202538 stroke=""none"" stroke-width=""1.5"" fill=""none"" />
    <polygon points = ""415.2,360 420.88207271332845,339.8003067479746 409.5179272866715,339.8003067479746"" stroke=""none"" stroke-width=""3"" fill = ""none"" />
    
    </svg>
    </div>
        ","","","","","","","","","","","","","","","","","","","","","","","","","","","","",""
"html-keyboard-response","92","352477","0.0-92.0","null","null","","
    <div style="" display: block;  position: relative;"">
    <svg width=1280 height=720>
    
    <circle cx=577 cy=360 r=14.139785276417765 stroke=""black"" stroke-width=""1"" fill=""black"" />
    <circle cx=738.8 cy=360 r=20.19969325202538 stroke=""black"" stroke-width=""1.5"" fill=""none"" />
    <circle cx=810.7097947759323 cy=360 r=20.19969325202538 stroke=""black"" stroke-width=""1.5"" fill=""none"" />
    <circle cx=738.8 cy=431.9097947759323 r=20.19969325202538 stroke=""black"" stroke-width=""1.5"" fill=""none"" />
    <circle cx=666.8902052240676 cy=360 r=20.19969325202538 stroke=""black"" stroke-width=""1.5"" fill=""none"" />
    <circle cx=738.8 cy=288.0902052240677 r=20.19969325202538 stroke=""black"" stroke-width=""1.5"" fill=""none"" />
    <polygon points = ""738.8,360 744.4820727133284,339.8003067479746 733.1179272866715,339.8003067479746"" stroke=""white"" stroke-width=""3"" fill = ""white"" />
    
    </svg>
    </div>
        ","","","","","","","","","","","","stimulus","","","","","","","","","","","","","","","","",""
"html-keyboard-response","93","353361","0.0-93.0","882.1000000000931","arrowdown","","
    <div style="" display: block;  position: relative;"">
    
    <svg width=1280 height=720>
    <circle cx=577 cy=360 r=14.139785276417765 stroke=""black"" stroke-width=""1"" fill=""black"" />
    <circle cx=810.7097947759323 cy=360 r=20.19969325202538 stroke=""none"" stroke-width=""1.5"" fill=""none"" />
    <circle cx=738.8 cy=431.9097947759323 r=20.19969325202538 stroke=""none"" stroke-width=""1.5"" fill=""none"" />
    <circle cx=666.8902052240676 cy=360 r=20.19969325202538 stroke=""none"" stroke-width=""1.5"" fill=""none"" />
    <circle cx=738.8 cy=288.0902052240677 r=20.19969325202538 stroke=""none"" stroke-width=""1.5"" fill=""none"" />
    <polygon points = ""738.8,360 744.4820727133284,339.8003067479746 733.1179272866715,339.8003067479746"" stroke=""none"" stroke-width=""3"" fill = ""none"" />
    
    </svg>
    </div>
        ","","","","","","","","","","","","get_response","false","VXdOP9Jc7L8WEWY0","","","false","true","true","161.8","4","558.14","71.90979477593231","1.78","1","0","","",""
"html-keyboard-response","94","353869","0.0-94.0","null","null","","
    <div style="" display: block;  position: relative;"">
    
    <svg width=1280 height=720>
    <circle cx=577 cy=360 r=14.139785276417765 stroke=""black"" stroke-width=""1"" fill=""black"" />
    <circle cx=810.7097947759323 cy=360 r=20.19969325202538 stroke=""none"" stroke-width=""1.5"" fill=""none"" />
    <circle cx=738.8 cy=431.9097947759323 r=20.19969325202538 stroke=""none"" stroke-width=""1.5"" fill=""none"" />
    <circle cx=666.8902052240676 cy=360 r=20.19969325202538 stroke=""none"" stroke-width=""1.5"" fill=""none"" />
    <circle cx=738.8 cy=288.0902052240677 r=20.19969325202538 stroke=""none"" stroke-width=""1.5"" fill=""none"" />
    <polygon points = ""738.8,360 744.4820727133284,339.8003067479746 733.1179272866715,339.8003067479746"" stroke=""none"" stroke-width=""3"" fill = ""none"" />
    
    </svg>
    </div>
        ","","","","","","","","","","","","","","","","","","","","","","","","","","","","",""
"html-keyboard-response","95","354029","0.0-95.0","null","null","","
    <div style="" display: block;  position: relative;"">
    <svg width=1280 height=720>
    
    <circle cx=577 cy=360 r=14.139785276417765 stroke=""black"" stroke-width=""1"" fill=""black"" />
    <circle cx=738.8 cy=360 r=20.19969325202538 stroke=""black"" stroke-width=""1.5"" fill=""none"" />
    <circle cx=832.282733208712 cy=360 r=20.19969325202538 stroke=""black"" stroke-width=""1.5"" fill=""none"" />
    <circle cx=738.8 cy=453.48273320871203 r=20.19969325202538 stroke=""black"" stroke-width=""1.5"" fill=""none"" />
    <circle cx=645.3172667912879 cy=360 r=20.19969325202538 stroke=""black"" stroke-width=""1.5"" fill=""none"" />
    <circle cx=738.8 cy=266.51726679128797 r=20.19969325202538 stroke=""black"" stroke-width=""1.5"" fill=""none"" />
    <polygon points = ""738.8,360 744.4820727133284,339.8003067479746 733.1179272866715,339.8003067479746"" stroke=""white"" stroke-width=""3"" fill = ""white"" />
    
    </svg>
    </div>
        ","","","","","","","","","","","","stimulus","","","","","","","","","","","","","","","","",""
"html-keyboard-response","96","354446","0.0-96.0","415.29999999981374","arrowup","","
    <div style="" display: block;  position: relative;"">
    
    <svg width=1280 height=720>
    <circle cx=577 cy=360 r=14.139785276417765 stroke=""black"" stroke-width=""1"" fill=""black"" />
    <circle cx=832.282733208712 cy=360 r=20.19969325202538 stroke=""none"" stroke-width=""1.5"" fill=""none"" />
    <circle cx=738.8 cy=453.48273320871203 r=20.19969325202538 stroke=""none"" stroke-width=""1.5"" fill=""none"" />
    <circle cx=645.3172667912879 cy=360 r=20.19969325202538 stroke=""none"" stroke-width=""1.5"" fill=""none"" />
    <circle cx=738.8 cy=266.51726679128797 r=20.19969325202538 stroke=""none"" stroke-width=""1.5"" fill=""none"" />
    <polygon points = ""738.8,360 744.4820727133284,339.8003067479746 733.1179272866715,339.8003067479746"" stroke=""none"" stroke-width=""3"" fill = ""none"" />
    
    </svg>
    </div>
        ","","","","","","","","","","","","get_response","true","VXdOP9Jc7L8WEWY0","","","false","true","true","161.8","4","558.14","93.482733208712","2.31","1","0","","",""
"html-keyboard-response","97","354961","0.0-97.0","null","null","","
    <div style="" display: block;  position: relative;"">
    
    <svg width=1280 height=720>
    <circle cx=577 cy=360 r=14.139785276417765 stroke=""black"" stroke-width=""1"" fill=""black"" />
    <circle cx=832.282733208712 cy=360 r=20.19969325202538 stroke=""none"" stroke-width=""1.5"" fill=""none"" />
