"trial_type","trial_index","time_elapsed","internal_node_id","rt","response","success","stimulus","start_time","start_time_unix","item_width_mm","item_height_mm","item_width_px","px2mm","view_dist_mm","item_width_deg","px2deg","win_width_deg","win_height_deg","trialType","correct","participantID","criticalSpacing","criticalSpacing_deg","isLeft","isUp","isEccen4","eccentricity","eccentricity_deg","viewingDistanceMean","critical_spacing","critical_spacing_deg","crowding_session","correctRate","viewDistance_1","viewDistance_2","viewDistance_3"
"pavlovia","0","8","0.0-0.0","","","","","","","","","","","","","","","","","","","","","","","","","","","","","","","","",""
"survey-text","1","9687","0.0-1.0","9513.5","{""Q0"":""""}","","","","","","","","","","","","","","","","","","","","","","","","","","","","","","",""
"fullscreen","2","14702","0.0-2.0","","","true","","","","","","","","","","","","","","","","","","","","","","","","","","","","","",""
"html-keyboard-response","3","21474","0.0-3.0","6765.300000190735"," ","","<h1>Consent Form</h1>
       <p>By answering the following questions, you are participating in a study being performed by cognitive scientists in the Stanford Department of Psychology. If you have questions about this research, please contact us at stanfordpsych251@gmail.com. You must be at least 18 years old to participate. Your participation in this research is voluntary. You may decline to answer any or all of the following questions. You may decline further participation by closing the window, at any time, without adverse consequences. Your anonymity is assured; the researchers who have requested your participation will not receive any personal information about you.</p>
       <p>Press <b>any key</b> to start the experiment!</p>","","","","","","","","","","","","","","","","","","","","","","","","","","","","",""
"html-keyboard-response","4","24195","0.0-4.0","2717.3999996185303"," ","","<h1>Welcome to the Visual Crowding Experiment!</h1>
       <p>This test will take <b>10-12</b> minutes to complete.</p>
       <p>Press any key to start the experiment!</p>","30/11/2021 23:54:43","1638338083477","","","","","","","","","","","","","","","","","","","","","","","","","","",""
"html-keyboard-response","5","43518","0.0-5.0","19320.300000190735","arrowdown","","<div> 
<p> Before you begin this study, let&#39;s quickly test how far away you are sitting. You might know that vision tests at a doctor&#39;s practice often involve chinrests, the doctor basically asks you to sit away from a screen in a specific distance. We do this here with a <b>virtual chinrest</b>. </p>
<p> Please press the <b>down</b> arrow to continue.
</p>
</div>","","","","","","","","","","","","","","","","","","","","","","","","","","","","",""
"virtual-chinrest","6","171547","0.0-6.0","128023.90000009537","","","","","","85.6","53.98","326","3.81","614.08","7.973879798288144","40.88348561135655","33.41202394006628","18.78509105854385","","","","","","","","","","","","","","","","","",""
"html-keyboard-response","7","211492","0.0-7.0","39935.89999961853","arrowdown","","
	<h2 class=""bolded-blue"">Now, you will take a peripheral vision test!</h2>
<p> 
	<b>
		<font size=""140%"">1. </font>
	</b>
	<em><b>Please use both eyes for the following task.</b></em> First, you will see a screen (like the one in the image below) showing a <b>black dot</b> in the middle of the screen, with a group of circles displayed on either the <span class=""bolded-blue"">left</span> or <span class=""bolded-blue"">right</span> of the black dot for 150 ms. <span class=""bolded-blue"">Please make sure to focus on the black dot all the time!</span>

	<div>
		<img src=""example.png"" alt=""example"" style=""border: 2px solid black"" width=""600""/> 
	</div>
	
	<b>
		<font size=""140%"">2. </font>
	</b>
	Your task is to identify whether the opening of the <b class=""bolded-blue"">center circle</b> is upward by pressing UP or downward by pressing DOWN on your keyboard. The opening of the circle will only be upward or downward, not towards left or right.

	<div>
		<img src=""arrow_keys+.png"" alt=""arrows"" style=""border: 2px solid black"" width=""600""/>
	</div>
	<br>

<p>Please press the <b>down</b> arrow key to start the <span class=""bolded-blue"">practice task</span> (this first practice task will not count toward your final results).</p>
</p>
","","","","","","","","","","","","","","","","","","","","","","","","","","","","",""
"html-keyboard-response","8","212006","0.0-8.0","null","null","","
    <div style="" display: block;  position: relative;"">
    
    <svg width=1366 height=768>
    <circle cx=620 cy=384 r=14.415041216250572 stroke=""black"" stroke-width=""1"" fill=""black"" />
    <circle cx=NaN cy=384 r=20.592916023215103 stroke=""none"" stroke-width=""1.5"" fill=""none"" />
    <circle cx=455.05 cy=NaN r=20.592916023215103 stroke=""none"" stroke-width=""1.5"" fill=""none"" />
    <circle cx=NaN cy=384 r=20.592916023215103 stroke=""none"" stroke-width=""1.5"" fill=""none"" />
    <circle cx=455.05 cy=NaN r=20.592916023215103 stroke=""none"" stroke-width=""1.5"" fill=""none"" />
    <polygon points = ""455.05,384 460.8426843127503,404.5929160232151 449.25731568724973,404.5929160232151"" stroke=""none"" stroke-width=""3"" fill = ""none"" />
    
    </svg>
    </div>
        ","","","","","","","","","","","","","","","","","","","","","","","","","","","","",""
"html-keyboard-response","9","212180","0.0-9.0","null","null","","
    <div style="" display: block;  position: relative;"">
    <svg width=1366 height=768>
    
    <circle cx=620 cy=384 r=14.415041216250572 stroke=""black"" stroke-width=""1"" fill=""black"" />
    <circle cx=784.95 cy=384 r=20.592916023215103 stroke=""black"" stroke-width=""1.5"" fill=""none"" />
    <circle cx=892.1675 cy=384 r=20.592916023215103 stroke=""black"" stroke-width=""1.5"" fill=""none"" />
    <circle cx=784.95 cy=491.2175 r=20.592916023215103 stroke=""black"" stroke-width=""1.5"" fill=""none"" />
    <circle cx=677.7325000000001 cy=384 r=20.592916023215103 stroke=""black"" stroke-width=""1.5"" fill=""none"" />
    <circle cx=784.95 cy=276.7825 r=20.592916023215103 stroke=""black"" stroke-width=""1.5"" fill=""none"" />
    <polygon points = ""784.95,384 790.7426843127504,363.4070839767849 779.1573156872497,363.4070839767849"" stroke=""white"" stroke-width=""3"" fill = ""white"" />
    
    </svg>
    </div>
        ","","","","","","","","","","","","stimulus","","","","","","","","","","","","","","","","",""
"html-keyboard-response","10","218763","0.0-10.0","6579.400000095367","arrowup","","
    <div style="" display: block;  position: relative;"">
    
    <svg width=1366 height=768>
    <circle cx=620 cy=384 r=14.415041216250572 stroke=""black"" stroke-width=""1"" fill=""black"" />
    <circle cx=892.1675 cy=384 r=20.592916023215103 stroke=""none"" stroke-width=""1.5"" fill=""none"" />
    <circle cx=784.95 cy=491.2175 r=20.592916023215103 stroke=""none"" stroke-width=""1.5"" fill=""none"" />
    <circle cx=677.7325000000001 cy=384 r=20.592916023215103 stroke=""none"" stroke-width=""1.5"" fill=""none"" />
    <circle cx=784.95 cy=276.7825 r=20.592916023215103 stroke=""none"" stroke-width=""1.5"" fill=""none"" />
    <polygon points = ""784.95,384 790.7426843127504,363.4070839767849 779.1573156872497,363.4070839767849"" stroke=""none"" stroke-width=""3"" fill = ""none"" />
    
    </svg>
    </div>
        ","","","","","","","","","","","","practice_get_response","true","IYXFFcUomYumms0J","107.2175","2.6","false","true","true","164.95","4","621.2760000000001","","","","","","",""
"html-keyboard-response","11","219274","0.0-11.0","null","null","","
    <div style="" display: block;  position: relative;"">
    
    <svg width=1366 height=768>
    <circle cx=620 cy=384 r=14.415041216250572 stroke=""black"" stroke-width=""1"" fill=""black"" />
    <circle cx=892.1675 cy=384 r=20.592916023215103 stroke=""none"" stroke-width=""1.5"" fill=""none"" />
    <circle cx=784.95 cy=491.2175 r=20.592916023215103 stroke=""none"" stroke-width=""1.5"" fill=""none"" />
    <circle cx=677.7325000000001 cy=384 r=20.592916023215103 stroke=""none"" stroke-width=""1.5"" fill=""none"" />
    <circle cx=784.95 cy=276.7825 r=20.592916023215103 stroke=""none"" stroke-width=""1.5"" fill=""none"" />
    <polygon points = ""784.95,384 790.7426843127504,363.4070839767849 779.1573156872497,363.4070839767849"" stroke=""none"" stroke-width=""3"" fill = ""none"" />
    
    </svg>
    </div>
        ","","","","","","","","","","","","","","","","","","","","","","","","","","","","",""
"html-keyboard-response","12","219431","0.0-12.0","null","null","","
    <div style="" display: block;  position: relative;"">
    <svg width=1366 height=768>
    
    <circle cx=620 cy=384 r=14.415041216250572 stroke=""black"" stroke-width=""1"" fill=""black"" />
    <circle cx=455.05 cy=384 r=20.592916023215103 stroke=""black"" stroke-width=""1.5"" fill=""none"" />
    <circle cx=562.2675 cy=384 r=20.592916023215103 stroke=""black"" stroke-width=""1.5"" fill=""none"" />
    <circle cx=455.05 cy=491.2175 r=20.592916023215103 stroke=""black"" stroke-width=""1.5"" fill=""none"" />
    <circle cx=347.8325 cy=384 r=20.592916023215103 stroke=""black"" stroke-width=""1.5"" fill=""none"" />
    <circle cx=455.05 cy=276.7825 r=20.592916023215103 stroke=""black"" stroke-width=""1.5"" fill=""none"" />
    <polygon points = ""455.05,384 460.8426843127503,404.5929160232151 449.25731568724973,404.5929160232151"" stroke=""white"" stroke-width=""3"" fill = ""white"" />
    
    </svg>
    </div>
        ","","","","","","","","","","","","stimulus","","","","","","","","","","","","","","","","",""
"html-keyboard-response","13","220410","0.0-13.0","973.2999997138977","arrowdown","","
    <div style="" display: block;  position: relative;"">
    
    <svg width=1366 height=768>
    <circle cx=620 cy=384 r=14.415041216250572 stroke=""black"" stroke-width=""1"" fill=""black"" />
    <circle cx=562.2675 cy=384 r=20.592916023215103 stroke=""none"" stroke-width=""1.5"" fill=""none"" />
    <circle cx=455.05 cy=491.2175 r=20.592916023215103 stroke=""none"" stroke-width=""1.5"" fill=""none"" />
    <circle cx=347.8325 cy=384 r=20.592916023215103 stroke=""none"" stroke-width=""1.5"" fill=""none"" />
    <circle cx=455.05 cy=276.7825 r=20.592916023215103 stroke=""none"" stroke-width=""1.5"" fill=""none"" />
    <polygon points = ""455.05,384 460.8426843127503,404.5929160232151 449.25731568724973,404.5929160232151"" stroke=""none"" stroke-width=""3"" fill = ""none"" />
    
    </svg>
    </div>
        ","","","","","","","","","","","","practice_get_response","true","IYXFFcUomYumms0J","107.2175","2.6","true","false","true","164.95","4","621.2760000000001","","","","","","",""
"html-keyboard-response","14","220922","0.0-14.0","null","null","","
    <div style="" display: block;  position: relative;"">
    
    <svg width=1366 height=768>
    <circle cx=620 cy=384 r=14.415041216250572 stroke=""black"" stroke-width=""1"" fill=""black"" />
    <circle cx=562.2675 cy=384 r=20.592916023215103 stroke=""none"" stroke-width=""1.5"" fill=""none"" />
    <circle cx=455.05 cy=491.2175 r=20.592916023215103 stroke=""none"" stroke-width=""1.5"" fill=""none"" />
    <circle cx=347.8325 cy=384 r=20.592916023215103 stroke=""none"" stroke-width=""1.5"" fill=""none"" />
    <circle cx=455.05 cy=276.7825 r=20.592916023215103 stroke=""none"" stroke-width=""1.5"" fill=""none"" />
    <polygon points = ""455.05,384 460.8426843127503,404.5929160232151 449.25731568724973,404.5929160232151"" stroke=""none"" stroke-width=""3"" fill = ""none"" />
    
    </svg>
    </div>
        ","","","","","","","","","","","","","","","","","","","","","","","","","","","","",""
"html-keyboard-response","15","221079","0.0-15.0","null","null","","
    <div style="" display: block;  position: relative;"">
    <svg width=1366 height=768>
    
    <circle cx=620 cy=384 r=14.415041216250572 stroke=""black"" stroke-width=""1"" fill=""black"" />
    <circle cx=455.05 cy=384 r=20.592916023215103 stroke=""black"" stroke-width=""1.5"" fill=""none"" />
    <circle cx=562.2675 cy=384 r=20.592916023215103 stroke=""black"" stroke-width=""1.5"" fill=""none"" />
    <circle cx=455.05 cy=491.2175 r=20.592916023215103 stroke=""black"" stroke-width=""1.5"" fill=""none"" />
    <circle cx=347.8325 cy=384 r=20.592916023215103 stroke=""black"" stroke-width=""1.5"" fill=""none"" />
    <circle cx=455.05 cy=276.7825 r=20.592916023215103 stroke=""black"" stroke-width=""1.5"" fill=""none"" />
    <polygon points = ""455.05,384 460.8426843127503,404.5929160232151 449.25731568724973,404.5929160232151"" stroke=""white"" stroke-width=""3"" fill = ""white"" />
    
    </svg>
    </div>
        ","","","","","","","","","","","","stimulus","","","","","","","","","","","","","","","","",""
"html-keyboard-response","16","221640","0.0-16.0","558.5","arrowdown","","
    <div style="" display: block;  position: relative;"">
    
    <svg width=1366 height=768>
    <circle cx=620 cy=384 r=14.415041216250572 stroke=""black"" stroke-width=""1"" fill=""black"" />
    <circle cx=562.2675 cy=384 r=20.592916023215103 stroke=""none"" stroke-width=""1.5"" fill=""none"" />
    <circle cx=455.05 cy=491.2175 r=20.592916023215103 stroke=""none"" stroke-width=""1.5"" fill=""none"" />
    <circle cx=347.8325 cy=384 r=20.592916023215103 stroke=""none"" stroke-width=""1.5"" fill=""none"" />
    <circle cx=455.05 cy=276.7825 r=20.592916023215103 stroke=""none"" stroke-width=""1.5"" fill=""none"" />
    <polygon points = ""455.05,384 460.8426843127503,404.5929160232151 449.25731568724973,404.5929160232151"" stroke=""none"" stroke-width=""3"" fill = ""none"" />
    
    </svg>
    </div>
        ","","","","","","","","","","","","practice_get_response","true","IYXFFcUomYumms0J","107.2175","2.6","true","false","true","164.95","4","621.2760000000001","","","","","","",""
"html-keyboard-response","17","222159","0.0-17.0","null","null","","
    <div style="" display: block;  position: relative;"">
    
    <svg width=1366 height=768>
    <circle cx=620 cy=384 r=14.415041216250572 stroke=""black"" stroke-width=""1"" fill=""black"" />
    <circle cx=562.2675 cy=384 r=20.592916023215103 stroke=""none"" stroke-width=""1.5"" fill=""none"" />
    <circle cx=455.05 cy=491.2175 r=20.592916023215103 stroke=""none"" stroke-width=""1.5"" fill=""none"" />
    <circle cx=347.8325 cy=384 r=20.592916023215103 stroke=""none"" stroke-width=""1.5"" fill=""none"" />
    <circle cx=455.05 cy=276.7825 r=20.592916023215103 stroke=""none"" stroke-width=""1.5"" fill=""none"" />
    <polygon points = ""455.05,384 460.8426843127503,404.5929160232151 449.25731568724973,404.5929160232151"" stroke=""none"" stroke-width=""3"" fill = ""none"" />
    
    </svg>
    </div>
        ","","","","","","","","","","","","","","","","","","","","","","","","","","","","",""
"html-keyboard-response","18","222327","0.0-18.0","null","null","","
    <div style="" display: block;  position: relative;"">
    <svg width=1366 height=768>
    
    <circle cx=620 cy=384 r=14.415041216250572 stroke=""black"" stroke-width=""1"" fill=""black"" />
    <circle cx=784.95 cy=384 r=20.592916023215103 stroke=""black"" stroke-width=""1.5"" fill=""none"" />
    <circle cx=882.4204545454546 cy=384 r=20.592916023215103 stroke=""black"" stroke-width=""1.5"" fill=""none"" />
    <circle cx=784.95 cy=481.4704545454546 r=20.592916023215103 stroke=""black"" stroke-width=""1.5"" fill=""none"" />
    <circle cx=687.4795454545455 cy=384 r=20.592916023215103 stroke=""black"" stroke-width=""1.5"" fill=""none"" />
    <circle cx=784.95 cy=286.5295454545454 r=20.592916023215103 stroke=""black"" stroke-width=""1.5"" fill=""none"" />
    <polygon points = ""784.95,384 790.7426843127504,363.4070839767849 779.1573156872497,363.4070839767849"" stroke=""white"" stroke-width=""3"" fill = ""white"" />
    
    </svg>
    </div>
        ","","","","","","","","","","","","stimulus","","","","","","","","","","","","","","","","",""
"html-keyboard-response","19","222869","0.0-19.0","538.7000002861023","arrowup","","
    <div style="" display: block;  position: relative;"">
    
    <svg width=1366 height=768>
    <circle cx=620 cy=384 r=14.415041216250572 stroke=""black"" stroke-width=""1"" fill=""black"" />
    <circle cx=882.4204545454546 cy=384 r=20.592916023215103 stroke=""none"" stroke-width=""1.5"" fill=""none"" />
    <circle cx=784.95 cy=481.4704545454546 r=20.592916023215103 stroke=""none"" stroke-width=""1.5"" fill=""none"" />
    <circle cx=687.4795454545455 cy=384 r=20.592916023215103 stroke=""none"" stroke-width=""1.5"" fill=""none"" />
    <circle cx=784.95 cy=286.5295454545454 r=20.592916023215103 stroke=""none"" stroke-width=""1.5"" fill=""none"" />
    <polygon points = ""784.95,384 790.7426843127504,363.4070839767849 779.1573156872497,363.4070839767849"" stroke=""none"" stroke-width=""3"" fill = ""none"" />
    
    </svg>
    </div>
        ","","","","","","","","","","","","practice_get_response","true","IYXFFcUomYumms0J","97.47045454545454","2.36","false","true","true","164.95","4","621.2760000000001","","","","","","",""
"html-keyboard-response","20","223375","0.0-20.0","null","null","","
    <div style="" display: block;  position: relative;"">
    
    <svg width=1366 height=768>
    <circle cx=620 cy=384 r=14.415041216250572 stroke=""black"" stroke-width=""1"" fill=""black"" />
    <circle cx=882.4204545454546 cy=384 r=20.592916023215103 stroke=""none"" stroke-width=""1.5"" fill=""none"" />
    <circle cx=784.95 cy=481.4704545454546 r=20.592916023215103 stroke=""none"" stroke-width=""1.5"" fill=""none"" />
    <circle cx=687.4795454545455 cy=384 r=20.592916023215103 stroke=""none"" stroke-width=""1.5"" fill=""none"" />
    <circle cx=784.95 cy=286.5295454545454 r=20.592916023215103 stroke=""none"" stroke-width=""1.5"" fill=""none"" />
    <polygon points = ""784.95,384 790.7426843127504,363.4070839767849 779.1573156872497,363.4070839767849"" stroke=""none"" stroke-width=""3"" fill = ""none"" />
    
    </svg>
    </div>
        ","","","","","","","","","","","","","","","","","","","","","","","","","","","","",""
"html-keyboard-response","21","223533","0.0-21.0","null","null","","
    <div style="" display: block;  position: relative;"">
    <svg width=1366 height=768>
    
    <circle cx=620 cy=384 r=14.415041216250572 stroke=""black"" stroke-width=""1"" fill=""black"" />
    <circle cx=455.05 cy=384 r=20.592916023215103 stroke=""black"" stroke-width=""1.5"" fill=""none"" />
    <circle cx=543.6595041322314 cy=384 r=20.592916023215103 stroke=""black"" stroke-width=""1.5"" fill=""none"" />
    <circle cx=455.05 cy=472.6095041322314 r=20.592916023215103 stroke=""black"" stroke-width=""1.5"" fill=""none"" />
    <circle cx=366.4404958677686 cy=384 r=20.592916023215103 stroke=""black"" stroke-width=""1.5"" fill=""none"" />
    <circle cx=455.05 cy=295.3904958677686 r=20.592916023215103 stroke=""black"" stroke-width=""1.5"" fill=""none"" />
    <polygon points = ""455.05,384 460.8426843127503,404.5929160232151 449.25731568724973,404.5929160232151"" stroke=""white"" stroke-width=""3"" fill = ""white"" />
    
    </svg>
    </div>
        ","","","","","","","","","","","","stimulus","","","","","","","","","","","","","","","","",""
"html-keyboard-response","22","223846","0.0-22.0","309.5","arrowdown","","
    <div style="" display: block;  position: relative;"">
    
    <svg width=1366 height=768>
    <circle cx=620 cy=384 r=14.415041216250572 stroke=""black"" stroke-width=""1"" fill=""black"" />
    <circle cx=543.6595041322314 cy=384 r=20.592916023215103 stroke=""none"" stroke-width=""1.5"" fill=""none"" />
    <circle cx=455.05 cy=472.6095041322314 r=20.592916023215103 stroke=""none"" stroke-width=""1.5"" fill=""none"" />
    <circle cx=366.4404958677686 cy=384 r=20.592916023215103 stroke=""none"" stroke-width=""1.5"" fill=""none"" />
    <circle cx=455.05 cy=295.3904958677686 r=20.592916023215103 stroke=""none"" stroke-width=""1.5"" fill=""none"" />
    <polygon points = ""455.05,384 460.8426843127503,404.5929160232151 449.25731568724973,404.5929160232151"" stroke=""none"" stroke-width=""3"" fill = ""none"" />
    
    </svg>
    </div>
        ","","","","","","","","","","","","practice_get_response","true","IYXFFcUomYumms0J","88.6095041322314","2.15","true","false","true","164.95","4","621.2760000000001","","","","","","",""
"html-keyboard-response","23","229556","0.0-23.0","5707.5","arrowdown","","<div> 
<h2 class=""bolded-blue"">Well done!</h2>
<p> Now that you have the hang of it, we&#39;ll start the study. This session has 25 trials and takes about 2 minute to complete. </p> 
<p>If you are ready for the real deal, please press the <b>down</b> arrow to continue.
</p>
</div>","","","","","","","","","","","","","","","","","","","","","","","","","","","","",""
"html-keyboard-response","24","234989","0.0-24.0","5429.699999809265","arrowdown","","<div id=""continue""> 
<p>Again, please keep the <b>full screen</b> mode for the best experience.</p>
<p>Please do not move around and keep your eye on the black dot. Click <b>up</b> or <b>down</b> key on your keyboard to indicate the opening of the center circle. Make your best guess!</p>
<p>Please press the <b>down</b> arrow key to start the session 1. </p>
</div>","","","","","","","","","","","","","","","","","","","","","","","","","","","","",""
"html-keyboard-response","25","235504","0.0-25.0","null","null","","
    <div style="" display: block;  position: relative;"">
    
    <svg width=1366 height=768>
    <circle cx=620 cy=384 r=14.415041216250572 stroke=""black"" stroke-width=""1"" fill=""black"" />
    <circle cx=543.6595041322314 cy=384 r=20.592916023215103 stroke=""none"" stroke-width=""1.5"" fill=""none"" />
    <circle cx=455.05 cy=472.6095041322314 r=20.592916023215103 stroke=""none"" stroke-width=""1.5"" fill=""none"" />
    <circle cx=366.4404958677686 cy=384 r=20.592916023215103 stroke=""none"" stroke-width=""1.5"" fill=""none"" />
    <circle cx=455.05 cy=295.3904958677686 r=20.592916023215103 stroke=""none"" stroke-width=""1.5"" fill=""none"" />
    <polygon points = ""455.05,384 460.8426843127503,404.5929160232151 449.25731568724973,404.5929160232151"" stroke=""none"" stroke-width=""3"" fill = ""none"" />
    
    </svg>
    </div>
        ","","","","","","","","","","","","","","","","","","","","","","","","","","","","",""
"html-keyboard-response","26","235664","0.0-26.0","null","null","","
    <div style="" display: block;  position: relative;"">
    <svg width=1366 height=768>
    
    <circle cx=620 cy=384 r=14.415041216250572 stroke=""black"" stroke-width=""1"" fill=""black"" />
    <circle cx=455.05 cy=384 r=20.592916023215103 stroke=""black"" stroke-width=""1.5"" fill=""none"" />
    <circle cx=562.2675 cy=384 r=20.592916023215103 stroke=""black"" stroke-width=""1.5"" fill=""none"" />
    <circle cx=455.05 cy=491.2175 r=20.592916023215103 stroke=""black"" stroke-width=""1.5"" fill=""none"" />
    <circle cx=347.8325 cy=384 r=20.592916023215103 stroke=""black"" stroke-width=""1.5"" fill=""none"" />
    <circle cx=455.05 cy=276.7825 r=20.592916023215103 stroke=""black"" stroke-width=""1.5"" fill=""none"" />
    <polygon points = ""455.05,384 460.8426843127503,363.4070839767849 449.25731568724973,363.4070839767849"" stroke=""white"" stroke-width=""3"" fill = ""white"" />
    
    </svg>
    </div>
        ","","","","","","","","","","","","stimulus","","","","","","","","","","","","","","","","",""
"html-keyboard-response","27","236062","0.0-27.0","395.19999980926514","arrowup","","
    <div style="" display: block;  position: relative;"">
    
    <svg width=1366 height=768>
    <circle cx=620 cy=384 r=14.415041216250572 stroke=""black"" stroke-width=""1"" fill=""black"" />
    <circle cx=562.2675 cy=384 r=20.592916023215103 stroke=""none"" stroke-width=""1.5"" fill=""none"" />
    <circle cx=455.05 cy=491.2175 r=20.592916023215103 stroke=""none"" stroke-width=""1.5"" fill=""none"" />
    <circle cx=347.8325 cy=384 r=20.592916023215103 stroke=""none"" stroke-width=""1.5"" fill=""none"" />
    <circle cx=455.05 cy=276.7825 r=20.592916023215103 stroke=""none"" stroke-width=""1.5"" fill=""none"" />
    <polygon points = ""455.05,384 460.8426843127503,363.4070839767849 449.25731568724973,363.4070839767849"" stroke=""none"" stroke-width=""3"" fill = ""none"" />
    
    </svg>
    </div>
        ","","","","","","","","","","","","get_response","true","IYXFFcUomYumms0J","","","true","true","true","164.95","4","621.2760000000001","107.2175","2.6","1","0","","",""
"html-keyboard-response","28","236576","0.0-28.0","null","null","","
    <div style="" display: block;  position: relative;"">
    
    <svg width=1366 height=768>
    <circle cx=620 cy=384 r=14.415041216250572 stroke=""black"" stroke-width=""1"" fill=""black"" />
    <circle cx=562.2675 cy=384 r=20.592916023215103 stroke=""none"" stroke-width=""1.5"" fill=""none"" />
    <circle cx=455.05 cy=491.2175 r=20.592916023215103 stroke=""none"" stroke-width=""1.5"" fill=""none"" />
    <circle cx=347.8325 cy=384 r=20.592916023215103 stroke=""none"" stroke-width=""1.5"" fill=""none"" />
    <circle cx=455.05 cy=276.7825 r=20.592916023215103 stroke=""none"" stroke-width=""1.5"" fill=""none"" />
    <polygon points = ""455.05,384 460.8426843127503,363.4070839767849 449.25731568724973,363.4070839767849"" stroke=""none"" stroke-width=""3"" fill = ""none"" />
    
    </svg>
    </div>
        ","","","","","","","","","","","","","","","","","","","","","","","","","","","","",""
"html-keyboard-response","29","236743","0.0-29.0","null","null","","
    <div style="" display: block;  position: relative;"">
    <svg width=1366 height=768>
    
    <circle cx=620 cy=384 r=14.415041216250572 stroke=""black"" stroke-width=""1"" fill=""black"" />
    <circle cx=455.05 cy=384 r=20.592916023215103 stroke=""black"" stroke-width=""1.5"" fill=""none"" />
    <circle cx=562.2675 cy=384 r=20.592916023215103 stroke=""black"" stroke-width=""1.5"" fill=""none"" />
    <circle cx=455.05 cy=491.2175 r=20.592916023215103 stroke=""black"" stroke-width=""1.5"" fill=""none"" />
    <circle cx=347.8325 cy=384 r=20.592916023215103 stroke=""black"" stroke-width=""1.5"" fill=""none"" />
    <circle cx=455.05 cy=276.7825 r=20.592916023215103 stroke=""black"" stroke-width=""1.5"" fill=""none"" />
    <polygon points = ""455.05,384 460.8426843127503,404.5929160232151 449.25731568724973,404.5929160232151"" stroke=""white"" stroke-width=""3"" fill = ""white"" />
    
    </svg>
    </div>
        ","","","","","","","","","","","","stimulus","","","","","","","","","","","","","","","","",""
"html-keyboard-response","30","237081","0.0-30.0","335.40000009536743","arrowdown","","
    <div style="" display: block;  position: relative;"">
    
    <svg width=1366 height=768>
    <circle cx=620 cy=384 r=14.415041216250572 stroke=""black"" stroke-width=""1"" fill=""black"" />
    <circle cx=562.2675 cy=384 r=20.592916023215103 stroke=""none"" stroke-width=""1.5"" fill=""none"" />
    <circle cx=455.05 cy=491.2175 r=20.592916023215103 stroke=""none"" stroke-width=""1.5"" fill=""none"" />
    <circle cx=347.8325 cy=384 r=20.592916023215103 stroke=""none"" stroke-width=""1.5"" fill=""none"" />
    <circle cx=455.05 cy=276.7825 r=20.592916023215103 stroke=""none"" stroke-width=""1.5"" fill=""none"" />
    <polygon points = ""455.05,384 460.8426843127503,404.5929160232151 449.25731568724973,404.5929160232151"" stroke=""none"" stroke-width=""3"" fill = ""none"" />
    
    </svg>
    </div>
        ","","","","","","","","","","","","get_response","true","IYXFFcUomYumms0J","","","true","false","true","164.95","4","621.2760000000001","107.2175","2.6","1","0","","",""
"html-keyboard-response","31","237596","0.0-31.0","null","null","","
    <div style="" display: block;  position: relative;"">
    
    <svg width=1366 height=768>
    <circle cx=620 cy=384 r=14.415041216250572 stroke=""black"" stroke-width=""1"" fill=""black"" />
    <circle cx=562.2675 cy=384 r=20.592916023215103 stroke=""none"" stroke-width=""1.5"" fill=""none"" />
    <circle cx=455.05 cy=491.2175 r=20.592916023215103 stroke=""none"" stroke-width=""1.5"" fill=""none"" />
    <circle cx=347.8325 cy=384 r=20.592916023215103 stroke=""none"" stroke-width=""1.5"" fill=""none"" />
    <circle cx=455.05 cy=276.7825 r=20.592916023215103 stroke=""none"" stroke-width=""1.5"" fill=""none"" />
    <polygon points = ""455.05,384 460.8426843127503,404.5929160232151 449.25731568724973,404.5929160232151"" stroke=""none"" stroke-width=""3"" fill = ""none"" />
    
    </svg>
    </div>
        ","","","","","","","","","","","","","","","","","","","","","","","","","","","","",""
"html-keyboard-response","32","237768","0.0-32.0","null","null","","
    <div style="" display: block;  position: relative;"">
    <svg width=1366 height=768>
    
    <circle cx=620 cy=384 r=14.415041216250572 stroke=""black"" stroke-width=""1"" fill=""black"" />
    <circle cx=784.95 cy=384 r=20.592916023215103 stroke=""black"" stroke-width=""1.5"" fill=""none"" />
    <circle cx=892.1675 cy=384 r=20.592916023215103 stroke=""black"" stroke-width=""1.5"" fill=""none"" />
    <circle cx=784.95 cy=491.2175 r=20.592916023215103 stroke=""black"" stroke-width=""1.5"" fill=""none"" />
    <circle cx=677.7325000000001 cy=384 r=20.592916023215103 stroke=""black"" stroke-width=""1.5"" fill=""none"" />
    <circle cx=784.95 cy=276.7825 r=20.592916023215103 stroke=""black"" stroke-width=""1.5"" fill=""none"" />
    <polygon points = ""784.95,384 790.7426843127504,404.5929160232151 779.1573156872497,404.5929160232151"" stroke=""white"" stroke-width=""3"" fill = ""white"" />
    
    </svg>
    </div>
        ","","","","","","","","","","","","stimulus","","","","","","","","","","","","","","","","",""
"html-keyboard-response","33","238238","0.0-33.0","467.59999990463257","arrowdown","","
    <div style="" display: block;  position: relative;"">
    
    <svg width=1366 height=768>
    <circle cx=620 cy=384 r=14.415041216250572 stroke=""black"" stroke-width=""1"" fill=""black"" />
    <circle cx=892.1675 cy=384 r=20.592916023215103 stroke=""none"" stroke-width=""1.5"" fill=""none"" />
    <circle cx=784.95 cy=491.2175 r=20.592916023215103 stroke=""none"" stroke-width=""1.5"" fill=""none"" />
    <circle cx=677.7325000000001 cy=384 r=20.592916023215103 stroke=""none"" stroke-width=""1.5"" fill=""none"" />
    <circle cx=784.95 cy=276.7825 r=20.592916023215103 stroke=""none"" stroke-width=""1.5"" fill=""none"" />
    <polygon points = ""784.95,384 790.7426843127504,404.5929160232151 779.1573156872497,404.5929160232151"" stroke=""none"" stroke-width=""3"" fill = ""none"" />
    
    </svg>
    </div>
        ","","","","","","","","","","","","get_response","true","IYXFFcUomYumms0J","","","false","false","true","164.95","4","621.2760000000001","107.2175","2.6","1","0","","",""
"html-keyboard-response","34","238753","0.0-34.0","null","null","","
    <div style="" display: block;  position: relative;"">
    
    <svg width=1366 height=768>
    <circle cx=620 cy=384 r=14.415041216250572 stroke=""black"" stroke-width=""1"" fill=""black"" />
    <circle cx=892.1675 cy=384 r=20.592916023215103 stroke=""none"" stroke-width=""1.5"" fill=""none"" />
    <circle cx=784.95 cy=491.2175 r=20.592916023215103 stroke=""none"" stroke-width=""1.5"" fill=""none"" />
    <circle cx=677.7325000000001 cy=384 r=20.592916023215103 stroke=""none"" stroke-width=""1.5"" fill=""none"" />
    <circle cx=784.95 cy=276.7825 r=20.592916023215103 stroke=""none"" stroke-width=""1.5"" fill=""none"" />
    <polygon points = ""784.95,384 790.7426843127504,404.5929160232151 779.1573156872497,404.5929160232151"" stroke=""none"" stroke-width=""3"" fill = ""none"" />
    
    </svg>
    </div>
        ","","","","","","","","","","","","","","","","","","","","","","","","","","","","",""
"html-keyboard-response","35","238914","0.0-35.0","null","null","","
    <div style="" display: block;  position: relative;"">
    <svg width=1366 height=768>
    
    <circle cx=620 cy=384 r=14.415041216250572 stroke=""black"" stroke-width=""1"" fill=""black"" />
    <circle cx=784.95 cy=384 r=20.592916023215103 stroke=""black"" stroke-width=""1.5"" fill=""none"" />
    <circle cx=882.4204545454546 cy=384 r=20.592916023215103 stroke=""black"" stroke-width=""1.5"" fill=""none"" />
    <circle cx=784.95 cy=481.4704545454546 r=20.592916023215103 stroke=""black"" stroke-width=""1.5"" fill=""none"" />
    <circle cx=687.4795454545455 cy=384 r=20.592916023215103 stroke=""black"" stroke-width=""1.5"" fill=""none"" />
    <circle cx=784.95 cy=286.5295454545454 r=20.592916023215103 stroke=""black"" stroke-width=""1.5"" fill=""none"" />
    <polygon points = ""784.95,384 790.7426843127504,404.5929160232151 779.1573156872497,404.5929160232151"" stroke=""white"" stroke-width=""3"" fill = ""white"" />
    
    </svg>
    </div>
        ","","","","","","","","","","","","stimulus","","","","","","","","","","","","","","","","",""
"html-keyboard-response","36","239245","0.0-36.0","324.90000009536743","arrowdown","","
    <div style="" display: block;  position: relative;"">
    
    <svg width=1366 height=768>
    <circle cx=620 cy=384 r=14.415041216250572 stroke=""black"" stroke-width=""1"" fill=""black"" />
    <circle cx=882.4204545454546 cy=384 r=20.592916023215103 stroke=""none"" stroke-width=""1.5"" fill=""none"" />
    <circle cx=784.95 cy=481.4704545454546 r=20.592916023215103 stroke=""none"" stroke-width=""1.5"" fill=""none"" />
    <circle cx=687.4795454545455 cy=384 r=20.592916023215103 stroke=""none"" stroke-width=""1.5"" fill=""none"" />
    <circle cx=784.95 cy=286.5295454545454 r=20.592916023215103 stroke=""none"" stroke-width=""1.5"" fill=""none"" />
    <polygon points = ""784.95,384 790.7426843127504,404.5929160232151 779.1573156872497,404.5929160232151"" stroke=""none"" stroke-width=""3"" fill = ""none"" />
    
    </svg>
    </div>
        ","","","","","","","","","","","","get_response","true","IYXFFcUomYumms0J","","","false","false","true","164.95","4","621.2760000000001","97.47045454545454","2.36","1","0","","",""
"html-keyboard-response","37","239759","0.0-37.0","null","null","","
    <div style="" display: block;  position: relative;"">
    
    <svg width=1366 height=768>
    <circle cx=620 cy=384 r=14.415041216250572 stroke=""black"" stroke-width=""1"" fill=""black"" />
    <circle cx=882.4204545454546 cy=384 r=20.592916023215103 stroke=""none"" stroke-width=""1.5"" fill=""none"" />
    <circle cx=784.95 cy=481.4704545454546 r=20.592916023215103 stroke=""none"" stroke-width=""1.5"" fill=""none"" />
    <circle cx=687.4795454545455 cy=384 r=20.592916023215103 stroke=""none"" stroke-width=""1.5"" fill=""none"" />
    <circle cx=784.95 cy=286.5295454545454 r=20.592916023215103 stroke=""none"" stroke-width=""1.5"" fill=""none"" />
    <polygon points = ""784.95,384 790.7426843127504,404.5929160232151 779.1573156872497,404.5929160232151"" stroke=""none"" stroke-width=""3"" fill = ""none"" />
    
    </svg>
    </div>
        ","","","","","","","","","","","","","","","","","","","","","","","","","","","","",""
"html-keyboard-response","38","239929","0.0-38.0","null","null","","
    <div style="" display: block;  position: relative;"">
    <svg width=1366 height=768>
    
    <circle cx=620 cy=384 r=14.415041216250572 stroke=""black"" stroke-width=""1"" fill=""black"" />
    <circle cx=784.95 cy=384 r=20.592916023215103 stroke=""black"" stroke-width=""1.5"" fill=""none"" />
    <circle cx=873.5595041322315 cy=384 r=20.592916023215103 stroke=""black"" stroke-width=""1.5"" fill=""none"" />
    <circle cx=784.95 cy=472.6095041322314 r=20.592916023215103 stroke=""black"" stroke-width=""1.5"" fill=""none"" />
    <circle cx=696.3404958677686 cy=384 r=20.592916023215103 stroke=""black"" stroke-width=""1.5"" fill=""none"" />
    <circle cx=784.95 cy=295.3904958677686 r=20.592916023215103 stroke=""black"" stroke-width=""1.5"" fill=""none"" />
    <polygon points = ""784.95,384 790.7426843127504,404.5929160232151 779.1573156872497,404.5929160232151"" stroke=""white"" stroke-width=""3"" fill = ""white"" />
    
    </svg>
    </div>
        ","","","","","","","","","","","","stimulus","","","","","","","","","","","","","","","","",""
"html-keyboard-response","39","240161","0.0-39.0","226.5","arrowdown","","
    <div style="" display: block;  position: relative;"">
    
    <svg width=1366 height=768>
    <circle cx=620 cy=384 r=14.415041216250572 stroke=""black"" stroke-width=""1"" fill=""black"" />
    <circle cx=873.5595041322315 cy=384 r=20.592916023215103 stroke=""none"" stroke-width=""1.5"" fill=""none"" />
    <circle cx=784.95 cy=472.6095041322314 r=20.592916023215103 stroke=""none"" stroke-width=""1.5"" fill=""none"" />
    <circle cx=696.3404958677686 cy=384 r=20.592916023215103 stroke=""none"" stroke-width=""1.5"" fill=""none"" />
    <circle cx=784.95 cy=295.3904958677686 r=20.592916023215103 stroke=""none"" stroke-width=""1.5"" fill=""none"" />
    <polygon points = ""784.95,384 790.7426843127504,404.5929160232151 779.1573156872497,404.5929160232151"" stroke=""none"" stroke-width=""3"" fill = ""none"" />
    
    </svg>
    </div>
        ","","","","","","","","","","","","get_response","true","IYXFFcUomYumms0J","","","false","false","true","164.95","4","621.2760000000001","88.6095041322314","2.15","1","0","","",""
"html-keyboard-response","40","240671","0.0-40.0","null","null","","
    <div style="" display: block;  position: relative;"">
    
    <svg width=1366 height=768>
    <circle cx=620 cy=384 r=14.415041216250572 stroke=""black"" stroke-width=""1"" fill=""black"" />
    <circle cx=873.5595041322315 cy=384 r=20.592916023215103 stroke=""none"" stroke-width=""1.5"" fill=""none"" />
    <circle cx=784.95 cy=472.6095041322314 r=20.592916023215103 stroke=""none"" stroke-width=""1.5"" fill=""none"" />
    <circle cx=696.3404958677686 cy=384 r=20.592916023215103 stroke=""none"" stroke-width=""1.5"" fill=""none"" />
    <circle cx=784.95 cy=295.3904958677686 r=20.592916023215103 stroke=""none"" stroke-width=""1.5"" fill=""none"" />
    <polygon points = ""784.95,384 790.7426843127504,404.5929160232151 779.1573156872497,404.5929160232151"" stroke=""none"" stroke-width=""3"" fill = ""none"" />
    
    </svg>
    </div>
        ","","","","","","","","","","","","","","","","","","","","","","","","","","","","",""
"html-keyboard-response","41","240829","0.0-41.0","null","null","","
    <div style="" display: block;  position: relative;"">
    <svg width=1366 height=768>
    
    <circle cx=620 cy=384 r=14.415041216250572 stroke=""black"" stroke-width=""1"" fill=""black"" />
    <circle cx=455.05 cy=384 r=20.592916023215103 stroke=""black"" stroke-width=""1.5"" fill=""none"" />
    <circle cx=535.6040946656649 cy=384 r=20.592916023215103 stroke=""black"" stroke-width=""1.5"" fill=""none"" />
    <circle cx=455.05 cy=464.5540946656649 r=20.592916023215103 stroke=""black"" stroke-width=""1.5"" fill=""none"" />
    <circle cx=374.49590533433513 cy=384 r=20.592916023215103 stroke=""black"" stroke-width=""1.5"" fill=""none"" />
    <circle cx=455.05 cy=303.4459053343351 r=20.592916023215103 stroke=""black"" stroke-width=""1.5"" fill=""none"" />
    <polygon points = ""455.05,384 460.8426843127503,363.4070839767849 449.25731568724973,363.4070839767849"" stroke=""white"" stroke-width=""3"" fill = ""white"" />
    
    </svg>
    </div>
        ","","","","","","","","","","","","stimulus","","","","","","","","","","","","","","","","",""
"html-keyboard-response","42","241182","0.0-42.0","349.2999997138977","arrowup","","
    <div style="" display: block;  position: relative;"">
    
    <svg width=1366 height=768>
    <circle cx=620 cy=384 r=14.415041216250572 stroke=""black"" stroke-width=""1"" fill=""black"" />
    <circle cx=535.6040946656649 cy=384 r=20.592916023215103 stroke=""none"" stroke-width=""1.5"" fill=""none"" />
    <circle cx=455.05 cy=464.5540946656649 r=20.592916023215103 stroke=""none"" stroke-width=""1.5"" fill=""none"" />
    <circle cx=374.49590533433513 cy=384 r=20.592916023215103 stroke=""none"" stroke-width=""1.5"" fill=""none"" />
    <circle cx=455.05 cy=303.4459053343351 r=20.592916023215103 stroke=""none"" stroke-width=""1.5"" fill=""none"" />
    <polygon points = ""455.05,384 460.8426843127503,363.4070839767849 449.25731568724973,363.4070839767849"" stroke=""none"" stroke-width=""3"" fill = ""none"" />
    
    </svg>
    </div>
        ","","","","","","","","","","","","get_response","true","IYXFFcUomYumms0J","","","true","true","true","164.95","4","621.2760000000001","80.55409466566489","1.95","1","0","","",""
"html-keyboard-response","43","241689","0.0-43.0","null","null","","
    <div style="" display: block;  position: relative;"">
    
    <svg width=1366 height=768>
    <circle cx=620 cy=384 r=14.415041216250572 stroke=""black"" stroke-width=""1"" fill=""black"" />
    <circle cx=535.6040946656649 cy=384 r=20.592916023215103 stroke=""none"" stroke-width=""1.5"" fill=""none"" />
    <circle cx=455.05 cy=464.5540946656649 r=20.592916023215103 stroke=""none"" stroke-width=""1.5"" fill=""none"" />
    <circle cx=374.49590533433513 cy=384 r=20.592916023215103 stroke=""none"" stroke-width=""1.5"" fill=""none"" />
    <circle cx=455.05 cy=303.4459053343351 r=20.592916023215103 stroke=""none"" stroke-width=""1.5"" fill=""none"" />
    <polygon points = ""455.05,384 460.8426843127503,363.4070839767849 449.25731568724973,363.4070839767849"" stroke=""none"" stroke-width=""3"" fill = ""none"" />
    
    </svg>
    </div>
        ","","","","","","","","","","","","","","","","","","","","","","","","","","","","",""
"html-keyboard-response","44","241845","0.0-44.0","null","null","","
    <div style="" display: block;  position: relative;"">
    <svg width=1366 height=768>
    
    <circle cx=620 cy=384 r=14.415041216250572 stroke=""black"" stroke-width=""1"" fill=""black"" />
    <circle cx=455.05 cy=384 r=20.592916023215103 stroke=""black"" stroke-width=""1.5"" fill=""none"" />
    <circle cx=528.2809951506044 cy=384 r=20.592916023215103 stroke=""black"" stroke-width=""1.5"" fill=""none"" />
    <circle cx=455.05 cy=457.23099515060443 r=20.592916023215103 stroke=""black"" stroke-width=""1.5"" fill=""none"" />
    <circle cx=381.8190048493956 cy=384 r=20.592916023215103 stroke=""black"" stroke-width=""1.5"" fill=""none"" />
    <circle cx=455.05 cy=310.76900484939557 r=20.592916023215103 stroke=""black"" stroke-width=""1.5"" fill=""none"" />
    <polygon points = ""455.05,384 460.8426843127503,363.4070839767849 449.25731568724973,363.4070839767849"" stroke=""white"" stroke-width=""3"" fill = ""white"" />
    
    </svg>
    </div>
        ","","","","","","","","","","","","stimulus","","","","","","","","","","","","","","","","",""
"html-keyboard-response","45","242288","0.0-45.0","439","arrowup","","
    <div style="" display: block;  position: relative;"">
    
    <svg width=1366 height=768>
    <circle cx=620 cy=384 r=14.415041216250572 stroke=""black"" stroke-width=""1"" fill=""black"" />
    <circle cx=528.2809951506044 cy=384 r=20.592916023215103 stroke=""none"" stroke-width=""1.5"" fill=""none"" />
    <circle cx=455.05 cy=457.23099515060443 r=20.592916023215103 stroke=""none"" stroke-width=""1.5"" fill=""none"" />
    <circle cx=381.8190048493956 cy=384 r=20.592916023215103 stroke=""none"" stroke-width=""1.5"" fill=""none"" />
    <circle cx=455.05 cy=310.76900484939557 r=20.592916023215103 stroke=""none"" stroke-width=""1.5"" fill=""none"" />
    <polygon points = ""455.05,384 460.8426843127503,363.4070839767849 449.25731568724973,363.4070839767849"" stroke=""none"" stroke-width=""3"" fill = ""none"" />
    
    </svg>
    </div>
        ","","","","","","","","","","","","get_response","true","IYXFFcUomYumms0J","","","true","true","true","164.95","4","621.2760000000001","73.23099515060444","1.77","1","0","","",""
"html-keyboard-response","46","242804","0.0-46.0","null","null","","
    <div style="" display: block;  position: relative;"">
    
    <svg width=1366 height=768>
    <circle cx=620 cy=384 r=14.415041216250572 stroke=""black"" stroke-width=""1"" fill=""black"" />
    <circle cx=528.2809951506044 cy=384 r=20.592916023215103 stroke=""none"" stroke-width=""1.5"" fill=""none"" />
    <circle cx=455.05 cy=457.23099515060443 r=20.592916023215103 stroke=""none"" stroke-width=""1.5"" fill=""none"" />
    <circle cx=381.8190048493956 cy=384 r=20.592916023215103 stroke=""none"" stroke-width=""1.5"" fill=""none"" />
    <circle cx=455.05 cy=310.76900484939557 r=20.592916023215103 stroke=""none"" stroke-width=""1.5"" fill=""none"" />
    <polygon points = ""455.05,384 460.8426843127503,363.4070839767849 449.25731568724973,363.4070839767849"" stroke=""none"" stroke-width=""3"" fill = ""none"" />
    
    </svg>
    </div>
        ","","","","","","","","","","","","","","","","","","","","","","","","","","","","",""
"html-keyboard-response","47","242962","0.0-47.0","null","null","","
    <div style="" display: block;  position: relative;"">
    <svg width=1366 height=768>
    
    <circle cx=620 cy=384 r=14.415041216250572 stroke=""black"" stroke-width=""1"" fill=""black"" />
    <circle cx=784.95 cy=384 r=20.592916023215103 stroke=""black"" stroke-width=""1.5"" fill=""none"" />
    <circle cx=851.523631955095 cy=384 r=20.592916023215103 stroke=""black"" stroke-width=""1.5"" fill=""none"" />
    <circle cx=784.95 cy=450.5736319550949 r=20.592916023215103 stroke=""black"" stroke-width=""1.5"" fill=""none"" />
    <circle cx=718.3763680449051 cy=384 r=20.592916023215103 stroke=""black"" stroke-width=""1.5"" fill=""none"" />
    <circle cx=784.95 cy=317.4263680449051 r=20.592916023215103 stroke=""black"" stroke-width=""1.5"" fill=""none"" />
    <polygon points = ""784.95,384 790.7426843127504,363.4070839767849 779.1573156872497,363.4070839767849"" stroke=""white"" stroke-width=""3"" fill = ""white"" />
    
    </svg>
    </div>
        ","","","","","","","","","","","","stimulus","","","","","","","","","","","","","","","","",""
"html-keyboard-response","48","243209","0.0-48.0","243.39999961853027","arrowdown","","
    <div style="" display: block;  position: relative;"">
    
    <svg width=1366 height=768>
    <circle cx=620 cy=384 r=14.415041216250572 stroke=""black"" stroke-width=""1"" fill=""black"" />
    <circle cx=851.523631955095 cy=384 r=20.592916023215103 stroke=""none"" stroke-width=""1.5"" fill=""none"" />
    <circle cx=784.95 cy=450.5736319550949 r=20.592916023215103 stroke=""none"" stroke-width=""1.5"" fill=""none"" />
    <circle cx=718.3763680449051 cy=384 r=20.592916023215103 stroke=""none"" stroke-width=""1.5"" fill=""none"" />
    <circle cx=784.95 cy=317.4263680449051 r=20.592916023215103 stroke=""none"" stroke-width=""1.5"" fill=""none"" />
    <polygon points = ""784.95,384 790.7426843127504,363.4070839767849 779.1573156872497,363.4070839767849"" stroke=""none"" stroke-width=""3"" fill = ""none"" />
    
    </svg>
    </div>
        ","","","","","","","","","","","","get_response","false","IYXFFcUomYumms0J","","","false","true","true","164.95","4","621.2760000000001","66.57363195509494","1.61","1","0","","",""
"html-keyboard-response","49","243723","0.0-49.0","null","null","","
    <div style="" display: block;  position: relative;"">
    
    <svg width=1366 height=768>
    <circle cx=620 cy=384 r=14.415041216250572 stroke=""black"" stroke-width=""1"" fill=""black"" />
    <circle cx=851.523631955095 cy=384 r=20.592916023215103 stroke=""none"" stroke-width=""1.5"" fill=""none"" />
    <circle cx=784.95 cy=450.5736319550949 r=20.592916023215103 stroke=""none"" stroke-width=""1.5"" fill=""none"" />
    <circle cx=718.3763680449051 cy=384 r=20.592916023215103 stroke=""none"" stroke-width=""1.5"" fill=""none"" />
    <circle cx=784.95 cy=317.4263680449051 r=20.592916023215103 stroke=""none"" stroke-width=""1.5"" fill=""none"" />
    <polygon points = ""784.95,384 790.7426843127504,363.4070839767849 779.1573156872497,363.4070839767849"" stroke=""none"" stroke-width=""3"" fill = ""none"" />
    
    </svg>
    </div>
        ","","","","","","","","","","","","","","","","","","","","","","","","","","","","",""
"html-keyboard-response","50","243878","0.0-50.0","null","null","","
    <div style="" display: block;  position: relative;"">
    <svg width=1366 height=768>
    
    <circle cx=620 cy=384 r=14.415041216250572 stroke=""black"" stroke-width=""1"" fill=""black"" />
    <circle cx=784.95 cy=384 r=20.592916023215103 stroke=""black"" stroke-width=""1.5"" fill=""none"" />
    <circle cx=871.4957215416234 cy=384 r=20.592916023215103 stroke=""black"" stroke-width=""1.5"" fill=""none"" />
    <circle cx=784.95 cy=470.54572154162344 r=20.592916023215103 stroke=""black"" stroke-width=""1.5"" fill=""none"" />
    <circle cx=698.4042784583767 cy=384 r=20.592916023215103 stroke=""black"" stroke-width=""1.5"" fill=""none"" />
    <circle cx=784.95 cy=297.45427845837656 r=20.592916023215103 stroke=""black"" stroke-width=""1.5"" fill=""none"" />
    <polygon points = ""784.95,384 790.7426843127504,404.5929160232151 779.1573156872497,404.5929160232151"" stroke=""white"" stroke-width=""3"" fill = ""white"" />
    
    </svg>
    </div>
        ","","","","","","","","","","","","stimulus","","","","","","","","","","","","","","","","",""
"html-keyboard-response","51","244328","0.0-51.0","445.59999990463257","arrowdown","","
    <div style="" display: block;  position: relative;"">
    
    <svg width=1366 height=768>
    <circle cx=620 cy=384 r=14.415041216250572 stroke=""black"" stroke-width=""1"" fill=""black"" />
    <circle cx=871.4957215416234 cy=384 r=20.592916023215103 stroke=""none"" stroke-width=""1.5"" fill=""none"" />
    <circle cx=784.95 cy=470.54572154162344 r=20.592916023215103 stroke=""none"" stroke-width=""1.5"" fill=""none"" />
    <circle cx=698.4042784583767 cy=384 r=20.592916023215103 stroke=""none"" stroke-width=""1.5"" fill=""none"" />
    <circle cx=784.95 cy=297.45427845837656 r=20.592916023215103 stroke=""none"" stroke-width=""1.5"" fill=""none"" />
    <polygon points = ""784.95,384 790.7426843127504,404.5929160232151 779.1573156872497,404.5929160232151"" stroke=""none"" stroke-width=""3"" fill = ""none"" />
    
    </svg>
    </div>
        ","","","","","","","","","","","","get_response","true","IYXFFcUomYumms0J","","","false","false","true","164.95","4","621.2760000000001","86.54572154162342","2.1","1","0","","",""
"html-keyboard-response","52","244838","0.0-52.0","null","null","","
    <div style="" display: block;  position: relative;"">
    
    <svg width=1366 height=768>
    <circle cx=620 cy=384 r=14.415041216250572 stroke=""black"" stroke-width=""1"" fill=""black"" />
    <circle cx=871.4957215416234 cy=384 r=20.592916023215103 stroke=""none"" stroke-width=""1.5"" fill=""none"" />
    <circle cx=784.95 cy=470.54572154162344 r=20.592916023215103 stroke=""none"" stroke-width=""1.5"" fill=""none"" />
    <circle cx=698.4042784583767 cy=384 r=20.592916023215103 stroke=""none"" stroke-width=""1.5"" fill=""none"" />
    <circle cx=784.95 cy=297.45427845837656 r=20.592916023215103 stroke=""none"" stroke-width=""1.5"" fill=""none"" />
    <polygon points = ""784.95,384 790.7426843127504,404.5929160232151 779.1573156872497,404.5929160232151"" stroke=""none"" stroke-width=""3"" fill = ""none"" />
    
    </svg>
    </div>
        ","","","","","","","","","","","","","","","","","","","","","","","","","","","","",""
"html-keyboard-response","53","244998","0.0-53.0","null","null","","
    <div style="" display: block;  position: relative;"">
    <svg width=1366 height=768>
    
    <circle cx=620 cy=384 r=14.415041216250572 stroke=""black"" stroke-width=""1"" fill=""black"" />
    <circle cx=455.05 cy=384 r=20.592916023215103 stroke=""black"" stroke-width=""1.5"" fill=""none"" />
    <circle cx=541.5957215416234 cy=384 r=20.592916023215103 stroke=""black"" stroke-width=""1.5"" fill=""none"" />
    <circle cx=455.05 cy=470.54572154162344 r=20.592916023215103 stroke=""black"" stroke-width=""1.5"" fill=""none"" />
    <circle cx=368.5042784583766 cy=384 r=20.592916023215103 stroke=""black"" stroke-width=""1.5"" fill=""none"" />
    <circle cx=455.05 cy=297.45427845837656 r=20.592916023215103 stroke=""black"" stroke-width=""1.5"" fill=""none"" />
    <polygon points = ""455.05,384 460.8426843127503,404.5929160232151 449.25731568724973,404.5929160232151"" stroke=""white"" stroke-width=""3"" fill = ""white"" />
    
    </svg>
    </div>
        ","","","","","","","","","","","","stimulus","","","","","","","","","","","","","","","","",""
"html-keyboard-response","54","245397","0.0-54.0","397.40000009536743","arrowdown","","
    <div style="" display: block;  position: relative;"">
    
    <svg width=1366 height=768>
    <circle cx=620 cy=384 r=14.415041216250572 stroke=""black"" stroke-width=""1"" fill=""black"" />
    <circle cx=541.5957215416234 cy=384 r=20.592916023215103 stroke=""none"" stroke-width=""1.5"" fill=""none"" />
    <circle cx=455.05 cy=470.54572154162344 r=20.592916023215103 stroke=""none"" stroke-width=""1.5"" fill=""none"" />
    <circle cx=368.5042784583766 cy=384 r=20.592916023215103 stroke=""none"" stroke-width=""1.5"" fill=""none"" />
    <circle cx=455.05 cy=297.45427845837656 r=20.592916023215103 stroke=""none"" stroke-width=""1.5"" fill=""none"" />
    <polygon points = ""455.05,384 460.8426843127503,404.5929160232151 449.25731568724973,404.5929160232151"" stroke=""none"" stroke-width=""3"" fill = ""none"" />
    
    </svg>
    </div>
        ","","","","","","","","","","","","get_response","true","IYXFFcUomYumms0J","","","true","false","true","164.95","4","621.2760000000001","86.54572154162342","2.1","1","0","","",""
"html-keyboard-response","55","245906","0.0-55.0","null","null","","
    <div style="" display: block;  position: relative;"">
    
    <svg width=1366 height=768>
    <circle cx=620 cy=384 r=14.415041216250572 stroke=""black"" stroke-width=""1"" fill=""black"" />
    <circle cx=541.5957215416234 cy=384 r=20.592916023215103 stroke=""none"" stroke-width=""1.5"" fill=""none"" />
    <circle cx=455.05 cy=470.54572154162344 r=20.592916023215103 stroke=""none"" stroke-width=""1.5"" fill=""none"" />
    <circle cx=368.5042784583766 cy=384 r=20.592916023215103 stroke=""none"" stroke-width=""1.5"" fill=""none"" />
    <circle cx=455.05 cy=297.45427845837656 r=20.592916023215103 stroke=""none"" stroke-width=""1.5"" fill=""none"" />
    <polygon points = ""455.05,384 460.8426843127503,404.5929160232151 449.25731568724973,404.5929160232151"" stroke=""none"" stroke-width=""3"" fill = ""none"" />
    
    </svg>
    </div>
        ","","","","","","","","","","","","","","","","","","","","","","","","","","","","",""
"html-keyboard-response","56","246065","0.0-56.0","null","null","","
    <div style="" display: block;  position: relative;"">
    <svg width=1366 height=768>
    
    <circle cx=620 cy=384 r=14.415041216250572 stroke=""black"" stroke-width=""1"" fill=""black"" />
    <circle cx=455.05 cy=384 r=20.592916023215103 stroke=""black"" stroke-width=""1.5"" fill=""none"" />
    <circle cx=541.5957215416234 cy=384 r=20.592916023215103 stroke=""black"" stroke-width=""1.5"" fill=""none"" />
    <circle cx=455.05 cy=470.54572154162344 r=20.592916023215103 stroke=""black"" stroke-width=""1.5"" fill=""none"" />
    <circle cx=368.5042784583766 cy=384 r=20.592916023215103 stroke=""black"" stroke-width=""1.5"" fill=""none"" />
    <circle cx=455.05 cy=297.45427845837656 r=20.592916023215103 stroke=""black"" stroke-width=""1.5"" fill=""none"" />
    <polygon points = ""455.05,384 460.8426843127503,363.4070839767849 449.25731568724973,363.4070839767849"" stroke=""white"" stroke-width=""3"" fill = ""white"" />
    
    </svg>
    </div>
        ","","","","","","","","","","","","stimulus","","","","","","","","","","","","","","","","",""
"html-keyboard-response","57","246447","0.0-57.0","378.6000003814697","arrowdown","","
    <div style="" display: block;  position: relative;"">
    
    <svg width=1366 height=768>
    <circle cx=620 cy=384 r=14.415041216250572 stroke=""black"" stroke-width=""1"" fill=""black"" />
    <circle cx=541.5957215416234 cy=384 r=20.592916023215103 stroke=""none"" stroke-width=""1.5"" fill=""none"" />
    <circle cx=455.05 cy=470.54572154162344 r=20.592916023215103 stroke=""none"" stroke-width=""1.5"" fill=""none"" />
    <circle cx=368.5042784583766 cy=384 r=20.592916023215103 stroke=""none"" stroke-width=""1.5"" fill=""none"" />
    <circle cx=455.05 cy=297.45427845837656 r=20.592916023215103 stroke=""none"" stroke-width=""1.5"" fill=""none"" />
    <polygon points = ""455.05,384 460.8426843127503,363.4070839767849 449.25731568724973,363.4070839767849"" stroke=""none"" stroke-width=""3"" fill = ""none"" />
    
    </svg>
    </div>
        ","","","","","","","","","","","","get_response","false","IYXFFcUomYumms0J","","","true","true","true","164.95","4","621.2760000000001","86.54572154162342","2.1","1","0","","",""
"html-keyboard-response","58","246955","0.0-58.0","null","null","","
    <div style="" display: block;  position: relative;"">
    
    <svg width=1366 height=768>
    <circle cx=620 cy=384 r=14.415041216250572 stroke=""black"" stroke-width=""1"" fill=""black"" />
    <circle cx=541.5957215416234 cy=384 r=20.592916023215103 stroke=""none"" stroke-width=""1.5"" fill=""none"" />
    <circle cx=455.05 cy=470.54572154162344 r=20.592916023215103 stroke=""none"" stroke-width=""1.5"" fill=""none"" />
    <circle cx=368.5042784583766 cy=384 r=20.592916023215103 stroke=""none"" stroke-width=""1.5"" fill=""none"" />
    <circle cx=455.05 cy=297.45427845837656 r=20.592916023215103 stroke=""none"" stroke-width=""1.5"" fill=""none"" />
    <polygon points = ""455.05,384 460.8426843127503,363.4070839767849 449.25731568724973,363.4070839767849"" stroke=""none"" stroke-width=""3"" fill = ""none"" />
    
    </svg>
    </div>
        ","","","","","","","","","","","","","","","","","","","","","","","","","","","","",""
"html-keyboard-response","59","247111","0.0-59.0","null","null","","
    <div style="" display: block;  position: relative;"">
    <svg width=1366 height=768>
    
    <circle cx=620 cy=384 r=14.415041216250572 stroke=""black"" stroke-width=""1"" fill=""black"" />
    <circle cx=784.95 cy=384 r=20.592916023215103 stroke=""black"" stroke-width=""1.5"" fill=""none"" />
    <circle cx=897.4594380041106 cy=384 r=20.592916023215103 stroke=""black"" stroke-width=""1.5"" fill=""none"" />
    <circle cx=784.95 cy=496.50943800411045 r=20.592916023215103 stroke=""black"" stroke-width=""1.5"" fill=""none"" />
    <circle cx=672.4405619958895 cy=384 r=20.592916023215103 stroke=""black"" stroke-width=""1.5"" fill=""none"" />
    <circle cx=784.95 cy=271.49056199588955 r=20.592916023215103 stroke=""black"" stroke-width=""1.5"" fill=""none"" />
    <polygon points = ""784.95,384 790.7426843127504,363.4070839767849 779.1573156872497,363.4070839767849"" stroke=""white"" stroke-width=""3"" fill = ""white"" />
    
    </svg>
    </div>
        ","","","","","","","","","","","","stimulus","","","","","","","","","","","","","","","","",""
"html-keyboard-response","60","247419","0.0-60.0","303.69999980926514","arrowup","","
    <div style="" display: block;  position: relative;"">
    
    <svg width=1366 height=768>
    <circle cx=620 cy=384 r=14.415041216250572 stroke=""black"" stroke-width=""1"" fill=""black"" />
    <circle cx=897.4594380041106 cy=384 r=20.592916023215103 stroke=""none"" stroke-width=""1.5"" fill=""none"" />
    <circle cx=784.95 cy=496.50943800411045 r=20.592916023215103 stroke=""none"" stroke-width=""1.5"" fill=""none"" />
    <circle cx=672.4405619958895 cy=384 r=20.592916023215103 stroke=""none"" stroke-width=""1.5"" fill=""none"" />
    <circle cx=784.95 cy=271.49056199588955 r=20.592916023215103 stroke=""none"" stroke-width=""1.5"" fill=""none"" />
    <polygon points = ""784.95,384 790.7426843127504,363.4070839767849 779.1573156872497,363.4070839767849"" stroke=""none"" stroke-width=""3"" fill = ""none"" />
    
    </svg>
    </div>
        ","","","","","","","","","","","","get_response","true","IYXFFcUomYumms0J","","","false","true","true","164.95","4","621.2760000000001","112.50943800411045","2.73","1","0","","",""
"html-keyboard-response","61","247937","0.0-61.0","null","null","","
    <div style="" display: block;  position: relative;"">
    
    <svg width=1366 height=768>
    <circle cx=620 cy=384 r=14.415041216250572 stroke=""black"" stroke-width=""1"" fill=""black"" />
    <circle cx=897.4594380041106 cy=384 r=20.592916023215103 stroke=""none"" stroke-width=""1.5"" fill=""none"" />
    <circle cx=784.95 cy=496.50943800411045 r=20.592916023215103 stroke=""none"" stroke-width=""1.5"" fill=""none"" />
    <circle cx=672.4405619958895 cy=384 r=20.592916023215103 stroke=""none"" stroke-width=""1.5"" fill=""none"" />
    <circle cx=784.95 cy=271.49056199588955 r=20.592916023215103 stroke=""none"" stroke-width=""1.5"" fill=""none"" />
    <polygon points = ""784.95,384 790.7426843127504,363.4070839767849 779.1573156872497,363.4070839767849"" stroke=""none"" stroke-width=""3"" fill = ""none"" />
    
    </svg>
    </div>
        ","","","","","","","","","","","","","","","","","","","","","","","","","","","","",""
"html-keyboard-response","62","248095","0.0-62.0","null","null","","
    <div style="" display: block;  position: relative;"">
    <svg width=1366 height=768>
    
    <circle cx=620 cy=384 r=14.415041216250572 stroke=""black"" stroke-width=""1"" fill=""black"" />
    <circle cx=784.95 cy=384 r=20.592916023215103 stroke=""black"" stroke-width=""1.5"" fill=""none"" />
    <circle cx=897.4594380041106 cy=384 r=20.592916023215103 stroke=""black"" stroke-width=""1.5"" fill=""none"" />
    <circle cx=784.95 cy=496.50943800411045 r=20.592916023215103 stroke=""black"" stroke-width=""1.5"" fill=""none"" />
    <circle cx=672.4405619958895 cy=384 r=20.592916023215103 stroke=""black"" stroke-width=""1.5"" fill=""none"" />
    <circle cx=784.95 cy=271.49056199588955 r=20.592916023215103 stroke=""black"" stroke-width=""1.5"" fill=""none"" />
    <polygon points = ""784.95,384 790.7426843127504,404.5929160232151 779.1573156872497,404.5929160232151"" stroke=""white"" stroke-width=""3"" fill = ""white"" />
    
    </svg>
    </div>
        ","","","","","","","","","","","","stimulus","","","","","","","","","","","","","","","","",""
"html-keyboard-response","63","248462","0.0-63.0","363.19999980926514","arrowdown","","
    <div style="" display: block;  position: relative;"">
    
    <svg width=1366 height=768>
    <circle cx=620 cy=384 r=14.415041216250572 stroke=""black"" stroke-width=""1"" fill=""black"" />
    <circle cx=897.4594380041106 cy=384 r=20.592916023215103 stroke=""none"" stroke-width=""1.5"" fill=""none"" />
    <circle cx=784.95 cy=496.50943800411045 r=20.592916023215103 stroke=""none"" stroke-width=""1.5"" fill=""none"" />
    <circle cx=672.4405619958895 cy=384 r=20.592916023215103 stroke=""none"" stroke-width=""1.5"" fill=""none"" />
    <circle cx=784.95 cy=271.49056199588955 r=20.592916023215103 stroke=""none"" stroke-width=""1.5"" fill=""none"" />
    <polygon points = ""784.95,384 790.7426843127504,404.5929160232151 779.1573156872497,404.5929160232151"" stroke=""none"" stroke-width=""3"" fill = ""none"" />
    
    </svg>
    </div>
        ","","","","","","","","","","","","get_response","true","IYXFFcUomYumms0J","","","false","false","true","164.95","4","621.2760000000001","112.50943800411045","2.73","1","0","","",""
"html-keyboard-response","64","248972","0.0-64.0","null","null","","
    <div style="" display: block;  position: relative;"">
    
    <svg width=1366 height=768>
    <circle cx=620 cy=384 r=14.415041216250572 stroke=""black"" stroke-width=""1"" fill=""black"" />
    <circle cx=897.4594380041106 cy=384 r=20.592916023215103 stroke=""none"" stroke-width=""1.5"" fill=""none"" />
    <circle cx=784.95 cy=496.50943800411045 r=20.592916023215103 stroke=""none"" stroke-width=""1.5"" fill=""none"" />
    <circle cx=672.4405619958895 cy=384 r=20.592916023215103 stroke=""none"" stroke-width=""1.5"" fill=""none"" />
    <circle cx=784.95 cy=271.49056199588955 r=20.592916023215103 stroke=""none"" stroke-width=""1.5"" fill=""none"" />
    <polygon points = ""784.95,384 790.7426843127504,404.5929160232151 779.1573156872497,404.5929160232151"" stroke=""none"" stroke-width=""3"" fill = ""none"" />
    
    </svg>
    </div>
        ","","","","","","","","","","","","","","","","","","","","","","","","","","","","",""
"html-keyboard-response","65","249130","0.0-65.0","null","null","","
    <div style="" display: block;  position: relative;"">
    <svg width=1366 height=768>
    
    <circle cx=620 cy=384 r=14.415041216250572 stroke=""black"" stroke-width=""1"" fill=""black"" />
    <circle cx=455.05 cy=384 r=20.592916023215103 stroke=""black"" stroke-width=""1.5"" fill=""none"" />
    <circle cx=567.5594380041105 cy=384 r=20.592916023215103 stroke=""black"" stroke-width=""1.5"" fill=""none"" />
    <circle cx=455.05 cy=496.50943800411045 r=20.592916023215103 stroke=""black"" stroke-width=""1.5"" fill=""none"" />
    <circle cx=342.54056199588956 cy=384 r=20.592916023215103 stroke=""black"" stroke-width=""1.5"" fill=""none"" />
    <circle cx=455.05 cy=271.49056199588955 r=20.592916023215103 stroke=""black"" stroke-width=""1.5"" fill=""none"" />
    <polygon points = ""455.05,384 460.8426843127503,363.4070839767849 449.25731568724973,363.4070839767849"" stroke=""white"" stroke-width=""3"" fill = ""white"" />
    
    </svg>
    </div>
        ","","","","","","","","","","","","stimulus","","","","","","","","","","","","","","","","",""
"html-keyboard-response","66","249428","0.0-66.0","291.80000019073486","arrowup","","
    <div style="" display: block;  position: relative;"">
    
    <svg width=1366 height=768>
    <circle cx=620 cy=384 r=14.415041216250572 stroke=""black"" stroke-width=""1"" fill=""black"" />
    <circle cx=567.5594380041105 cy=384 r=20.592916023215103 stroke=""none"" stroke-width=""1.5"" fill=""none"" />
    <circle cx=455.05 cy=496.50943800411045 r=20.592916023215103 stroke=""none"" stroke-width=""1.5"" fill=""none"" />
    <circle cx=342.54056199588956 cy=384 r=20.592916023215103 stroke=""none"" stroke-width=""1.5"" fill=""none"" />
    <circle cx=455.05 cy=271.49056199588955 r=20.592916023215103 stroke=""none"" stroke-width=""1.5"" fill=""none"" />
    <polygon points = ""455.05,384 460.8426843127503,363.4070839767849 449.25731568724973,363.4070839767849"" stroke=""none"" stroke-width=""3"" fill = ""none"" />
    
    </svg>
    </div>
        ","","","","","","","","","","","","get_response","true","IYXFFcUomYumms0J","","","true","true","true","164.95","4","621.2760000000001","112.50943800411045","2.73","1","0","","",""
"html-keyboard-response","67","249938","0.0-67.0","null","null","","
    <div style="" display: block;  position: relative;"">
    
    <svg width=1366 height=768>
    <circle cx=620 cy=384 r=14.415041216250572 stroke=""black"" stroke-width=""1"" fill=""black"" />
    <circle cx=567.5594380041105 cy=384 r=20.592916023215103 stroke=""none"" stroke-width=""1.5"" fill=""none"" />
    <circle cx=455.05 cy=496.50943800411045 r=20.592916023215103 stroke=""none"" stroke-width=""1.5"" fill=""none"" />
    <circle cx=342.54056199588956 cy=384 r=20.592916023215103 stroke=""none"" stroke-width=""1.5"" fill=""none"" />
    <circle cx=455.05 cy=271.49056199588955 r=20.592916023215103 stroke=""none"" stroke-width=""1.5"" fill=""none"" />
    <polygon points = ""455.05,384 460.8426843127503,363.4070839767849 449.25731568724973,363.4070839767849"" stroke=""none"" stroke-width=""3"" fill = ""none"" />
    
    </svg>
    </div>
        ","","","","","","","","","","","","","","","","","","","","","","","","","","","","",""
"html-keyboard-response","68","250095","0.0-68.0","null","null","","
    <div style="" display: block;  position: relative;"">
    <svg width=1366 height=768>
    
    <circle cx=620 cy=384 r=14.415041216250572 stroke=""black"" stroke-width=""1"" fill=""black"" />
    <circle cx=784.95 cy=384 r=20.592916023215103 stroke=""black"" stroke-width=""1.5"" fill=""none"" />
    <circle cx=887.2313072764641 cy=384 r=20.592916023215103 stroke=""black"" stroke-width=""1.5"" fill=""none"" />
    <circle cx=784.95 cy=486.281307276464 r=20.592916023215103 stroke=""black"" stroke-width=""1.5"" fill=""none"" />
    <circle cx=682.668692723536 cy=384 r=20.592916023215103 stroke=""black"" stroke-width=""1.5"" fill=""none"" />
    <circle cx=784.95 cy=281.718692723536 r=20.592916023215103 stroke=""black"" stroke-width=""1.5"" fill=""none"" />
    <polygon points = ""784.95,384 790.7426843127504,404.5929160232151 779.1573156872497,404.5929160232151"" stroke=""white"" stroke-width=""3"" fill = ""white"" />
    
    </svg>
    </div>
        ","","","","","","","","","","","","stimulus","","","","","","","","","","","","","","","","",""
"html-keyboard-response","69","250305","0.0-69.0","205.7000002861023","arrowdown","","
    <div style="" display: block;  position: relative;"">
    
    <svg width=1366 height=768>
    <circle cx=620 cy=384 r=14.415041216250572 stroke=""black"" stroke-width=""1"" fill=""black"" />
    <circle cx=887.2313072764641 cy=384 r=20.592916023215103 stroke=""none"" stroke-width=""1.5"" fill=""none"" />
    <circle cx=784.95 cy=486.281307276464 r=20.592916023215103 stroke=""none"" stroke-width=""1.5"" fill=""none"" />
    <circle cx=682.668692723536 cy=384 r=20.592916023215103 stroke=""none"" stroke-width=""1.5"" fill=""none"" />
    <circle cx=784.95 cy=281.718692723536 r=20.592916023215103 stroke=""none"" stroke-width=""1.5"" fill=""none"" />
    <polygon points = ""784.95,384 790.7426843127504,404.5929160232151 779.1573156872497,404.5929160232151"" stroke=""none"" stroke-width=""3"" fill = ""none"" />
    
    </svg>
    </div>
        ","","","","","","","","","","","","get_response","true","IYXFFcUomYumms0J","","","false","false","true","164.95","4","621.2760000000001","102.28130727646403","2.48","1","0","","",""
"html-keyboard-response","70","250822","0.0-70.0","null","null","","
    <div style="" display: block;  position: relative;"">
    
    <svg width=1366 height=768>
    <circle cx=620 cy=384 r=14.415041216250572 stroke=""black"" stroke-width=""1"" fill=""black"" />
    <circle cx=887.2313072764641 cy=384 r=20.592916023215103 stroke=""none"" stroke-width=""1.5"" fill=""none"" />
    <circle cx=784.95 cy=486.281307276464 r=20.592916023215103 stroke=""none"" stroke-width=""1.5"" fill=""none"" />
    <circle cx=682.668692723536 cy=384 r=20.592916023215103 stroke=""none"" stroke-width=""1.5"" fill=""none"" />
    <circle cx=784.95 cy=281.718692723536 r=20.592916023215103 stroke=""none"" stroke-width=""1.5"" fill=""none"" />
    <polygon points = ""784.95,384 790.7426843127504,404.5929160232151 779.1573156872497,404.5929160232151"" stroke=""none"" stroke-width=""3"" fill = ""none"" />
    
    </svg>
    </div>
        ","","","","","","","","","","","","","","","","","","","","","","","","","","","","",""
"html-keyboard-response","71","250987","0.0-71.0","null","null","","
    <div style="" display: block;  position: relative;"">
    <svg width=1366 height=768>
    
    <circle cx=620 cy=384 r=14.415041216250572 stroke=""black"" stroke-width=""1"" fill=""black"" />
    <circle cx=455.05 cy=384 r=20.592916023215103 stroke=""black"" stroke-width=""1.5"" fill=""none"" />
    <circle cx=548.0330066149673 cy=384 r=20.592916023215103 stroke=""black"" stroke-width=""1.5"" fill=""none"" />
    <circle cx=455.05 cy=476.9830066149673 r=20.592916023215103 stroke=""black"" stroke-width=""1.5"" fill=""none"" />
    <circle cx=362.06699338503273 cy=384 r=20.592916023215103 stroke=""black"" stroke-width=""1.5"" fill=""none"" />
    <circle cx=455.05 cy=291.0169933850327 r=20.592916023215103 stroke=""black"" stroke-width=""1.5"" fill=""none"" />
    <polygon points = ""455.05,384 460.8426843127503,404.5929160232151 449.25731568724973,404.5929160232151"" stroke=""white"" stroke-width=""3"" fill = ""white"" />
    
    </svg>
    </div>
        ","","","","","","","","","","","","stimulus","","","","","","","","","","","","","","","","",""
"html-keyboard-response","72","251131","0.0-72.0","142","arrowup","","
    <div style="" display: block;  position: relative;"">
    
    <svg width=1366 height=768>
    <circle cx=620 cy=384 r=14.415041216250572 stroke=""black"" stroke-width=""1"" fill=""black"" />
    <circle cx=548.0330066149673 cy=384 r=20.592916023215103 stroke=""none"" stroke-width=""1.5"" fill=""none"" />
    <circle cx=455.05 cy=476.9830066149673 r=20.592916023215103 stroke=""none"" stroke-width=""1.5"" fill=""none"" />
    <circle cx=362.06699338503273 cy=384 r=20.592916023215103 stroke=""none"" stroke-width=""1.5"" fill=""none"" />
    <circle cx=455.05 cy=291.0169933850327 r=20.592916023215103 stroke=""none"" stroke-width=""1.5"" fill=""none"" />
    <polygon points = ""455.05,384 460.8426843127503,404.5929160232151 449.25731568724973,404.5929160232151"" stroke=""none"" stroke-width=""3"" fill = ""none"" />
    
    </svg>
    </div>
        ","","","","","","","","","","","","get_response","false","IYXFFcUomYumms0J","","","true","false","true","164.95","4","621.2760000000001","92.9830066149673","2.25","1","0","","",""
"html-keyboard-response","73","251638","0.0-73.0","null","null","","
    <div style="" display: block;  position: relative;"">
    
    <svg width=1366 height=768>
    <circle cx=620 cy=384 r=14.415041216250572 stroke=""black"" stroke-width=""1"" fill=""black"" />
    <circle cx=548.0330066149673 cy=384 r=20.592916023215103 stroke=""none"" stroke-width=""1.5"" fill=""none"" />
    <circle cx=455.05 cy=476.9830066149673 r=20.592916023215103 stroke=""none"" stroke-width=""1.5"" fill=""none"" />
    <circle cx=362.06699338503273 cy=384 r=20.592916023215103 stroke=""none"" stroke-width=""1.5"" fill=""none"" />
    <circle cx=455.05 cy=291.0169933850327 r=20.592916023215103 stroke=""none"" stroke-width=""1.5"" fill=""none"" />
    <polygon points = ""455.05,384 460.8426843127503,404.5929160232151 449.25731568724973,404.5929160232151"" stroke=""none"" stroke-width=""3"" fill = ""none"" />
    
    </svg>
    </div>
        ","","","","","","","","","","","","","","","","","","","","","","","","","","","","",""
"html-keyboard-response","74","251793","0.0-74.0","null","null","","
    <div style="" display: block;  position: relative;"">
    <svg width=1366 height=768>
    
    <circle cx=620 cy=384 r=14.415041216250572 stroke=""black"" stroke-width=""1"" fill=""black"" />
    <circle cx=784.95 cy=384 r=20.592916023215103 stroke=""black"" stroke-width=""1.5"" fill=""none"" />
    <circle cx=905.8279085994575 cy=384 r=20.592916023215103 stroke=""black"" stroke-width=""1.5"" fill=""none"" />
    <circle cx=784.95 cy=504.8779085994575 r=20.592916023215103 stroke=""black"" stroke-width=""1.5"" fill=""none"" />
    <circle cx=664.0720914005426 cy=384 r=20.592916023215103 stroke=""black"" stroke-width=""1.5"" fill=""none"" />
    <circle cx=784.95 cy=263.1220914005425 r=20.592916023215103 stroke=""black"" stroke-width=""1.5"" fill=""none"" />
    <polygon points = ""784.95,384 790.7426843127504,363.4070839767849 779.1573156872497,363.4070839767849"" stroke=""white"" stroke-width=""3"" fill = ""white"" />
    
    </svg>
    </div>
        ","","","","","","","","","","","","stimulus","","","","","","","","","","","","","","","","",""
"html-keyboard-response","75","252174","0.0-75.0","378.69999980926514","arrowup","","
    <div style="" display: block;  position: relative;"">
    
    <svg width=1366 height=768>
    <circle cx=620 cy=384 r=14.415041216250572 stroke=""black"" stroke-width=""1"" fill=""black"" />
    <circle cx=905.8279085994575 cy=384 r=20.592916023215103 stroke=""none"" stroke-width=""1.5"" fill=""none"" />
    <circle cx=784.95 cy=504.8779085994575 r=20.592916023215103 stroke=""none"" stroke-width=""1.5"" fill=""none"" />
    <circle cx=664.0720914005426 cy=384 r=20.592916023215103 stroke=""none"" stroke-width=""1.5"" fill=""none"" />
    <circle cx=784.95 cy=263.1220914005425 r=20.592916023215103 stroke=""none"" stroke-width=""1.5"" fill=""none"" />
    <polygon points = ""784.95,384 790.7426843127504,363.4070839767849 779.1573156872497,363.4070839767849"" stroke=""none"" stroke-width=""3"" fill = ""none"" />
    
    </svg>
    </div>
        ","","","","","","","","","","","","get_response","true","IYXFFcUomYumms0J","","","false","true","true","164.95","4","621.2760000000001","120.87790859945748","2.93","1","0","","",""
"html-keyboard-response","76","252682","0.0-76.0","null","null","","
    <div style="" display: block;  position: relative;"">
    
    <svg width=1366 height=768>
    <circle cx=620 cy=384 r=14.415041216250572 stroke=""black"" stroke-width=""1"" fill=""black"" />
    <circle cx=905.8279085994575 cy=384 r=20.592916023215103 stroke=""none"" stroke-width=""1.5"" fill=""none"" />
    <circle cx=784.95 cy=504.8779085994575 r=20.592916023215103 stroke=""none"" stroke-width=""1.5"" fill=""none"" />
    <circle cx=664.0720914005426 cy=384 r=20.592916023215103 stroke=""none"" stroke-width=""1.5"" fill=""none"" />
    <circle cx=784.95 cy=263.1220914005425 r=20.592916023215103 stroke=""none"" stroke-width=""1.5"" fill=""none"" />
    <polygon points = ""784.95,384 790.7426843127504,363.4070839767849 779.1573156872497,363.4070839767849"" stroke=""none"" stroke-width=""3"" fill = ""none"" />
    
    </svg>
    </div>
        ","","","","","","","","","","","","","","","","","","","","","","","","","","","","",""
"html-keyboard-response","77","252846","0.0-77.0","null","null","","
    <div style="" display: block;  position: relative;"">
    <svg width=1366 height=768>
    
    <circle cx=620 cy=384 r=14.415041216250572 stroke=""black"" stroke-width=""1"" fill=""black"" />
    <circle cx=455.05 cy=384 r=20.592916023215103 stroke=""black"" stroke-width=""1.5"" fill=""none"" />
    <circle cx=575.9279085994575 cy=384 r=20.592916023215103 stroke=""black"" stroke-width=""1.5"" fill=""none"" />
    <circle cx=455.05 cy=504.8779085994575 r=20.592916023215103 stroke=""black"" stroke-width=""1.5"" fill=""none"" />
    <circle cx=334.1720914005425 cy=384 r=20.592916023215103 stroke=""black"" stroke-width=""1.5"" fill=""none"" />
    <circle cx=455.05 cy=263.1220914005425 r=20.592916023215103 stroke=""black"" stroke-width=""1.5"" fill=""none"" />
    <polygon points = ""455.05,384 460.8426843127503,404.5929160232151 449.25731568724973,404.5929160232151"" stroke=""white"" stroke-width=""3"" fill = ""white"" />
    
    </svg>
    </div>
        ","","","","","","","","","","","","stimulus","","","","","","","","","","","","","","","","",""
"html-keyboard-response","78","253158","0.0-78.0","309.40000009536743","arrowdown","","
    <div style="" display: block;  position: relative;"">
    
    <svg width=1366 height=768>
    <circle cx=620 cy=384 r=14.415041216250572 stroke=""black"" stroke-width=""1"" fill=""black"" />
    <circle cx=575.9279085994575 cy=384 r=20.592916023215103 stroke=""none"" stroke-width=""1.5"" fill=""none"" />
    <circle cx=455.05 cy=504.8779085994575 r=20.592916023215103 stroke=""none"" stroke-width=""1.5"" fill=""none"" />
    <circle cx=334.1720914005425 cy=384 r=20.592916023215103 stroke=""none"" stroke-width=""1.5"" fill=""none"" />
    <circle cx=455.05 cy=263.1220914005425 r=20.592916023215103 stroke=""none"" stroke-width=""1.5"" fill=""none"" />
    <polygon points = ""455.05,384 460.8426843127503,404.5929160232151 449.25731568724973,404.5929160232151"" stroke=""none"" stroke-width=""3"" fill = ""none"" />
    
    </svg>
    </div>
        ","","","","","","","","","","","","get_response","true","IYXFFcUomYumms0J","","","true","false","true","164.95","4","621.2760000000001","120.87790859945748","2.93","1","0","","",""
"html-keyboard-response","79","253673","0.0-79.0","null","null","","
    <div style="" display: block;  position: relative;"">
    
    <svg width=1366 height=768>
    <circle cx=620 cy=384 r=14.415041216250572 stroke=""black"" stroke-width=""1"" fill=""black"" />
    <circle cx=575.9279085994575 cy=384 r=20.592916023215103 stroke=""none"" stroke-width=""1.5"" fill=""none"" />
    <circle cx=455.05 cy=504.8779085994575 r=20.592916023215103 stroke=""none"" stroke-width=""1.5"" fill=""none"" />
    <circle cx=334.1720914005425 cy=384 r=20.592916023215103 stroke=""none"" stroke-width=""1.5"" fill=""none"" />
    <circle cx=455.05 cy=263.1220914005425 r=20.592916023215103 stroke=""none"" stroke-width=""1.5"" fill=""none"" />
    <polygon points = ""455.05,384 460.8426843127503,404.5929160232151 449.25731568724973,404.5929160232151"" stroke=""none"" stroke-width=""3"" fill = ""none"" />
    
    </svg>
    </div>
        ","","","","","","","","","","","","","","","","","","","","","","","","","","","","",""
"html-keyboard-response","80","253832","0.0-80.0","null","null","","
    <div style="" display: block;  position: relative;"">
    <svg width=1366 height=768>
    
    <circle cx=620 cy=384 r=14.415041216250572 stroke=""black"" stroke-width=""1"" fill=""black"" />
    <circle cx=455.05 cy=384 r=20.592916023215103 stroke=""black"" stroke-width=""1.5"" fill=""none"" />
    <circle cx=575.9279085994575 cy=384 r=20.592916023215103 stroke=""black"" stroke-width=""1.5"" fill=""none"" />
    <circle cx=455.05 cy=504.8779085994575 r=20.592916023215103 stroke=""black"" stroke-width=""1.5"" fill=""none"" />
    <circle cx=334.1720914005425 cy=384 r=20.592916023215103 stroke=""black"" stroke-width=""1.5"" fill=""none"" />
    <circle cx=455.05 cy=263.1220914005425 r=20.592916023215103 stroke=""black"" stroke-width=""1.5"" fill=""none"" />
    <polygon points = ""455.05,384 460.8426843127503,404.5929160232151 449.25731568724973,404.5929160232151"" stroke=""white"" stroke-width=""3"" fill = ""white"" />
    
    </svg>
    </div>
        ","","","","","","","","","","","","stimulus","","","","","","","","","","","","","","","","",""
"html-keyboard-response","81","254295","0.0-81.0","460.6000003814697","arrowdown","","
    <div style="" display: block;  position: relative;"">
    
    <svg width=1366 height=768>
    <circle cx=620 cy=384 r=14.415041216250572 stroke=""black"" stroke-width=""1"" fill=""black"" />
    <circle cx=575.9279085994575 cy=384 r=20.592916023215103 stroke=""none"" stroke-width=""1.5"" fill=""none"" />
    <circle cx=455.05 cy=504.8779085994575 r=20.592916023215103 stroke=""none"" stroke-width=""1.5"" fill=""none"" />
    <circle cx=334.1720914005425 cy=384 r=20.592916023215103 stroke=""none"" stroke-width=""1.5"" fill=""none"" />
    <circle cx=455.05 cy=263.1220914005425 r=20.592916023215103 stroke=""none"" stroke-width=""1.5"" fill=""none"" />
    <polygon points = ""455.05,384 460.8426843127503,404.5929160232151 449.25731568724973,404.5929160232151"" stroke=""none"" stroke-width=""3"" fill = ""none"" />
    
    </svg>
    </div>
        ","","","","","","","","","","","","get_response","true","IYXFFcUomYumms0J","","","true","false","true","164.95","4","621.2760000000001","120.87790859945748","2.93","1","0","","",""
"html-keyboard-response","82","254805","0.0-82.0","null","null","","
    <div style="" display: block;  position: relative;"">
    
    <svg width=1366 height=768>
    <circle cx=620 cy=384 r=14.415041216250572 stroke=""black"" stroke-width=""1"" fill=""black"" />
    <circle cx=575.9279085994575 cy=384 r=20.592916023215103 stroke=""none"" stroke-width=""1.5"" fill=""none"" />
    <circle cx=455.05 cy=504.8779085994575 r=20.592916023215103 stroke=""none"" stroke-width=""1.5"" fill=""none"" />
    <circle cx=334.1720914005425 cy=384 r=20.592916023215103 stroke=""none"" stroke-width=""1.5"" fill=""none"" />
    <circle cx=455.05 cy=263.1220914005425 r=20.592916023215103 stroke=""none"" stroke-width=""1.5"" fill=""none"" />
    <polygon points = ""455.05,384 460.8426843127503,404.5929160232151 449.25731568724973,404.5929160232151"" stroke=""none"" stroke-width=""3"" fill = ""none"" />
    
    </svg>
    </div>
        ","","","","","","","","","","","","","","","","","","","","","","","","","","","","",""
"html-keyboard-response","83","254960","0.0-83.0","null","null","","
    <div style="" display: block;  position: relative;"">
    <svg width=1366 height=768>
    
    <circle cx=620 cy=384 r=14.415041216250572 stroke=""black"" stroke-width=""1"" fill=""black"" />
    <circle cx=784.95 cy=384 r=20.592916023215103 stroke=""black"" stroke-width=""1.5"" fill=""none"" />
    <circle cx=894.8390078176886 cy=384 r=20.592916023215103 stroke=""black"" stroke-width=""1.5"" fill=""none"" />
    <circle cx=784.95 cy=493.8890078176886 r=20.592916023215103 stroke=""black"" stroke-width=""1.5"" fill=""none"" />
    <circle cx=675.0609921823115 cy=384 r=20.592916023215103 stroke=""black"" stroke-width=""1.5"" fill=""none"" />
    <circle cx=784.95 cy=274.1109921823114 r=20.592916023215103 stroke=""black"" stroke-width=""1.5"" fill=""none"" />
    <polygon points = ""784.95,384 790.7426843127504,363.4070839767849 779.1573156872497,363.4070839767849"" stroke=""white"" stroke-width=""3"" fill = ""white"" />
    
    </svg>
    </div>
        ","","","","","","","","","","","","stimulus","","","","","","","","","","","","","","","","",""
"html-keyboard-response","84","255284","0.0-84.0","320.6000003814697","arrowup","","
    <div style="" display: block;  position: relative;"">
    
    <svg width=1366 height=768>
    <circle cx=620 cy=384 r=14.415041216250572 stroke=""black"" stroke-width=""1"" fill=""black"" />
    <circle cx=894.8390078176886 cy=384 r=20.592916023215103 stroke=""none"" stroke-width=""1.5"" fill=""none"" />
    <circle cx=784.95 cy=493.8890078176886 r=20.592916023215103 stroke=""none"" stroke-width=""1.5"" fill=""none"" />
    <circle cx=675.0609921823115 cy=384 r=20.592916023215103 stroke=""none"" stroke-width=""1.5"" fill=""none"" />
    <circle cx=784.95 cy=274.1109921823114 r=20.592916023215103 stroke=""none"" stroke-width=""1.5"" fill=""none"" />
    <polygon points = ""784.95,384 790.7426843127504,363.4070839767849 779.1573156872497,363.4070839767849"" stroke=""none"" stroke-width=""3"" fill = ""none"" />
    
    </svg>
    </div>
        ","","","","","","","","","","","","get_response","true","IYXFFcUomYumms0J","","","false","true","true","164.95","4","621.2760000000001","109.88900781768861","2.66","1","0","","",""
"html-keyboard-response","85","255803","0.0-85.0","null","null","","
    <div style="" display: block;  position: relative;"">
    
    <svg width=1366 height=768>
    <circle cx=620 cy=384 r=14.415041216250572 stroke=""black"" stroke-width=""1"" fill=""black"" />
    <circle cx=894.8390078176886 cy=384 r=20.592916023215103 stroke=""none"" stroke-width=""1.5"" fill=""none"" />
    <circle cx=784.95 cy=493.8890078176886 r=20.592916023215103 stroke=""none"" stroke-width=""1.5"" fill=""none"" />
    <circle cx=675.0609921823115 cy=384 r=20.592916023215103 stroke=""none"" stroke-width=""1.5"" fill=""none"" />
    <circle cx=784.95 cy=274.1109921823114 r=20.592916023215103 stroke=""none"" stroke-width=""1.5"" fill=""none"" />
    <polygon points = ""784.95,384 790.7426843127504,363.4070839767849 779.1573156872497,363.4070839767849"" stroke=""none"" stroke-width=""3"" fill = ""none"" />
    
    </svg>
    </div>
        ","","","","","","","","","","","","","","","","","","","","","","","","","","","","",""
"html-keyboard-response","86","255963","0.0-86.0","null","null","","
    <div style="" display: block;  position: relative;"">
    <svg width=1366 height=768>
    
    <circle cx=620 cy=384 r=14.415041216250572 stroke=""black"" stroke-width=""1"" fill=""black"" />
    <circle cx=784.95 cy=384 r=20.592916023215103 stroke=""black"" stroke-width=""1.5"" fill=""none"" />
    <circle cx=884.8490980160806 cy=384 r=20.592916023215103 stroke=""black"" stroke-width=""1.5"" fill=""none"" />
    <circle cx=784.95 cy=483.89909801608053 r=20.592916023215103 stroke=""black"" stroke-width=""1.5"" fill=""none"" />
    <circle cx=685.0509019839195 cy=384 r=20.592916023215103 stroke=""black"" stroke-width=""1.5"" fill=""none"" />
    <circle cx=784.95 cy=284.10090198391947 r=20.592916023215103 stroke=""black"" stroke-width=""1.5"" fill=""none"" />
    <polygon points = ""784.95,384 790.7426843127504,363.4070839767849 779.1573156872497,363.4070839767849"" stroke=""white"" stroke-width=""3"" fill = ""white"" />
    
    </svg>
    </div>
        ","","","","","","","","","","","","stimulus","","","","","","","","","","","","","","","","",""
"html-keyboard-response","87","256302","0.0-87.0","335.8999996185303","arrowup","","
    <div style="" display: block;  position: relative;"">
    
    <svg width=1366 height=768>
    <circle cx=620 cy=384 r=14.415041216250572 stroke=""black"" stroke-width=""1"" fill=""black"" />
    <circle cx=884.8490980160806 cy=384 r=20.592916023215103 stroke=""none"" stroke-width=""1.5"" fill=""none"" />
    <circle cx=784.95 cy=483.89909801608053 r=20.592916023215103 stroke=""none"" stroke-width=""1.5"" fill=""none"" />
    <circle cx=685.0509019839195 cy=384 r=20.592916023215103 stroke=""none"" stroke-width=""1.5"" fill=""none"" />
    <circle cx=784.95 cy=284.10090198391947 r=20.592916023215103 stroke=""none"" stroke-width=""1.5"" fill=""none"" />
    <polygon points = ""784.95,384 790.7426843127504,363.4070839767849 779.1573156872497,363.4070839767849"" stroke=""none"" stroke-width=""3"" fill = ""none"" />
    
    </svg>
    </div>
        ","","","","","","","","","","","","get_response","true","IYXFFcUomYumms0J","","","false","true","true","164.95","4","621.2760000000001","99.89909801608054","2.42","1","0","","",""
"html-keyboard-response","88","256819","0.0-88.0","null","null","","
    <div style="" display: block;  position: relative;"">
    
    <svg width=1366 height=768>
    <circle cx=620 cy=384 r=14.415041216250572 stroke=""black"" stroke-width=""1"" fill=""black"" />
    <circle cx=884.8490980160806 cy=384 r=20.592916023215103 stroke=""none"" stroke-width=""1.5"" fill=""none"" />
    <circle cx=784.95 cy=483.89909801608053 r=20.592916023215103 stroke=""none"" stroke-width=""1.5"" fill=""none"" />
    <circle cx=685.0509019839195 cy=384 r=20.592916023215103 stroke=""none"" stroke-width=""1.5"" fill=""none"" />
    <circle cx=784.95 cy=284.10090198391947 r=20.592916023215103 stroke=""none"" stroke-width=""1.5"" fill=""none"" />
    <polygon points = ""784.95,384 790.7426843127504,363.4070839767849 779.1573156872497,363.4070839767849"" stroke=""none"" stroke-width=""3"" fill = ""none"" />
    
    </svg>
    </div>
        ","","","","","","","","","","","","","","","","","","","","","","","","","","","","",""
"html-keyboard-response","89","256983","0.0-89.0","null","null","","
    <div style="" display: block;  position: relative;"">
    <svg width=1366 height=768>
    
    <circle cx=620 cy=384 r=14.415041216250572 stroke=""black"" stroke-width=""1"" fill=""black"" />
    <circle cx=784.95 cy=384 r=20.592916023215103 stroke=""black"" stroke-width=""1.5"" fill=""none"" />
    <circle cx=875.7673618328006 cy=384 r=20.592916023215103 stroke=""black"" stroke-width=""1.5"" fill=""none"" />
    <circle cx=784.95 cy=474.8173618328005 r=20.592916023215103 stroke=""black"" stroke-width=""1.5"" fill=""none"" />
    <circle cx=694.1326381671995 cy=384 r=20.592916023215103 stroke=""black"" stroke-width=""1.5"" fill=""none"" />
    <circle cx=784.95 cy=293.1826381671995 r=20.592916023215103 stroke=""black"" stroke-width=""1.5"" fill=""none"" />
    <polygon points = ""784.95,384 790.7426843127504,404.5929160232151 779.1573156872497,404.5929160232151"" stroke=""white"" stroke-width=""3"" fill = ""white"" />
    
    </svg>
    </div>
        ","","","","","","","","","","","","stimulus","","","","","","","","","","","","","","","","",""
"html-keyboard-response","90","257203","0.0-90.0","210.5","arrowup","","
    <div style="" display: block;  position: relative;"">
    
    <svg width=1366 height=768>
    <circle cx=620 cy=384 r=14.415041216250572 stroke=""black"" stroke-width=""1"" fill=""black"" />
    <circle cx=875.7673618328006 cy=384 r=20.592916023215103 stroke=""none"" stroke-width=""1.5"" fill=""none"" />
    <circle cx=784.95 cy=474.8173618328005 r=20.592916023215103 stroke=""none"" stroke-width=""1.5"" fill=""none"" />
    <circle cx=694.1326381671995 cy=384 r=20.592916023215103 stroke=""none"" stroke-width=""1.5"" fill=""none"" />
    <circle cx=784.95 cy=293.1826381671995 r=20.592916023215103 stroke=""none"" stroke-width=""1.5"" fill=""none"" />
    <polygon points = ""784.95,384 790.7426843127504,404.5929160232151 779.1573156872497,404.5929160232151"" stroke=""none"" stroke-width=""3"" fill = ""none"" />
    
    </svg>
    </div>
        ","","","","","","","","","","","","get_response","false","IYXFFcUomYumms0J","","","false","false","true","164.95","4","621.2760000000001","90.81736183280049","2.2","1","0","","",""
"html-keyboard-response","91","257721","0.0-91.0","null","null","","
    <div style="" display: block;  position: relative;"">
    
    <svg width=1366 height=768>
    <circle cx=620 cy=384 r=14.415041216250572 stroke=""black"" stroke-width=""1"" fill=""black"" />
    <circle cx=875.7673618328006 cy=384 r=20.592916023215103 stroke=""none"" stroke-width=""1.5"" fill=""none"" />
    <circle cx=784.95 cy=474.8173618328005 r=20.592916023215103 stroke=""none"" stroke-width=""1.5"" fill=""none"" />
    <circle cx=694.1326381671995 cy=384 r=20.592916023215103 stroke=""none"" stroke-width=""1.5"" fill=""none"" />
    <circle cx=784.95 cy=293.1826381671995 r=20.592916023215103 stroke=""none"" stroke-width=""1.5"" fill=""none"" />
    <polygon points = ""784.95,384 790.7426843127504,404.5929160232151 779.1573156872497,404.5929160232151"" stroke=""none"" stroke-width=""3"" fill = ""none"" />
    
    </svg>
    </div>
        ","","","","","","","","","","","","","","","","","","","","","","","","","","","","",""
"html-keyboard-response","92","257880","0.0-92.0","null","null","","
    <div style="" display: block;  position: relative;"">
    <svg width=1366 height=768>
    
    <circle cx=620 cy=384 r=14.415041216250572 stroke=""black"" stroke-width=""1"" fill=""black"" />
    <circle cx=784.95 cy=384 r=20.592916023215103 stroke=""black"" stroke-width=""1.5"" fill=""none"" />
    <circle cx=903.0125703826407 cy=384 r=20.592916023215103 stroke=""black"" stroke-width=""1.5"" fill=""none"" />
    <circle cx=784.95 cy=502.0625703826406 r=20.592916023215103 stroke=""black"" stroke-width=""1.5"" fill=""none"" />
    <circle cx=666.8874296173594 cy=384 r=20.592916023215103 stroke=""black"" stroke-width=""1.5"" fill=""none"" />
    <circle cx=784.95 cy=265.9374296173594 r=20.592916023215103 stroke=""black"" stroke-width=""1.5"" fill=""none"" />
    <polygon points = ""784.95,384 790.7426843127504,363.4070839767849 779.1573156872497,363.4070839767849"" stroke=""white"" stroke-width=""3"" fill = ""white"" />
    
    </svg>
    </div>
        ","","","","","","","","","","","","stimulus","","","","","","","","","","","","","","","","",""
"html-keyboard-response","93","258305","0.0-93.0","422.30000019073486","arrowup","","
    <div style="" display: block;  position: relative;"">
    
    <svg width=1366 height=768>
    <circle cx=620 cy=384 r=14.415041216250572 stroke=""black"" stroke-width=""1"" fill=""black"" />
    <circle cx=903.0125703826407 cy=384 r=20.592916023215103 stroke=""none"" stroke-width=""1.5"" fill=""none"" />
    <circle cx=784.95 cy=502.0625703826406 r=20.592916023215103 stroke=""none"" stroke-width=""1.5"" fill=""none"" />
    <circle cx=666.8874296173594 cy=384 r=20.592916023215103 stroke=""none"" stroke-width=""1.5"" fill=""none"" />
    <circle cx=784.95 cy=265.9374296173594 r=20.592916023215103 stroke=""none"" stroke-width=""1.5"" fill=""none"" />
    <polygon points = ""784.95,384 790.7426843127504,363.4070839767849 779.1573156872497,363.4070839767849"" stroke=""none"" stroke-width=""3"" fill = ""none"" />
    
    </svg>
    </div>
        ","","","","","","","","","","","","get_response","true","IYXFFcUomYumms0J","","","false","true","true","164.95","4","621.2760000000001","118.06257038264063","2.86","1","0","","",""
"html-keyboard-response","94","258821","0.0-94.0","null","null","","
    <div style="" display: block;  position: relative;"">
    
    <svg width=1366 height=768>
    <circle cx=620 cy=384 r=14.415041216250572 stroke=""black"" stroke-width=""1"" fill=""black"" />
    <circle cx=903.0125703826407 cy=384 r=20.592916023215103 stroke=""none"" stroke-width=""1.5"" fill=""none"" />
    <circle cx=784.95 cy=502.0625703826406 r=20.592916023215103 stroke=""none"" stroke-width=""1.5"" fill=""none"" />
    <circle cx=666.8874296173594 cy=384 r=20.592916023215103 stroke=""none"" stroke-width=""1.5"" fill=""none"" />
    <circle cx=784.95 cy=265.9374296173594 r=20.592916023215103 stroke=""none"" stroke-width=""1.5"" fill=""none"" />
    <polygon points = ""784.95,384 790.7426843127504,363.4070839767849 779.1573156872497,363.4070839767849"" stroke=""none"" stroke-width=""3"" fill = ""none"" />
    
    </svg>
    </div>
        ","","","","","","","","","","","","","","","","","","","","","","","","","","","","",""
"html-keyboard-response","95","258981","0.0-95.0","null","null","","
    <div style="" display: block;  position: relative;"">
    <svg width=1366 height=768>
    
    <circle cx=620 cy=384 r=14.415041216250572 stroke=""black"" stroke-width=""1"" fill=""black"" />
    <circle cx=455.05 cy=384 r=20.592916023215103 stroke=""black"" stroke-width=""1.5"" fill=""none"" />
    <circle cx=573.1125703826407 cy=384 r=20.592916023215103 stroke=""black"" stroke-width=""1.5"" fill=""none"" />
    <circle cx=455.05 cy=502.0625703826406 r=20.592916023215103 stroke=""black"" stroke-width=""1.5"" fill=""none"" />
    <circle cx=336.9874296173594 cy=384 r=20.592916023215103 stroke=""black"" stroke-width=""1.5"" fill=""none"" />
    <circle cx=455.05 cy=265.9374296173594 r=20.592916023215103 stroke=""black"" stroke-width=""1.5"" fill=""none"" />
    <polygon points = ""455.05,384 460.8426843127503,363.4070839767849 449.25731568724973,363.4070839767849"" stroke=""white"" stroke-width=""3"" fill = ""white"" />
    
    </svg>
    </div>
        ","","","","","","","","","","","","stimulus","","","","","","","","","","","","","","","","",""
"html-keyboard-response","96","259385","0.0-96.0","399","arrowup","","
    <div style="" display: block;  position: relative;"">
    
    <svg width=1366 height=768>
    <circle cx=620 cy=384 r=14.415041216250572 stroke=""black"" stroke-width=""1"" fill=""black"" />
    <circle cx=573.1125703826407 cy=384 r=20.592916023215103 stroke=""none"" stroke-width=""1.5"" fill=""none"" />
    <circle cx=455.05 cy=502.0625703826406 r=20.592916023215103 stroke=""none"" stroke-width=""1.5"" fill=""none"" />
    <circle cx=336.9874296173594 cy=384 r=20.592916023215103 stroke=""none"" stroke-width=""1.5"" fill=""none"" />
    <circle cx=455.05 cy=265.9374296173594 r=20.592916023215103 stroke=""none"" stroke-width=""1.5"" fill=""none"" />
    <polygon points = ""455.05,384 460.8426843127503,363.4070839767849 449.25731568724973,363.4070839767849"" stroke=""none"" stroke-width=""3"" fill = ""none"" />
    
    </svg>
    </div>
