"trial_type","trial_index","time_elapsed","internal_node_id","rt","response","success","stimulus","start_time","start_time_unix","item_width_mm","item_height_mm","item_width_px","px2mm","view_dist_mm","item_width_deg","px2deg","win_width_deg","win_height_deg","trialType","correct","participantID","criticalSpacing","criticalSpacing_deg","isLeft","isUp","isEccen4","eccentricity","eccentricity_deg","viewingDistanceMean","critical_spacing","critical_spacing_deg","crowding_session","correctRate","viewDistance_1","viewDistance_2","viewDistance_3"
"pavlovia","0","4","0.0-0.0","","","","","","","","","","","","","","","","","","","","","","","","","","","","","","","","",""
"survey-text","1","7841","0.0-1.0","7816.800000071526","{""Q0"":""""}","","","","","","","","","","","","","","","","","","","","","","","","","","","","","","",""
"fullscreen","2","10868","0.0-2.0","","","true","","","","","","","","","","","","","","","","","","","","","","","","","","","","","",""
"html-keyboard-response","3","13392","0.0-3.0","2521.100000023842"," ","","<h1>Consent Form</h1>
       <p>By answering the following questions, you are participating in a study being performed by cognitive scientists in the Stanford Department of Psychology. If you have questions about this research, please contact us at stanfordpsych251@gmail.com. You must be at least 18 years old to participate. Your participation in this research is voluntary. You may decline to answer any or all of the following questions. You may decline further participation by closing the window, at any time, without adverse consequences. Your anonymity is assured; the researchers who have requested your participation will not receive any personal information about you.</p>
       <p>Press <b>any key</b> to start the experiment!</p>","","","","","","","","","","","","","","","","","","","","","","","","","","","","",""
"html-keyboard-response","4","18849","0.0-4.0","5455"," ","","<h1>Welcome to the Visual Crowding Experiment!</h1>
       <p>This test will take <b>10-12</b> minutes to complete.</p>
       <p>Press any key to start the experiment!</p>","1. 12. 2021 08:19:14","1638343154587","","","","","","","","","","","","","","","","","","","","","","","","","","",""
"html-keyboard-response","5","30858","0.0-5.0","12006.600000023842","arrowdown","","<div> 
<p> Before you begin this study, let&#39;s quickly test how far away you are sitting. You might know that vision tests at a doctor&#39;s practice often involve chinrests, the doctor basically asks you to sit away from a screen in a specific distance. We do this here with a <b>virtual chinrest</b>. </p>
<p> Please press the <b>down</b> arrow to continue.
</p>
</div>","","","","","","","","","","","","","","","","","","","","","","","","","","","","",""
"virtual-chinrest","6","169901","0.0-6.0","139047.19999992847","","","","","","85.6","53.98","389","4.54","519.64","9.417044469645546","41.30807720552708","37.184011067803496","20.916006225639464","","","","","","","","","","","","","","","","","",""
"html-keyboard-response","7","214330","0.0-7.0","44423.299999952316","arrowdown","","
	<h2 class=""bolded-blue"">Now, you will take a peripheral vision test!</h2>
<p> 
	<b>
		<font size=""140%"">1. </font>
	</b>
	<em><b>Please use both eyes for the following task.</b></em> First, you will see a screen (like the one in the image below) showing a <b>black dot</b> in the middle of the screen, with a group of circles displayed on either the <span class=""bolded-blue"">left</span> or <span class=""bolded-blue"">right</span> of the black dot for 150 ms. <span class=""bolded-blue"">Please make sure to focus on the black dot all the time!</span>

	<div>
		<img src=""example.png"" alt=""example"" style=""border: 2px solid black"" width=""600""/> 
	</div>
	
	<b>
		<font size=""140%"">2. </font>
	</b>
	Your task is to identify whether the opening of the <b class=""bolded-blue"">center circle</b> is upward by pressing UP or downward by pressing DOWN on your keyboard. The opening of the circle will only be upward or downward, not towards left or right.

	<div>
		<img src=""arrow_keys+.png"" alt=""arrows"" style=""border: 2px solid black"" width=""600""/>
	</div>
	<br>

<p>Please press the <b>down</b> arrow key to start the <span class=""bolded-blue"">practice task</span> (this first practice task will not count toward your final results).</p>
</p>
","","","","","","","","","","","","","","","","","","","","","","","","","","","","",""
"html-keyboard-response","8","214845","0.0-8.0","null","null","","
    <div style="" display: block;  position: relative;"">
    
    <svg width=1536 height=864>
    <circle cx=705 cy=432 r=14.575531809154635 stroke=""black"" stroke-width=""1"" fill=""black"" />
    <circle cx=NaN cy=432 r=20.822188298792337 stroke=""none"" stroke-width=""1.5"" fill=""none"" />
    <circle cx=538.21 cy=NaN r=20.822188298792337 stroke=""none"" stroke-width=""1.5"" fill=""none"" />
    <circle cx=NaN cy=432 r=20.822188298792337 stroke=""none"" stroke-width=""1.5"" fill=""none"" />
    <circle cx=538.21 cy=NaN r=20.822188298792337 stroke=""none"" stroke-width=""1.5"" fill=""none"" />
    <polygon points = ""538.21,432 544.0671774575088,452.82218829879235 532.3528225424913,452.82218829879235"" stroke=""none"" stroke-width=""3"" fill = ""none"" />
    
    </svg>
    </div>
        ","","","","","","","","","","","","","","","","","","","","","","","","","","","","",""
"html-keyboard-response","9","215010","0.0-9.0","null","null","","
    <div style="" display: block;  position: relative;"">
    <svg width=1536 height=864>
    
    <circle cx=705 cy=432 r=14.575531809154635 stroke=""black"" stroke-width=""1"" fill=""black"" />
    <circle cx=538.21 cy=432 r=20.822188298792337 stroke=""black"" stroke-width=""1.5"" fill=""none"" />
    <circle cx=646.6235 cy=432 r=20.822188298792337 stroke=""black"" stroke-width=""1.5"" fill=""none"" />
    <circle cx=538.21 cy=540.4135 r=20.822188298792337 stroke=""black"" stroke-width=""1.5"" fill=""none"" />
    <circle cx=429.79650000000004 cy=432 r=20.822188298792337 stroke=""black"" stroke-width=""1.5"" fill=""none"" />
    <circle cx=538.21 cy=323.5865 r=20.822188298792337 stroke=""black"" stroke-width=""1.5"" fill=""none"" />
    <polygon points = ""538.21,432 544.0671774575088,452.82218829879235 532.3528225424913,452.82218829879235"" stroke=""white"" stroke-width=""3"" fill = ""white"" />
    
    </svg>
    </div>
        ","","","","","","","","","","","","stimulus","","","","","","","","","","","","","","","","",""
"html-keyboard-response","10","215376","0.0-10.0","363.5","arrowdown","","
    <div style="" display: block;  position: relative;"">
    
    <svg width=1536 height=864>
    <circle cx=705 cy=432 r=14.575531809154635 stroke=""black"" stroke-width=""1"" fill=""black"" />
    <circle cx=646.6235 cy=432 r=20.822188298792337 stroke=""none"" stroke-width=""1.5"" fill=""none"" />
    <circle cx=538.21 cy=540.4135 r=20.822188298792337 stroke=""none"" stroke-width=""1.5"" fill=""none"" />
    <circle cx=429.79650000000004 cy=432 r=20.822188298792337 stroke=""none"" stroke-width=""1.5"" fill=""none"" />
    <circle cx=538.21 cy=323.5865 r=20.822188298792337 stroke=""none"" stroke-width=""1.5"" fill=""none"" />
    <polygon points = ""538.21,432 544.0671774575088,452.82218829879235 532.3528225424913,452.82218829879235"" stroke=""none"" stroke-width=""3"" fill = ""none"" />
    
    </svg>
    </div>
        ","","","","","","","","","","","","practice_get_response","true","FgKp9F75Ace3Znhw","108.4135","2.6","true","false","false","166.79","4","527.184","","","","","","",""
"html-keyboard-response","11","215883","0.0-11.0","null","null","","
    <div style="" display: block;  position: relative;"">
    
    <svg width=1536 height=864>
    <circle cx=705 cy=432 r=14.575531809154635 stroke=""black"" stroke-width=""1"" fill=""black"" />
    <circle cx=646.6235 cy=432 r=20.822188298792337 stroke=""none"" stroke-width=""1.5"" fill=""none"" />
    <circle cx=538.21 cy=540.4135 r=20.822188298792337 stroke=""none"" stroke-width=""1.5"" fill=""none"" />
    <circle cx=429.79650000000004 cy=432 r=20.822188298792337 stroke=""none"" stroke-width=""1.5"" fill=""none"" />
    <circle cx=538.21 cy=323.5865 r=20.822188298792337 stroke=""none"" stroke-width=""1.5"" fill=""none"" />
    <polygon points = ""538.21,432 544.0671774575088,452.82218829879235 532.3528225424913,452.82218829879235"" stroke=""none"" stroke-width=""3"" fill = ""none"" />
    
    </svg>
    </div>
        ","","","","","","","","","","","","","","","","","","","","","","","","","","","","",""
"html-keyboard-response","12","216040","0.0-12.0","null","null","","
    <div style="" display: block;  position: relative;"">
    <svg width=1536 height=864>
    
    <circle cx=705 cy=432 r=14.575531809154635 stroke=""black"" stroke-width=""1"" fill=""black"" />
    <circle cx=538.21 cy=432 r=20.822188298792337 stroke=""black"" stroke-width=""1.5"" fill=""none"" />
    <circle cx=646.6235 cy=432 r=20.822188298792337 stroke=""black"" stroke-width=""1.5"" fill=""none"" />
    <circle cx=538.21 cy=540.4135 r=20.822188298792337 stroke=""black"" stroke-width=""1.5"" fill=""none"" />
    <circle cx=429.79650000000004 cy=432 r=20.822188298792337 stroke=""black"" stroke-width=""1.5"" fill=""none"" />
    <circle cx=538.21 cy=323.5865 r=20.822188298792337 stroke=""black"" stroke-width=""1.5"" fill=""none"" />
    <polygon points = ""538.21,432 544.0671774575088,411.17781170120765 532.3528225424913,411.17781170120765"" stroke=""white"" stroke-width=""3"" fill = ""white"" />
    
    </svg>
    </div>
        ","","","","","","","","","","","","stimulus","","","","","","","","","","","","","","","","",""
"html-keyboard-response","13","216471","0.0-13.0","428.2000000476837","arrowup","","
    <div style="" display: block;  position: relative;"">
    
    <svg width=1536 height=864>
    <circle cx=705 cy=432 r=14.575531809154635 stroke=""black"" stroke-width=""1"" fill=""black"" />
    <circle cx=646.6235 cy=432 r=20.822188298792337 stroke=""none"" stroke-width=""1.5"" fill=""none"" />
    <circle cx=538.21 cy=540.4135 r=20.822188298792337 stroke=""none"" stroke-width=""1.5"" fill=""none"" />
    <circle cx=429.79650000000004 cy=432 r=20.822188298792337 stroke=""none"" stroke-width=""1.5"" fill=""none"" />
    <circle cx=538.21 cy=323.5865 r=20.822188298792337 stroke=""none"" stroke-width=""1.5"" fill=""none"" />
    <polygon points = ""538.21,432 544.0671774575088,411.17781170120765 532.3528225424913,411.17781170120765"" stroke=""none"" stroke-width=""3"" fill = ""none"" />
    
    </svg>
    </div>
        ","","","","","","","","","","","","practice_get_response","true","FgKp9F75Ace3Znhw","108.4135","2.6","true","true","false","166.79","4","527.184","","","","","","",""
"html-keyboard-response","14","216476","0.0-14.0","3.299999952316284","arrowdown","","
    <div style="" display: block;  position: relative;"">
    
    <svg width=1536 height=864>
    <circle cx=705 cy=432 r=14.575531809154635 stroke=""black"" stroke-width=""1"" fill=""black"" />
    <circle cx=646.6235 cy=432 r=20.822188298792337 stroke=""none"" stroke-width=""1.5"" fill=""none"" />
    <circle cx=538.21 cy=540.4135 r=20.822188298792337 stroke=""none"" stroke-width=""1.5"" fill=""none"" />
    <circle cx=429.79650000000004 cy=432 r=20.822188298792337 stroke=""none"" stroke-width=""1.5"" fill=""none"" />
    <circle cx=538.21 cy=323.5865 r=20.822188298792337 stroke=""none"" stroke-width=""1.5"" fill=""none"" />
    <polygon points = ""538.21,432 544.0671774575088,411.17781170120765 532.3528225424913,411.17781170120765"" stroke=""none"" stroke-width=""3"" fill = ""none"" />
    
    </svg>
    </div>
        ","","","","","","","","","","","","","","","","","","","","","","","","","","","","",""
"html-keyboard-response","15","216631","0.0-15.0","null","null","","
    <div style="" display: block;  position: relative;"">
    <svg width=1536 height=864>
    
    <circle cx=705 cy=432 r=14.575531809154635 stroke=""black"" stroke-width=""1"" fill=""black"" />
    <circle cx=871.79 cy=432 r=20.822188298792337 stroke=""black"" stroke-width=""1.5"" fill=""none"" />
    <circle cx=980.2035 cy=432 r=20.822188298792337 stroke=""black"" stroke-width=""1.5"" fill=""none"" />
    <circle cx=871.79 cy=540.4135 r=20.822188298792337 stroke=""black"" stroke-width=""1.5"" fill=""none"" />
    <circle cx=763.3765 cy=432 r=20.822188298792337 stroke=""black"" stroke-width=""1.5"" fill=""none"" />
    <circle cx=871.79 cy=323.5865 r=20.822188298792337 stroke=""black"" stroke-width=""1.5"" fill=""none"" />
    <polygon points = ""871.79,432 877.6471774575087,411.17781170120765 865.9328225424912,411.17781170120765"" stroke=""white"" stroke-width=""3"" fill = ""white"" />
    
    </svg>
    </div>
        ","","","","","","","","","","","","stimulus","","","","","","","","","","","","","","","","",""
"html-keyboard-response","16","217153","0.0-16.0","519.6999999284744","arrowdown","","
    <div style="" display: block;  position: relative;"">
    
    <svg width=1536 height=864>
    <circle cx=705 cy=432 r=14.575531809154635 stroke=""black"" stroke-width=""1"" fill=""black"" />
    <circle cx=980.2035 cy=432 r=20.822188298792337 stroke=""none"" stroke-width=""1.5"" fill=""none"" />
    <circle cx=871.79 cy=540.4135 r=20.822188298792337 stroke=""none"" stroke-width=""1.5"" fill=""none"" />
    <circle cx=763.3765 cy=432 r=20.822188298792337 stroke=""none"" stroke-width=""1.5"" fill=""none"" />
    <circle cx=871.79 cy=323.5865 r=20.822188298792337 stroke=""none"" stroke-width=""1.5"" fill=""none"" />
    <polygon points = ""871.79,432 877.6471774575087,411.17781170120765 865.9328225424912,411.17781170120765"" stroke=""none"" stroke-width=""3"" fill = ""none"" />
    
    </svg>
    </div>
        ","","","","","","","","","","","","practice_get_response","false","FgKp9F75Ace3Znhw","108.4135","2.6","false","true","false","166.79","4","527.184","","","","","","",""
"html-keyboard-response","17","217658","0.0-17.0","null","null","","
    <div style="" display: block;  position: relative;"">
    
    <svg width=1536 height=864>
    <circle cx=705 cy=432 r=14.575531809154635 stroke=""black"" stroke-width=""1"" fill=""black"" />
    <circle cx=980.2035 cy=432 r=20.822188298792337 stroke=""none"" stroke-width=""1.5"" fill=""none"" />
    <circle cx=871.79 cy=540.4135 r=20.822188298792337 stroke=""none"" stroke-width=""1.5"" fill=""none"" />
    <circle cx=763.3765 cy=432 r=20.822188298792337 stroke=""none"" stroke-width=""1.5"" fill=""none"" />
    <circle cx=871.79 cy=323.5865 r=20.822188298792337 stroke=""none"" stroke-width=""1.5"" fill=""none"" />
    <polygon points = ""871.79,432 877.6471774575087,411.17781170120765 865.9328225424912,411.17781170120765"" stroke=""none"" stroke-width=""3"" fill = ""none"" />
    
    </svg>
    </div>
        ","","","","","","","","","","","","","","","","","","","","","","","","","","","","",""
"html-keyboard-response","18","217815","0.0-18.0","null","null","","
    <div style="" display: block;  position: relative;"">
    <svg width=1536 height=864>
    
    <circle cx=705 cy=432 r=14.575531809154635 stroke=""black"" stroke-width=""1"" fill=""black"" />
    <circle cx=538.21 cy=432 r=20.822188298792337 stroke=""black"" stroke-width=""1.5"" fill=""none"" />
    <circle cx=663.3556234024154 cy=432 r=20.822188298792337 stroke=""black"" stroke-width=""1.5"" fill=""none"" />
    <circle cx=538.21 cy=557.1456234024154 r=20.822188298792337 stroke=""black"" stroke-width=""1.5"" fill=""none"" />
    <circle cx=413.0643765975847 cy=432 r=20.822188298792337 stroke=""black"" stroke-width=""1.5"" fill=""none"" />
    <circle cx=538.21 cy=306.8543765975847 r=20.822188298792337 stroke=""black"" stroke-width=""1.5"" fill=""none"" />
    <polygon points = ""538.21,432 544.0671774575088,411.17781170120765 532.3528225424913,411.17781170120765"" stroke=""white"" stroke-width=""3"" fill = ""white"" />
    
    </svg>
    </div>
        ","","","","","","","","","","","","stimulus","","","","","","","","","","","","","","","","",""
"html-keyboard-response","19","218256","0.0-19.0","438.5","arrowup","","
    <div style="" display: block;  position: relative;"">
    
    <svg width=1536 height=864>
    <circle cx=705 cy=432 r=14.575531809154635 stroke=""black"" stroke-width=""1"" fill=""black"" />
    <circle cx=663.3556234024154 cy=432 r=20.822188298792337 stroke=""none"" stroke-width=""1.5"" fill=""none"" />
    <circle cx=538.21 cy=557.1456234024154 r=20.822188298792337 stroke=""none"" stroke-width=""1.5"" fill=""none"" />
    <circle cx=413.0643765975847 cy=432 r=20.822188298792337 stroke=""none"" stroke-width=""1.5"" fill=""none"" />
    <circle cx=538.21 cy=306.8543765975847 r=20.822188298792337 stroke=""none"" stroke-width=""1.5"" fill=""none"" />
    <polygon points = ""538.21,432 544.0671774575088,411.17781170120765 532.3528225424913,411.17781170120765"" stroke=""none"" stroke-width=""3"" fill = ""none"" />
    
    </svg>
    </div>
        ","","","","","","","","","","","","practice_get_response","true","FgKp9F75Ace3Znhw","125.14562340241531","3","true","true","false","166.79","4","527.184","","","","","","",""
"html-keyboard-response","20","218760","0.0-20.0","null","null","","
    <div style="" display: block;  position: relative;"">
    
    <svg width=1536 height=864>
    <circle cx=705 cy=432 r=14.575531809154635 stroke=""black"" stroke-width=""1"" fill=""black"" />
    <circle cx=663.3556234024154 cy=432 r=20.822188298792337 stroke=""none"" stroke-width=""1.5"" fill=""none"" />
    <circle cx=538.21 cy=557.1456234024154 r=20.822188298792337 stroke=""none"" stroke-width=""1.5"" fill=""none"" />
    <circle cx=413.0643765975847 cy=432 r=20.822188298792337 stroke=""none"" stroke-width=""1.5"" fill=""none"" />
    <circle cx=538.21 cy=306.8543765975847 r=20.822188298792337 stroke=""none"" stroke-width=""1.5"" fill=""none"" />
    <polygon points = ""538.21,432 544.0671774575088,411.17781170120765 532.3528225424913,411.17781170120765"" stroke=""none"" stroke-width=""3"" fill = ""none"" />
    
    </svg>
    </div>
        ","","","","","","","","","","","","","","","","","","","","","","","","","","","","",""
"html-keyboard-response","21","218920","0.0-21.0","null","null","","
    <div style="" display: block;  position: relative;"">
    <svg width=1536 height=864>
    
    <circle cx=705 cy=432 r=14.575531809154635 stroke=""black"" stroke-width=""1"" fill=""black"" />
    <circle cx=538.21 cy=432 r=20.822188298792337 stroke=""black"" stroke-width=""1.5"" fill=""none"" />
    <circle cx=663.3556234024154 cy=432 r=20.822188298792337 stroke=""black"" stroke-width=""1.5"" fill=""none"" />
    <circle cx=538.21 cy=557.1456234024154 r=20.822188298792337 stroke=""black"" stroke-width=""1.5"" fill=""none"" />
    <circle cx=413.0643765975847 cy=432 r=20.822188298792337 stroke=""black"" stroke-width=""1.5"" fill=""none"" />
    <circle cx=538.21 cy=306.8543765975847 r=20.822188298792337 stroke=""black"" stroke-width=""1.5"" fill=""none"" />
    <polygon points = ""538.21,432 544.0671774575088,452.82218829879235 532.3528225424913,452.82218829879235"" stroke=""white"" stroke-width=""3"" fill = ""white"" />
    
    </svg>
    </div>
        ","","","","","","","","","","","","stimulus","","","","","","","","","","","","","","","","",""
"html-keyboard-response","22","219486","0.0-22.0","563.6000000238419","arrowdown","","
    <div style="" display: block;  position: relative;"">
    
    <svg width=1536 height=864>
    <circle cx=705 cy=432 r=14.575531809154635 stroke=""black"" stroke-width=""1"" fill=""black"" />
    <circle cx=663.3556234024154 cy=432 r=20.822188298792337 stroke=""none"" stroke-width=""1.5"" fill=""none"" />
    <circle cx=538.21 cy=557.1456234024154 r=20.822188298792337 stroke=""none"" stroke-width=""1.5"" fill=""none"" />
    <circle cx=413.0643765975847 cy=432 r=20.822188298792337 stroke=""none"" stroke-width=""1.5"" fill=""none"" />
    <circle cx=538.21 cy=306.8543765975847 r=20.822188298792337 stroke=""none"" stroke-width=""1.5"" fill=""none"" />
    <polygon points = ""538.21,432 544.0671774575088,452.82218829879235 532.3528225424913,452.82218829879235"" stroke=""none"" stroke-width=""3"" fill = ""none"" />
    
    </svg>
    </div>
        ","","","","","","","","","","","","practice_get_response","true","FgKp9F75Ace3Znhw","125.14562340241531","3","true","false","false","166.79","4","527.184","","","","","","",""
"html-keyboard-response","23","233241","0.0-23.0","13753.700000047684","arrowdown","","<div> 
<h2 class=""bolded-blue"">Well done!</h2>
<p> Now that you have the hang of it, we&#39;ll start the study. This session has 25 trials and takes about 2 minute to complete. </p> 
<p>If you are ready for the real deal, please press the <b>down</b> arrow to continue.
</p>
</div>","","","","","","","","","","","","","","","","","","","","","","","","","","","","",""
"html-keyboard-response","24","245054","0.0-24.0","11810","arrowdown","","<div id=""continue""> 
<p>Again, please keep the <b>full screen</b> mode for the best experience.</p>
<p>Please do not move around and keep your eye on the black dot. Click <b>up</b> or <b>down</b> key on your keyboard to indicate the opening of the center circle. Make your best guess!</p>
<p>Please press the <b>down</b> arrow key to start the session 1. </p>
</div>","","","","","","","","","","","","","","","","","","","","","","","","","","","","",""
"html-keyboard-response","25","245559","0.0-25.0","null","null","","
    <div style="" display: block;  position: relative;"">
    
    <svg width=1536 height=864>
    <circle cx=705 cy=432 r=14.575531809154635 stroke=""black"" stroke-width=""1"" fill=""black"" />
    <circle cx=663.3556234024154 cy=432 r=20.822188298792337 stroke=""none"" stroke-width=""1.5"" fill=""none"" />
    <circle cx=538.21 cy=557.1456234024154 r=20.822188298792337 stroke=""none"" stroke-width=""1.5"" fill=""none"" />
    <circle cx=413.0643765975847 cy=432 r=20.822188298792337 stroke=""none"" stroke-width=""1.5"" fill=""none"" />
    <circle cx=538.21 cy=306.8543765975847 r=20.822188298792337 stroke=""none"" stroke-width=""1.5"" fill=""none"" />
    <polygon points = ""538.21,432 544.0671774575088,452.82218829879235 532.3528225424913,452.82218829879235"" stroke=""none"" stroke-width=""3"" fill = ""none"" />
    
    </svg>
    </div>
        ","","","","","","","","","","","","","","","","","","","","","","","","","","","","",""
"html-keyboard-response","26","245726","0.0-26.0","null","null","","
    <div style="" display: block;  position: relative;"">
    <svg width=1536 height=864>
    
    <circle cx=705 cy=432 r=14.575531809154635 stroke=""black"" stroke-width=""1"" fill=""black"" />
    <circle cx=871.79 cy=432 r=20.822188298792337 stroke=""black"" stroke-width=""1.5"" fill=""none"" />
    <circle cx=980.2035 cy=432 r=20.822188298792337 stroke=""black"" stroke-width=""1.5"" fill=""none"" />
    <circle cx=871.79 cy=540.4135 r=20.822188298792337 stroke=""black"" stroke-width=""1.5"" fill=""none"" />
    <circle cx=763.3765 cy=432 r=20.822188298792337 stroke=""black"" stroke-width=""1.5"" fill=""none"" />
    <circle cx=871.79 cy=323.5865 r=20.822188298792337 stroke=""black"" stroke-width=""1.5"" fill=""none"" />
    <polygon points = ""871.79,432 877.6471774575087,452.82218829879235 865.9328225424912,452.82218829879235"" stroke=""white"" stroke-width=""3"" fill = ""white"" />
    
    </svg>
    </div>
        ","","","","","","","","","","","","stimulus","","","","","","","","","","","","","","","","",""
"html-keyboard-response","27","246209","0.0-27.0","481.10000002384186","arrowdown","","
    <div style="" display: block;  position: relative;"">
    
    <svg width=1536 height=864>
    <circle cx=705 cy=432 r=14.575531809154635 stroke=""black"" stroke-width=""1"" fill=""black"" />
    <circle cx=980.2035 cy=432 r=20.822188298792337 stroke=""none"" stroke-width=""1.5"" fill=""none"" />
    <circle cx=871.79 cy=540.4135 r=20.822188298792337 stroke=""none"" stroke-width=""1.5"" fill=""none"" />
    <circle cx=763.3765 cy=432 r=20.822188298792337 stroke=""none"" stroke-width=""1.5"" fill=""none"" />
    <circle cx=871.79 cy=323.5865 r=20.822188298792337 stroke=""none"" stroke-width=""1.5"" fill=""none"" />
    <polygon points = ""871.79,432 877.6471774575087,452.82218829879235 865.9328225424912,452.82218829879235"" stroke=""none"" stroke-width=""3"" fill = ""none"" />
    
    </svg>
    </div>
        ","","","","","","","","","","","","get_response","true","FgKp9F75Ace3Znhw","","","false","false","false","166.79","4","527.184","108.4135","2.6","1","0","","",""
"html-keyboard-response","28","246717","0.0-28.0","null","null","","
    <div style="" display: block;  position: relative;"">
    
    <svg width=1536 height=864>
    <circle cx=705 cy=432 r=14.575531809154635 stroke=""black"" stroke-width=""1"" fill=""black"" />
    <circle cx=980.2035 cy=432 r=20.822188298792337 stroke=""none"" stroke-width=""1.5"" fill=""none"" />
    <circle cx=871.79 cy=540.4135 r=20.822188298792337 stroke=""none"" stroke-width=""1.5"" fill=""none"" />
    <circle cx=763.3765 cy=432 r=20.822188298792337 stroke=""none"" stroke-width=""1.5"" fill=""none"" />
    <circle cx=871.79 cy=323.5865 r=20.822188298792337 stroke=""none"" stroke-width=""1.5"" fill=""none"" />
    <polygon points = ""871.79,432 877.6471774575087,452.82218829879235 865.9328225424912,452.82218829879235"" stroke=""none"" stroke-width=""3"" fill = ""none"" />
    
    </svg>
    </div>
        ","","","","","","","","","","","","","","","","","","","","","","","","","","","","",""
"html-keyboard-response","29","246874","0.0-29.0","null","null","","
    <div style="" display: block;  position: relative;"">
    <svg width=1536 height=864>
    
    <circle cx=705 cy=432 r=14.575531809154635 stroke=""black"" stroke-width=""1"" fill=""black"" />
    <circle cx=871.79 cy=432 r=20.822188298792337 stroke=""black"" stroke-width=""1.5"" fill=""none"" />
    <circle cx=980.2035 cy=432 r=20.822188298792337 stroke=""black"" stroke-width=""1.5"" fill=""none"" />
    <circle cx=871.79 cy=540.4135 r=20.822188298792337 stroke=""black"" stroke-width=""1.5"" fill=""none"" />
    <circle cx=763.3765 cy=432 r=20.822188298792337 stroke=""black"" stroke-width=""1.5"" fill=""none"" />
    <circle cx=871.79 cy=323.5865 r=20.822188298792337 stroke=""black"" stroke-width=""1.5"" fill=""none"" />
    <polygon points = ""871.79,432 877.6471774575087,411.17781170120765 865.9328225424912,411.17781170120765"" stroke=""white"" stroke-width=""3"" fill = ""white"" />
    
    </svg>
    </div>
        ","","","","","","","","","","","","stimulus","","","","","","","","","","","","","","","","",""
"html-keyboard-response","30","247472","0.0-30.0","595.8999999761581","arrowup","","
    <div style="" display: block;  position: relative;"">
    
    <svg width=1536 height=864>
    <circle cx=705 cy=432 r=14.575531809154635 stroke=""black"" stroke-width=""1"" fill=""black"" />
    <circle cx=980.2035 cy=432 r=20.822188298792337 stroke=""none"" stroke-width=""1.5"" fill=""none"" />
    <circle cx=871.79 cy=540.4135 r=20.822188298792337 stroke=""none"" stroke-width=""1.5"" fill=""none"" />
    <circle cx=763.3765 cy=432 r=20.822188298792337 stroke=""none"" stroke-width=""1.5"" fill=""none"" />
    <circle cx=871.79 cy=323.5865 r=20.822188298792337 stroke=""none"" stroke-width=""1.5"" fill=""none"" />
    <polygon points = ""871.79,432 877.6471774575087,411.17781170120765 865.9328225424912,411.17781170120765"" stroke=""none"" stroke-width=""3"" fill = ""none"" />
    
    </svg>
    </div>
        ","","","","","","","","","","","","get_response","true","FgKp9F75Ace3Znhw","","","false","true","false","166.79","4","527.184","108.4135","2.6","1","0","","",""
"html-keyboard-response","31","247981","0.0-31.0","null","null","","
    <div style="" display: block;  position: relative;"">
    
    <svg width=1536 height=864>
    <circle cx=705 cy=432 r=14.575531809154635 stroke=""black"" stroke-width=""1"" fill=""black"" />
    <circle cx=980.2035 cy=432 r=20.822188298792337 stroke=""none"" stroke-width=""1.5"" fill=""none"" />
    <circle cx=871.79 cy=540.4135 r=20.822188298792337 stroke=""none"" stroke-width=""1.5"" fill=""none"" />
    <circle cx=763.3765 cy=432 r=20.822188298792337 stroke=""none"" stroke-width=""1.5"" fill=""none"" />
    <circle cx=871.79 cy=323.5865 r=20.822188298792337 stroke=""none"" stroke-width=""1.5"" fill=""none"" />
    <polygon points = ""871.79,432 877.6471774575087,411.17781170120765 865.9328225424912,411.17781170120765"" stroke=""none"" stroke-width=""3"" fill = ""none"" />
    
    </svg>
    </div>
        ","","","","","","","","","","","","","","","","","","","","","","","","","","","","",""
"html-keyboard-response","32","248139","0.0-32.0","null","null","","
    <div style="" display: block;  position: relative;"">
    <svg width=1536 height=864>
    
    <circle cx=705 cy=432 r=14.575531809154635 stroke=""black"" stroke-width=""1"" fill=""black"" />
    <circle cx=871.79 cy=432 r=20.822188298792337 stroke=""black"" stroke-width=""1.5"" fill=""none"" />
    <circle cx=980.2035 cy=432 r=20.822188298792337 stroke=""black"" stroke-width=""1.5"" fill=""none"" />
    <circle cx=871.79 cy=540.4135 r=20.822188298792337 stroke=""black"" stroke-width=""1.5"" fill=""none"" />
    <circle cx=763.3765 cy=432 r=20.822188298792337 stroke=""black"" stroke-width=""1.5"" fill=""none"" />
    <circle cx=871.79 cy=323.5865 r=20.822188298792337 stroke=""black"" stroke-width=""1.5"" fill=""none"" />
    <polygon points = ""871.79,432 877.6471774575087,411.17781170120765 865.9328225424912,411.17781170120765"" stroke=""white"" stroke-width=""3"" fill = ""white"" />
    
    </svg>
    </div>
        ","","","","","","","","","","","","stimulus","","","","","","","","","","","","","","","","",""
"html-keyboard-response","33","248680","0.0-33.0","539","arrowup","","
    <div style="" display: block;  position: relative;"">
    
    <svg width=1536 height=864>
    <circle cx=705 cy=432 r=14.575531809154635 stroke=""black"" stroke-width=""1"" fill=""black"" />
    <circle cx=980.2035 cy=432 r=20.822188298792337 stroke=""none"" stroke-width=""1.5"" fill=""none"" />
    <circle cx=871.79 cy=540.4135 r=20.822188298792337 stroke=""none"" stroke-width=""1.5"" fill=""none"" />
    <circle cx=763.3765 cy=432 r=20.822188298792337 stroke=""none"" stroke-width=""1.5"" fill=""none"" />
    <circle cx=871.79 cy=323.5865 r=20.822188298792337 stroke=""none"" stroke-width=""1.5"" fill=""none"" />
    <polygon points = ""871.79,432 877.6471774575087,411.17781170120765 865.9328225424912,411.17781170120765"" stroke=""none"" stroke-width=""3"" fill = ""none"" />
    
    </svg>
    </div>
        ","","","","","","","","","","","","get_response","true","FgKp9F75Ace3Znhw","","","false","true","false","166.79","4","527.184","108.4135","2.6","1","0","","",""
"html-keyboard-response","34","249198","0.0-34.0","null","null","","
    <div style="" display: block;  position: relative;"">
    
    <svg width=1536 height=864>
    <circle cx=705 cy=432 r=14.575531809154635 stroke=""black"" stroke-width=""1"" fill=""black"" />
    <circle cx=980.2035 cy=432 r=20.822188298792337 stroke=""none"" stroke-width=""1.5"" fill=""none"" />
    <circle cx=871.79 cy=540.4135 r=20.822188298792337 stroke=""none"" stroke-width=""1.5"" fill=""none"" />
    <circle cx=763.3765 cy=432 r=20.822188298792337 stroke=""none"" stroke-width=""1.5"" fill=""none"" />
    <circle cx=871.79 cy=323.5865 r=20.822188298792337 stroke=""none"" stroke-width=""1.5"" fill=""none"" />
    <polygon points = ""871.79,432 877.6471774575087,411.17781170120765 865.9328225424912,411.17781170120765"" stroke=""none"" stroke-width=""3"" fill = ""none"" />
    
    </svg>
    </div>
        ","","","","","","","","","","","","","","","","","","","","","","","","","","","","",""
"html-keyboard-response","35","249355","0.0-35.0","null","null","","
    <div style="" display: block;  position: relative;"">
    <svg width=1536 height=864>
    
    <circle cx=705 cy=432 r=14.575531809154635 stroke=""black"" stroke-width=""1"" fill=""black"" />
    <circle cx=538.21 cy=432 r=20.822188298792337 stroke=""black"" stroke-width=""1.5"" fill=""none"" />
    <circle cx=636.7677272727273 cy=432 r=20.822188298792337 stroke=""black"" stroke-width=""1.5"" fill=""none"" />
    <circle cx=538.21 cy=530.5577272727272 r=20.822188298792337 stroke=""black"" stroke-width=""1.5"" fill=""none"" />
    <circle cx=439.65227272727276 cy=432 r=20.822188298792337 stroke=""black"" stroke-width=""1.5"" fill=""none"" />
    <circle cx=538.21 cy=333.4422727272727 r=20.822188298792337 stroke=""black"" stroke-width=""1.5"" fill=""none"" />
    <polygon points = ""538.21,432 544.0671774575088,411.17781170120765 532.3528225424913,411.17781170120765"" stroke=""white"" stroke-width=""3"" fill = ""white"" />
    
    </svg>
    </div>
        ","","","","","","","","","","","","stimulus","","","","","","","","","","","","","","","","",""
"html-keyboard-response","36","249941","0.0-36.0","583.7999999523163","arrowup","","
    <div style="" display: block;  position: relative;"">
    
    <svg width=1536 height=864>
    <circle cx=705 cy=432 r=14.575531809154635 stroke=""black"" stroke-width=""1"" fill=""black"" />
    <circle cx=636.7677272727273 cy=432 r=20.822188298792337 stroke=""none"" stroke-width=""1.5"" fill=""none"" />
    <circle cx=538.21 cy=530.5577272727272 r=20.822188298792337 stroke=""none"" stroke-width=""1.5"" fill=""none"" />
    <circle cx=439.65227272727276 cy=432 r=20.822188298792337 stroke=""none"" stroke-width=""1.5"" fill=""none"" />
    <circle cx=538.21 cy=333.4422727272727 r=20.822188298792337 stroke=""none"" stroke-width=""1.5"" fill=""none"" />
    <polygon points = ""538.21,432 544.0671774575088,411.17781170120765 532.3528225424913,411.17781170120765"" stroke=""none"" stroke-width=""3"" fill = ""none"" />
    
    </svg>
    </div>
        ","","","","","","","","","","","","get_response","true","FgKp9F75Ace3Znhw","","","true","true","false","166.79","4","527.184","98.55772727272726","2.36","1","0","","",""
"html-keyboard-response","37","250450","0.0-37.0","null","null","","
    <div style="" display: block;  position: relative;"">
    
    <svg width=1536 height=864>
    <circle cx=705 cy=432 r=14.575531809154635 stroke=""black"" stroke-width=""1"" fill=""black"" />
    <circle cx=636.7677272727273 cy=432 r=20.822188298792337 stroke=""none"" stroke-width=""1.5"" fill=""none"" />
    <circle cx=538.21 cy=530.5577272727272 r=20.822188298792337 stroke=""none"" stroke-width=""1.5"" fill=""none"" />
    <circle cx=439.65227272727276 cy=432 r=20.822188298792337 stroke=""none"" stroke-width=""1.5"" fill=""none"" />
    <circle cx=538.21 cy=333.4422727272727 r=20.822188298792337 stroke=""none"" stroke-width=""1.5"" fill=""none"" />
    <polygon points = ""538.21,432 544.0671774575088,411.17781170120765 532.3528225424913,411.17781170120765"" stroke=""none"" stroke-width=""3"" fill = ""none"" />
    
    </svg>
    </div>
        ","","","","","","","","","","","","","","","","","","","","","","","","","","","","",""
"html-keyboard-response","38","250616","0.0-38.0","null","null","","
    <div style="" display: block;  position: relative;"">
    <svg width=1536 height=864>
    
    <circle cx=705 cy=432 r=14.575531809154635 stroke=""black"" stroke-width=""1"" fill=""black"" />
    <circle cx=871.79 cy=432 r=20.822188298792337 stroke=""black"" stroke-width=""1.5"" fill=""none"" />
    <circle cx=961.3879338842975 cy=432 r=20.822188298792337 stroke=""black"" stroke-width=""1.5"" fill=""none"" />
    <circle cx=871.79 cy=521.5979338842975 r=20.822188298792337 stroke=""black"" stroke-width=""1.5"" fill=""none"" />
    <circle cx=782.1920661157025 cy=432 r=20.822188298792337 stroke=""black"" stroke-width=""1.5"" fill=""none"" />
    <circle cx=871.79 cy=342.4020661157025 r=20.822188298792337 stroke=""black"" stroke-width=""1.5"" fill=""none"" />
    <polygon points = ""871.79,432 877.6471774575087,452.82218829879235 865.9328225424912,452.82218829879235"" stroke=""white"" stroke-width=""3"" fill = ""white"" />
    
    </svg>
    </div>
        ","","","","","","","","","","","","stimulus","","","","","","","","","","","","","","","","",""
"html-keyboard-response","39","251087","0.0-39.0","469.10000002384186","arrowdown","","
    <div style="" display: block;  position: relative;"">
    
    <svg width=1536 height=864>
    <circle cx=705 cy=432 r=14.575531809154635 stroke=""black"" stroke-width=""1"" fill=""black"" />
    <circle cx=961.3879338842975 cy=432 r=20.822188298792337 stroke=""none"" stroke-width=""1.5"" fill=""none"" />
    <circle cx=871.79 cy=521.5979338842975 r=20.822188298792337 stroke=""none"" stroke-width=""1.5"" fill=""none"" />
    <circle cx=782.1920661157025 cy=432 r=20.822188298792337 stroke=""none"" stroke-width=""1.5"" fill=""none"" />
    <circle cx=871.79 cy=342.4020661157025 r=20.822188298792337 stroke=""none"" stroke-width=""1.5"" fill=""none"" />
    <polygon points = ""871.79,432 877.6471774575087,452.82218829879235 865.9328225424912,452.82218829879235"" stroke=""none"" stroke-width=""3"" fill = ""none"" />
    
    </svg>
    </div>
        ","","","","","","","","","","","","get_response","true","FgKp9F75Ace3Znhw","","","false","false","false","166.79","4","527.184","89.5979338842975","2.15","1","0","","",""
"html-keyboard-response","40","251592","0.0-40.0","null","null","","
    <div style="" display: block;  position: relative;"">
    
    <svg width=1536 height=864>
    <circle cx=705 cy=432 r=14.575531809154635 stroke=""black"" stroke-width=""1"" fill=""black"" />
    <circle cx=961.3879338842975 cy=432 r=20.822188298792337 stroke=""none"" stroke-width=""1.5"" fill=""none"" />
    <circle cx=871.79 cy=521.5979338842975 r=20.822188298792337 stroke=""none"" stroke-width=""1.5"" fill=""none"" />
    <circle cx=782.1920661157025 cy=432 r=20.822188298792337 stroke=""none"" stroke-width=""1.5"" fill=""none"" />
    <circle cx=871.79 cy=342.4020661157025 r=20.822188298792337 stroke=""none"" stroke-width=""1.5"" fill=""none"" />
    <polygon points = ""871.79,432 877.6471774575087,452.82218829879235 865.9328225424912,452.82218829879235"" stroke=""none"" stroke-width=""3"" fill = ""none"" />
    
    </svg>
    </div>
        ","","","","","","","","","","","","","","","","","","","","","","","","","","","","",""
"html-keyboard-response","41","251748","0.0-41.0","null","null","","
    <div style="" display: block;  position: relative;"">
    <svg width=1536 height=864>
    
    <circle cx=705 cy=432 r=14.575531809154635 stroke=""black"" stroke-width=""1"" fill=""black"" />
    <circle cx=871.79 cy=432 r=20.822188298792337 stroke=""black"" stroke-width=""1.5"" fill=""none"" />
    <circle cx=953.2426671675431 cy=432 r=20.822188298792337 stroke=""black"" stroke-width=""1.5"" fill=""none"" />
    <circle cx=871.79 cy=513.4526671675432 r=20.822188298792337 stroke=""black"" stroke-width=""1.5"" fill=""none"" />
    <circle cx=790.3373328324568 cy=432 r=20.822188298792337 stroke=""black"" stroke-width=""1.5"" fill=""none"" />
    <circle cx=871.79 cy=350.54733283245685 r=20.822188298792337 stroke=""black"" stroke-width=""1.5"" fill=""none"" />
    <polygon points = ""871.79,432 877.6471774575087,452.82218829879235 865.9328225424912,452.82218829879235"" stroke=""white"" stroke-width=""3"" fill = ""white"" />
    
    </svg>
    </div>
        ","","","","","","","","","","","","stimulus","","","","","","","","","","","","","","","","",""
"html-keyboard-response","42","252113","0.0-42.0","362.1999999284744","arrowdown","","
    <div style="" display: block;  position: relative;"">
    
    <svg width=1536 height=864>
    <circle cx=705 cy=432 r=14.575531809154635 stroke=""black"" stroke-width=""1"" fill=""black"" />
    <circle cx=953.2426671675431 cy=432 r=20.822188298792337 stroke=""none"" stroke-width=""1.5"" fill=""none"" />
    <circle cx=871.79 cy=513.4526671675432 r=20.822188298792337 stroke=""none"" stroke-width=""1.5"" fill=""none"" />
    <circle cx=790.3373328324568 cy=432 r=20.822188298792337 stroke=""none"" stroke-width=""1.5"" fill=""none"" />
    <circle cx=871.79 cy=350.54733283245685 r=20.822188298792337 stroke=""none"" stroke-width=""1.5"" fill=""none"" />
    <polygon points = ""871.79,432 877.6471774575087,452.82218829879235 865.9328225424912,452.82218829879235"" stroke=""none"" stroke-width=""3"" fill = ""none"" />
    
    </svg>
    </div>
        ","","","","","","","","","","","","get_response","true","FgKp9F75Ace3Znhw","","","false","false","false","166.79","4","527.184","81.45266716754318","1.95","1","0","","",""
"html-keyboard-response","43","252616","0.0-43.0","null","null","","
    <div style="" display: block;  position: relative;"">
    
    <svg width=1536 height=864>
    <circle cx=705 cy=432 r=14.575531809154635 stroke=""black"" stroke-width=""1"" fill=""black"" />
    <circle cx=953.2426671675431 cy=432 r=20.822188298792337 stroke=""none"" stroke-width=""1.5"" fill=""none"" />
    <circle cx=871.79 cy=513.4526671675432 r=20.822188298792337 stroke=""none"" stroke-width=""1.5"" fill=""none"" />
    <circle cx=790.3373328324568 cy=432 r=20.822188298792337 stroke=""none"" stroke-width=""1.5"" fill=""none"" />
    <circle cx=871.79 cy=350.54733283245685 r=20.822188298792337 stroke=""none"" stroke-width=""1.5"" fill=""none"" />
    <polygon points = ""871.79,432 877.6471774575087,452.82218829879235 865.9328225424912,452.82218829879235"" stroke=""none"" stroke-width=""3"" fill = ""none"" />
    
    </svg>
    </div>
        ","","","","","","","","","","","","","","","","","","","","","","","","","","","","",""
"html-keyboard-response","44","252783","0.0-44.0","null","null","","
    <div style="" display: block;  position: relative;"">
    <svg width=1536 height=864>
    
    <circle cx=705 cy=432 r=14.575531809154635 stroke=""black"" stroke-width=""1"" fill=""black"" />
    <circle cx=871.79 cy=432 r=20.822188298792337 stroke=""black"" stroke-width=""1.5"" fill=""none"" />
    <circle cx=945.8378792432211 cy=432 r=20.822188298792337 stroke=""black"" stroke-width=""1.5"" fill=""none"" />
    <circle cx=871.79 cy=506.0478792432211 r=20.822188298792337 stroke=""black"" stroke-width=""1.5"" fill=""none"" />
    <circle cx=797.7421207567788 cy=432 r=20.822188298792337 stroke=""black"" stroke-width=""1.5"" fill=""none"" />
    <circle cx=871.79 cy=357.9521207567789 r=20.822188298792337 stroke=""black"" stroke-width=""1.5"" fill=""none"" />
    <polygon points = ""871.79,432 877.6471774575087,452.82218829879235 865.9328225424912,452.82218829879235"" stroke=""white"" stroke-width=""3"" fill = ""white"" />
    
    </svg>
    </div>
        ","","","","","","","","","","","","stimulus","","","","","","","","","","","","","","","","",""
"html-keyboard-response","45","253253","0.0-45.0","467.7999999523163","arrowdown","","
    <div style="" display: block;  position: relative;"">
    
    <svg width=1536 height=864>
    <circle cx=705 cy=432 r=14.575531809154635 stroke=""black"" stroke-width=""1"" fill=""black"" />
    <circle cx=945.8378792432211 cy=432 r=20.822188298792337 stroke=""none"" stroke-width=""1.5"" fill=""none"" />
    <circle cx=871.79 cy=506.0478792432211 r=20.822188298792337 stroke=""none"" stroke-width=""1.5"" fill=""none"" />
    <circle cx=797.7421207567788 cy=432 r=20.822188298792337 stroke=""none"" stroke-width=""1.5"" fill=""none"" />
    <circle cx=871.79 cy=357.9521207567789 r=20.822188298792337 stroke=""none"" stroke-width=""1.5"" fill=""none"" />
    <polygon points = ""871.79,432 877.6471774575087,452.82218829879235 865.9328225424912,452.82218829879235"" stroke=""none"" stroke-width=""3"" fill = ""none"" />
    
    </svg>
    </div>
        ","","","","","","","","","","","","get_response","true","FgKp9F75Ace3Znhw","","","false","false","false","166.79","4","527.184","74.04787924322108","1.77","1","0","","",""
"html-keyboard-response","46","253762","0.0-46.0","null","null","","
    <div style="" display: block;  position: relative;"">
    
    <svg width=1536 height=864>
    <circle cx=705 cy=432 r=14.575531809154635 stroke=""black"" stroke-width=""1"" fill=""black"" />
    <circle cx=945.8378792432211 cy=432 r=20.822188298792337 stroke=""none"" stroke-width=""1.5"" fill=""none"" />
    <circle cx=871.79 cy=506.0478792432211 r=20.822188298792337 stroke=""none"" stroke-width=""1.5"" fill=""none"" />
    <circle cx=797.7421207567788 cy=432 r=20.822188298792337 stroke=""none"" stroke-width=""1.5"" fill=""none"" />
    <circle cx=871.79 cy=357.9521207567789 r=20.822188298792337 stroke=""none"" stroke-width=""1.5"" fill=""none"" />
    <polygon points = ""871.79,432 877.6471774575087,452.82218829879235 865.9328225424912,452.82218829879235"" stroke=""none"" stroke-width=""3"" fill = ""none"" />
    
    </svg>
    </div>
        ","","","","","","","","","","","","","","","","","","","","","","","","","","","","",""
"html-keyboard-response","47","253930","0.0-47.0","null","null","","
    <div style="" display: block;  position: relative;"">
    <svg width=1536 height=864>
    
    <circle cx=705 cy=432 r=14.575531809154635 stroke=""black"" stroke-width=""1"" fill=""black"" />
    <circle cx=538.21 cy=432 r=20.822188298792337 stroke=""black"" stroke-width=""1.5"" fill=""none"" />
    <circle cx=605.5262538574738 cy=432 r=20.822188298792337 stroke=""black"" stroke-width=""1.5"" fill=""none"" />
    <circle cx=538.21 cy=499.3162538574737 r=20.822188298792337 stroke=""black"" stroke-width=""1.5"" fill=""none"" />
    <circle cx=470.8937461425263 cy=432 r=20.822188298792337 stroke=""black"" stroke-width=""1.5"" fill=""none"" />
    <circle cx=538.21 cy=364.6837461425263 r=20.822188298792337 stroke=""black"" stroke-width=""1.5"" fill=""none"" />
    <polygon points = ""538.21,432 544.0671774575088,411.17781170120765 532.3528225424913,411.17781170120765"" stroke=""white"" stroke-width=""3"" fill = ""white"" />
    
    </svg>
    </div>
        ","","","","","","","","","","","","stimulus","","","","","","","","","","","","","","","","",""
"html-keyboard-response","48","254336","0.0-48.0","403.7999999523163","arrowup","","
    <div style="" display: block;  position: relative;"">
    
    <svg width=1536 height=864>
    <circle cx=705 cy=432 r=14.575531809154635 stroke=""black"" stroke-width=""1"" fill=""black"" />
    <circle cx=605.5262538574738 cy=432 r=20.822188298792337 stroke=""none"" stroke-width=""1.5"" fill=""none"" />
    <circle cx=538.21 cy=499.3162538574737 r=20.822188298792337 stroke=""none"" stroke-width=""1.5"" fill=""none"" />
    <circle cx=470.8937461425263 cy=432 r=20.822188298792337 stroke=""none"" stroke-width=""1.5"" fill=""none"" />
    <circle cx=538.21 cy=364.6837461425263 r=20.822188298792337 stroke=""none"" stroke-width=""1.5"" fill=""none"" />
    <polygon points = ""538.21,432 544.0671774575088,411.17781170120765 532.3528225424913,411.17781170120765"" stroke=""none"" stroke-width=""3"" fill = ""none"" />
    
    </svg>
    </div>
        ","","","","","","","","","","","","get_response","true","FgKp9F75Ace3Znhw","","","true","true","false","166.79","4","527.184","67.3162538574737","1.61","1","0","","",""
"html-keyboard-response","49","254844","0.0-49.0","null","null","","
    <div style="" display: block;  position: relative;"">
    
    <svg width=1536 height=864>
    <circle cx=705 cy=432 r=14.575531809154635 stroke=""black"" stroke-width=""1"" fill=""black"" />
    <circle cx=605.5262538574738 cy=432 r=20.822188298792337 stroke=""none"" stroke-width=""1.5"" fill=""none"" />
    <circle cx=538.21 cy=499.3162538574737 r=20.822188298792337 stroke=""none"" stroke-width=""1.5"" fill=""none"" />
    <circle cx=470.8937461425263 cy=432 r=20.822188298792337 stroke=""none"" stroke-width=""1.5"" fill=""none"" />
    <circle cx=538.21 cy=364.6837461425263 r=20.822188298792337 stroke=""none"" stroke-width=""1.5"" fill=""none"" />
    <polygon points = ""538.21,432 544.0671774575088,411.17781170120765 532.3528225424913,411.17781170120765"" stroke=""none"" stroke-width=""3"" fill = ""none"" />
    
    </svg>
    </div>
        ","","","","","","","","","","","","","","","","","","","","","","","","","","","","",""
"html-keyboard-response","50","255000","0.0-50.0","null","null","","
    <div style="" display: block;  position: relative;"">
    <svg width=1536 height=864>
    
    <circle cx=705 cy=432 r=14.575531809154635 stroke=""black"" stroke-width=""1"" fill=""black"" />
    <circle cx=871.79 cy=432 r=20.822188298792337 stroke=""black"" stroke-width=""1.5"" fill=""none"" />
    <circle cx=932.9865944158852 cy=432 r=20.822188298792337 stroke=""black"" stroke-width=""1.5"" fill=""none"" />
    <circle cx=871.79 cy=493.19659441588516 r=20.822188298792337 stroke=""black"" stroke-width=""1.5"" fill=""none"" />
    <circle cx=810.5934055841147 cy=432 r=20.822188298792337 stroke=""black"" stroke-width=""1.5"" fill=""none"" />
    <circle cx=871.79 cy=370.80340558411484 r=20.822188298792337 stroke=""black"" stroke-width=""1.5"" fill=""none"" />
    <polygon points = ""871.79,432 877.6471774575087,452.82218829879235 865.9328225424912,452.82218829879235"" stroke=""white"" stroke-width=""3"" fill = ""white"" />
    
    </svg>
    </div>
        ","","","","","","","","","","","","stimulus","","","","","","","","","","","","","","","","",""
"html-keyboard-response","51","255421","0.0-51.0","418.60000002384186","arrowdown","","
    <div style="" display: block;  position: relative;"">
    
    <svg width=1536 height=864>
    <circle cx=705 cy=432 r=14.575531809154635 stroke=""black"" stroke-width=""1"" fill=""black"" />
    <circle cx=932.9865944158852 cy=432 r=20.822188298792337 stroke=""none"" stroke-width=""1.5"" fill=""none"" />
    <circle cx=871.79 cy=493.19659441588516 r=20.822188298792337 stroke=""none"" stroke-width=""1.5"" fill=""none"" />
    <circle cx=810.5934055841147 cy=432 r=20.822188298792337 stroke=""none"" stroke-width=""1.5"" fill=""none"" />
    <circle cx=871.79 cy=370.80340558411484 r=20.822188298792337 stroke=""none"" stroke-width=""1.5"" fill=""none"" />
    <polygon points = ""871.79,432 877.6471774575087,452.82218829879235 865.9328225424912,452.82218829879235"" stroke=""none"" stroke-width=""3"" fill = ""none"" />
    
    </svg>
    </div>
        ","","","","","","","","","","","","get_response","true","FgKp9F75Ace3Znhw","","","false","false","false","166.79","4","527.184","61.19659441588517","1.47","1","0","","",""
"html-keyboard-response","52","255926","0.0-52.0","null","null","","
    <div style="" display: block;  position: relative;"">
    
    <svg width=1536 height=864>
    <circle cx=705 cy=432 r=14.575531809154635 stroke=""black"" stroke-width=""1"" fill=""black"" />
    <circle cx=932.9865944158852 cy=432 r=20.822188298792337 stroke=""none"" stroke-width=""1.5"" fill=""none"" />
    <circle cx=871.79 cy=493.19659441588516 r=20.822188298792337 stroke=""none"" stroke-width=""1.5"" fill=""none"" />
    <circle cx=810.5934055841147 cy=432 r=20.822188298792337 stroke=""none"" stroke-width=""1.5"" fill=""none"" />
    <circle cx=871.79 cy=370.80340558411484 r=20.822188298792337 stroke=""none"" stroke-width=""1.5"" fill=""none"" />
    <polygon points = ""871.79,432 877.6471774575087,452.82218829879235 865.9328225424912,452.82218829879235"" stroke=""none"" stroke-width=""3"" fill = ""none"" />
    
    </svg>
    </div>
        ","","","","","","","","","","","","","","","","","","","","","","","","","","","","",""
"html-keyboard-response","53","256091","0.0-53.0","null","null","","
    <div style="" display: block;  position: relative;"">
    <svg width=1536 height=864>
    
    <circle cx=705 cy=432 r=14.575531809154635 stroke=""black"" stroke-width=""1"" fill=""black"" />
    <circle cx=871.79 cy=432 r=20.822188298792337 stroke=""black"" stroke-width=""1.5"" fill=""none"" />
    <circle cx=927.4232676508046 cy=432 r=20.822188298792337 stroke=""black"" stroke-width=""1.5"" fill=""none"" />
    <circle cx=871.79 cy=487.63326765080467 r=20.822188298792337 stroke=""black"" stroke-width=""1.5"" fill=""none"" />
    <circle cx=816.1567323491953 cy=432 r=20.822188298792337 stroke=""black"" stroke-width=""1.5"" fill=""none"" />
    <circle cx=871.79 cy=376.36673234919533 r=20.822188298792337 stroke=""black"" stroke-width=""1.5"" fill=""none"" />
    <polygon points = ""871.79,432 877.6471774575087,411.17781170120765 865.9328225424912,411.17781170120765"" stroke=""white"" stroke-width=""3"" fill = ""white"" />
    
    </svg>
    </div>
        ","","","","","","","","","","","","stimulus","","","","","","","","","","","","","","","","",""
"html-keyboard-response","54","256586","0.0-54.0","492.6999999284744","arrowup","","
    <div style="" display: block;  position: relative;"">
    
    <svg width=1536 height=864>
    <circle cx=705 cy=432 r=14.575531809154635 stroke=""black"" stroke-width=""1"" fill=""black"" />
    <circle cx=927.4232676508046 cy=432 r=20.822188298792337 stroke=""none"" stroke-width=""1.5"" fill=""none"" />
    <circle cx=871.79 cy=487.63326765080467 r=20.822188298792337 stroke=""none"" stroke-width=""1.5"" fill=""none"" />
    <circle cx=816.1567323491953 cy=432 r=20.822188298792337 stroke=""none"" stroke-width=""1.5"" fill=""none"" />
    <circle cx=871.79 cy=376.36673234919533 r=20.822188298792337 stroke=""none"" stroke-width=""1.5"" fill=""none"" />
    <polygon points = ""871.79,432 877.6471774575087,411.17781170120765 865.9328225424912,411.17781170120765"" stroke=""none"" stroke-width=""3"" fill = ""none"" />
    
    </svg>
    </div>
        ","","","","","","","","","","","","get_response","true","FgKp9F75Ace3Znhw","","","false","true","false","166.79","4","527.184","55.6332676508047","1.33","1","0","","",""
"html-keyboard-response","55","257104","0.0-55.0","null","null","","
    <div style="" display: block;  position: relative;"">
    
    <svg width=1536 height=864>
    <circle cx=705 cy=432 r=14.575531809154635 stroke=""black"" stroke-width=""1"" fill=""black"" />
    <circle cx=927.4232676508046 cy=432 r=20.822188298792337 stroke=""none"" stroke-width=""1.5"" fill=""none"" />
    <circle cx=871.79 cy=487.63326765080467 r=20.822188298792337 stroke=""none"" stroke-width=""1.5"" fill=""none"" />
    <circle cx=816.1567323491953 cy=432 r=20.822188298792337 stroke=""none"" stroke-width=""1.5"" fill=""none"" />
    <circle cx=871.79 cy=376.36673234919533 r=20.822188298792337 stroke=""none"" stroke-width=""1.5"" fill=""none"" />
    <polygon points = ""871.79,432 877.6471774575087,411.17781170120765 865.9328225424912,411.17781170120765"" stroke=""none"" stroke-width=""3"" fill = ""none"" />
    
    </svg>
    </div>
        ","","","","","","","","","","","","","","","","","","","","","","","","","","","","",""
"html-keyboard-response","56","257260","0.0-56.0","null","null","","
    <div style="" display: block;  position: relative;"">
    <svg width=1536 height=864>
    
    <circle cx=705 cy=432 r=14.575531809154635 stroke=""black"" stroke-width=""1"" fill=""black"" />
    <circle cx=538.21 cy=432 r=20.822188298792337 stroke=""black"" stroke-width=""1.5"" fill=""none"" />
    <circle cx=588.785697864368 cy=432 r=20.822188298792337 stroke=""black"" stroke-width=""1.5"" fill=""none"" />
    <circle cx=538.21 cy=482.5756978643679 r=20.822188298792337 stroke=""black"" stroke-width=""1.5"" fill=""none"" />
    <circle cx=487.63430213563214 cy=432 r=20.822188298792337 stroke=""black"" stroke-width=""1.5"" fill=""none"" />
    <circle cx=538.21 cy=381.4243021356321 r=20.822188298792337 stroke=""black"" stroke-width=""1.5"" fill=""none"" />
    <polygon points = ""538.21,432 544.0671774575088,411.17781170120765 532.3528225424913,411.17781170120765"" stroke=""white"" stroke-width=""3"" fill = ""white"" />
    
    </svg>
    </div>
        ","","","","","","","","","","","","stimulus","","","","","","","","","","","","","","","","",""
"html-keyboard-response","57","257706","0.0-57.0","444.2999999523163","arrowup","","
    <div style="" display: block;  position: relative;"">
    
    <svg width=1536 height=864>
    <circle cx=705 cy=432 r=14.575531809154635 stroke=""black"" stroke-width=""1"" fill=""black"" />
    <circle cx=588.785697864368 cy=432 r=20.822188298792337 stroke=""none"" stroke-width=""1.5"" fill=""none"" />
    <circle cx=538.21 cy=482.5756978643679 r=20.822188298792337 stroke=""none"" stroke-width=""1.5"" fill=""none"" />
    <circle cx=487.63430213563214 cy=432 r=20.822188298792337 stroke=""none"" stroke-width=""1.5"" fill=""none"" />
    <circle cx=538.21 cy=381.4243021356321 r=20.822188298792337 stroke=""none"" stroke-width=""1.5"" fill=""none"" />
    <polygon points = ""538.21,432 544.0671774575088,411.17781170120765 532.3528225424913,411.17781170120765"" stroke=""none"" stroke-width=""3"" fill = ""none"" />
    
    </svg>
    </div>
        ","","","","","","","","","","","","get_response","true","FgKp9F75Ace3Znhw","","","true","true","false","166.79","4","527.184","50.5756978643679","1.21","1","0","","",""
"html-keyboard-response","58","258217","0.0-58.0","null","null","","
    <div style="" display: block;  position: relative;"">
    
    <svg width=1536 height=864>
    <circle cx=705 cy=432 r=14.575531809154635 stroke=""black"" stroke-width=""1"" fill=""black"" />
    <circle cx=588.785697864368 cy=432 r=20.822188298792337 stroke=""none"" stroke-width=""1.5"" fill=""none"" />
    <circle cx=538.21 cy=482.5756978643679 r=20.822188298792337 stroke=""none"" stroke-width=""1.5"" fill=""none"" />
    <circle cx=487.63430213563214 cy=432 r=20.822188298792337 stroke=""none"" stroke-width=""1.5"" fill=""none"" />
    <circle cx=538.21 cy=381.4243021356321 r=20.822188298792337 stroke=""none"" stroke-width=""1.5"" fill=""none"" />
    <polygon points = ""538.21,432 544.0671774575088,411.17781170120765 532.3528225424913,411.17781170120765"" stroke=""none"" stroke-width=""3"" fill = ""none"" />
    
    </svg>
    </div>
        ","","","","","","","","","","","","","","","","","","","","","","","","","","","","",""
"html-keyboard-response","59","258373","0.0-59.0","null","null","","
    <div style="" display: block;  position: relative;"">
    <svg width=1536 height=864>
    
    <circle cx=705 cy=432 r=14.575531809154635 stroke=""black"" stroke-width=""1"" fill=""black"" />
    <circle cx=871.79 cy=432 r=20.822188298792337 stroke=""black"" stroke-width=""1.5"" fill=""none"" />
    <circle cx=917.7679071494254 cy=432 r=20.822188298792337 stroke=""black"" stroke-width=""1.5"" fill=""none"" />
    <circle cx=871.79 cy=477.9779071494254 r=20.822188298792337 stroke=""black"" stroke-width=""1.5"" fill=""none"" />
    <circle cx=825.8120928505746 cy=432 r=20.822188298792337 stroke=""black"" stroke-width=""1.5"" fill=""none"" />
    <circle cx=871.79 cy=386.0220928505746 r=20.822188298792337 stroke=""black"" stroke-width=""1.5"" fill=""none"" />
    <polygon points = ""871.79,432 877.6471774575087,452.82218829879235 865.9328225424912,452.82218829879235"" stroke=""white"" stroke-width=""3"" fill = ""white"" />
    
    </svg>
    </div>
        ","","","","","","","","","","","","stimulus","","","","","","","","","","","","","","","","",""
"html-keyboard-response","60","258982","0.0-60.0","607.5","arrowup","","
    <div style="" display: block;  position: relative;"">
    
    <svg width=1536 height=864>
    <circle cx=705 cy=432 r=14.575531809154635 stroke=""black"" stroke-width=""1"" fill=""black"" />
    <circle cx=917.7679071494254 cy=432 r=20.822188298792337 stroke=""none"" stroke-width=""1.5"" fill=""none"" />
    <circle cx=871.79 cy=477.9779071494254 r=20.822188298792337 stroke=""none"" stroke-width=""1.5"" fill=""none"" />
    <circle cx=825.8120928505746 cy=432 r=20.822188298792337 stroke=""none"" stroke-width=""1.5"" fill=""none"" />
    <circle cx=871.79 cy=386.0220928505746 r=20.822188298792337 stroke=""none"" stroke-width=""1.5"" fill=""none"" />
    <polygon points = ""871.79,432 877.6471774575087,452.82218829879235 865.9328225424912,452.82218829879235"" stroke=""none"" stroke-width=""3"" fill = ""none"" />
    
    </svg>
    </div>
        ","","","","","","","","","","","","get_response","false","FgKp9F75Ace3Znhw","","","false","false","false","166.79","4","527.184","45.97790714942536","1.1","1","0","","",""
"html-keyboard-response","61","259488","0.0-61.0","null","null","","
    <div style="" display: block;  position: relative;"">
    
    <svg width=1536 height=864>
    <circle cx=705 cy=432 r=14.575531809154635 stroke=""black"" stroke-width=""1"" fill=""black"" />
    <circle cx=917.7679071494254 cy=432 r=20.822188298792337 stroke=""none"" stroke-width=""1.5"" fill=""none"" />
    <circle cx=871.79 cy=477.9779071494254 r=20.822188298792337 stroke=""none"" stroke-width=""1.5"" fill=""none"" />
    <circle cx=825.8120928505746 cy=432 r=20.822188298792337 stroke=""none"" stroke-width=""1.5"" fill=""none"" />
    <circle cx=871.79 cy=386.0220928505746 r=20.822188298792337 stroke=""none"" stroke-width=""1.5"" fill=""none"" />
    <polygon points = ""871.79,432 877.6471774575087,452.82218829879235 865.9328225424912,452.82218829879235"" stroke=""none"" stroke-width=""3"" fill = ""none"" />
    
    </svg>
    </div>
        ","","","","","","","","","","","","","","","","","","","","","","","","","","","","",""
"html-keyboard-response","62","259645","0.0-62.0","null","null","","
    <div style="" display: block;  position: relative;"">
    <svg width=1536 height=864>
    
    <circle cx=705 cy=432 r=14.575531809154635 stroke=""black"" stroke-width=""1"" fill=""black"" />
    <circle cx=538.21 cy=432 r=20.822188298792337 stroke=""black"" stroke-width=""1.5"" fill=""none"" />
    <circle cx=597.981279294253 cy=432 r=20.822188298792337 stroke=""black"" stroke-width=""1.5"" fill=""none"" />
    <circle cx=538.21 cy=491.77127929425296 r=20.822188298792337 stroke=""black"" stroke-width=""1.5"" fill=""none"" />
    <circle cx=478.4387207057471 cy=432 r=20.822188298792337 stroke=""black"" stroke-width=""1.5"" fill=""none"" />
    <circle cx=538.21 cy=372.22872070574704 r=20.822188298792337 stroke=""black"" stroke-width=""1.5"" fill=""none"" />
    <polygon points = ""538.21,432 544.0671774575088,452.82218829879235 532.3528225424913,452.82218829879235"" stroke=""white"" stroke-width=""3"" fill = ""white"" />
    
    </svg>
    </div>
        ","","","","","","","","","","","","stimulus","","","","","","","","","","","","","","","","",""
"html-keyboard-response","63","260087","0.0-63.0","440.39999997615814","arrowdown","","
    <div style="" display: block;  position: relative;"">
    
    <svg width=1536 height=864>
    <circle cx=705 cy=432 r=14.575531809154635 stroke=""black"" stroke-width=""1"" fill=""black"" />
    <circle cx=597.981279294253 cy=432 r=20.822188298792337 stroke=""none"" stroke-width=""1.5"" fill=""none"" />
    <circle cx=538.21 cy=491.77127929425296 r=20.822188298792337 stroke=""none"" stroke-width=""1.5"" fill=""none"" />
    <circle cx=478.4387207057471 cy=432 r=20.822188298792337 stroke=""none"" stroke-width=""1.5"" fill=""none"" />
    <circle cx=538.21 cy=372.22872070574704 r=20.822188298792337 stroke=""none"" stroke-width=""1.5"" fill=""none"" />
    <polygon points = ""538.21,432 544.0671774575088,452.82218829879235 532.3528225424913,452.82218829879235"" stroke=""none"" stroke-width=""3"" fill = ""none"" />
    
    </svg>
    </div>
        ","","","","","","","","","","","","get_response","true","FgKp9F75Ace3Znhw","","","true","false","false","166.79","4","527.184","59.77127929425297","1.43","1","0","","",""
"html-keyboard-response","64","260595","0.0-64.0","null","null","","
    <div style="" display: block;  position: relative;"">
    
    <svg width=1536 height=864>
    <circle cx=705 cy=432 r=14.575531809154635 stroke=""black"" stroke-width=""1"" fill=""black"" />
    <circle cx=597.981279294253 cy=432 r=20.822188298792337 stroke=""none"" stroke-width=""1.5"" fill=""none"" />
    <circle cx=538.21 cy=491.77127929425296 r=20.822188298792337 stroke=""none"" stroke-width=""1.5"" fill=""none"" />
    <circle cx=478.4387207057471 cy=432 r=20.822188298792337 stroke=""none"" stroke-width=""1.5"" fill=""none"" />
    <circle cx=538.21 cy=372.22872070574704 r=20.822188298792337 stroke=""none"" stroke-width=""1.5"" fill=""none"" />
    <polygon points = ""538.21,432 544.0671774575088,452.82218829879235 532.3528225424913,452.82218829879235"" stroke=""none"" stroke-width=""3"" fill = ""none"" />
    
    </svg>
    </div>
        ","","","","","","","","","","","","","","","","","","","","","","","","","","","","",""
"html-keyboard-response","65","260752","0.0-65.0","null","null","","
    <div style="" display: block;  position: relative;"">
    <svg width=1536 height=864>
    
    <circle cx=705 cy=432 r=14.575531809154635 stroke=""black"" stroke-width=""1"" fill=""black"" />
    <circle cx=538.21 cy=432 r=20.822188298792337 stroke=""black"" stroke-width=""1.5"" fill=""none"" />
    <circle cx=597.981279294253 cy=432 r=20.822188298792337 stroke=""black"" stroke-width=""1.5"" fill=""none"" />
    <circle cx=538.21 cy=491.77127929425296 r=20.822188298792337 stroke=""black"" stroke-width=""1.5"" fill=""none"" />
    <circle cx=478.4387207057471 cy=432 r=20.822188298792337 stroke=""black"" stroke-width=""1.5"" fill=""none"" />
    <circle cx=538.21 cy=372.22872070574704 r=20.822188298792337 stroke=""black"" stroke-width=""1.5"" fill=""none"" />
    <polygon points = ""538.21,432 544.0671774575088,411.17781170120765 532.3528225424913,411.17781170120765"" stroke=""white"" stroke-width=""3"" fill = ""white"" />
    
    </svg>
    </div>
        ","","","","","","","","","","","","stimulus","","","","","","","","","","","","","","","","",""
"html-keyboard-response","66","261315","0.0-66.0","560.8999999761581","arrowup","","
    <div style="" display: block;  position: relative;"">
    
    <svg width=1536 height=864>
    <circle cx=705 cy=432 r=14.575531809154635 stroke=""black"" stroke-width=""1"" fill=""black"" />
    <circle cx=597.981279294253 cy=432 r=20.822188298792337 stroke=""none"" stroke-width=""1.5"" fill=""none"" />
    <circle cx=538.21 cy=491.77127929425296 r=20.822188298792337 stroke=""none"" stroke-width=""1.5"" fill=""none"" />
    <circle cx=478.4387207057471 cy=432 r=20.822188298792337 stroke=""none"" stroke-width=""1.5"" fill=""none"" />
    <circle cx=538.21 cy=372.22872070574704 r=20.822188298792337 stroke=""none"" stroke-width=""1.5"" fill=""none"" />
    <polygon points = ""538.21,432 544.0671774575088,411.17781170120765 532.3528225424913,411.17781170120765"" stroke=""none"" stroke-width=""3"" fill = ""none"" />
    
    </svg>
    </div>
        ","","","","","","","","","","","","get_response","true","FgKp9F75Ace3Znhw","","","true","true","false","166.79","4","527.184","59.77127929425297","1.43","1","0","","",""
"html-keyboard-response","67","261823","0.0-67.0","null","null","","
    <div style="" display: block;  position: relative;"">
    
    <svg width=1536 height=864>
    <circle cx=705 cy=432 r=14.575531809154635 stroke=""black"" stroke-width=""1"" fill=""black"" />
    <circle cx=597.981279294253 cy=432 r=20.822188298792337 stroke=""none"" stroke-width=""1.5"" fill=""none"" />
    <circle cx=538.21 cy=491.77127929425296 r=20.822188298792337 stroke=""none"" stroke-width=""1.5"" fill=""none"" />
    <circle cx=478.4387207057471 cy=432 r=20.822188298792337 stroke=""none"" stroke-width=""1.5"" fill=""none"" />
    <circle cx=538.21 cy=372.22872070574704 r=20.822188298792337 stroke=""none"" stroke-width=""1.5"" fill=""none"" />
    <polygon points = ""538.21,432 544.0671774575088,411.17781170120765 532.3528225424913,411.17781170120765"" stroke=""none"" stroke-width=""3"" fill = ""none"" />
    
    </svg>
    </div>
        ","","","","","","","","","","","","","","","","","","","","","","","","","","","","",""
"html-keyboard-response","68","261984","0.0-68.0","null","null","","
    <div style="" display: block;  position: relative;"">
    <svg width=1536 height=864>
    
    <circle cx=705 cy=432 r=14.575531809154635 stroke=""black"" stroke-width=""1"" fill=""black"" />
    <circle cx=871.79 cy=432 r=20.822188298792337 stroke=""black"" stroke-width=""1.5"" fill=""none"" />
    <circle cx=931.5612792942529 cy=432 r=20.822188298792337 stroke=""black"" stroke-width=""1.5"" fill=""none"" />
    <circle cx=871.79 cy=491.77127929425296 r=20.822188298792337 stroke=""black"" stroke-width=""1.5"" fill=""none"" />
    <circle cx=812.018720705747 cy=432 r=20.822188298792337 stroke=""black"" stroke-width=""1.5"" fill=""none"" />
    <circle cx=871.79 cy=372.22872070574704 r=20.822188298792337 stroke=""black"" stroke-width=""1.5"" fill=""none"" />
    <polygon points = ""871.79,432 877.6471774575087,411.17781170120765 865.9328225424912,411.17781170120765"" stroke=""white"" stroke-width=""3"" fill = ""white"" />
    
    </svg>
    </div>
        ","","","","","","","","","","","","stimulus","","","","","","","","","","","","","","","","",""
"html-keyboard-response","69","262478","0.0-69.0","492.7000000476837","arrowup","","
    <div style="" display: block;  position: relative;"">
    
    <svg width=1536 height=864>
    <circle cx=705 cy=432 r=14.575531809154635 stroke=""black"" stroke-width=""1"" fill=""black"" />
    <circle cx=931.5612792942529 cy=432 r=20.822188298792337 stroke=""none"" stroke-width=""1.5"" fill=""none"" />
    <circle cx=871.79 cy=491.77127929425296 r=20.822188298792337 stroke=""none"" stroke-width=""1.5"" fill=""none"" />
    <circle cx=812.018720705747 cy=432 r=20.822188298792337 stroke=""none"" stroke-width=""1.5"" fill=""none"" />
    <circle cx=871.79 cy=372.22872070574704 r=20.822188298792337 stroke=""none"" stroke-width=""1.5"" fill=""none"" />
    <polygon points = ""871.79,432 877.6471774575087,411.17781170120765 865.9328225424912,411.17781170120765"" stroke=""none"" stroke-width=""3"" fill = ""none"" />
    
    </svg>
    </div>
        ","","","","","","","","","","","","get_response","true","FgKp9F75Ace3Znhw","","","false","true","false","166.79","4","527.184","59.77127929425297","1.43","1","0","","",""
"html-keyboard-response","70","262997","0.0-70.0","null","null","","
    <div style="" display: block;  position: relative;"">
    
    <svg width=1536 height=864>
    <circle cx=705 cy=432 r=14.575531809154635 stroke=""black"" stroke-width=""1"" fill=""black"" />
    <circle cx=931.5612792942529 cy=432 r=20.822188298792337 stroke=""none"" stroke-width=""1.5"" fill=""none"" />
    <circle cx=871.79 cy=491.77127929425296 r=20.822188298792337 stroke=""none"" stroke-width=""1.5"" fill=""none"" />
    <circle cx=812.018720705747 cy=432 r=20.822188298792337 stroke=""none"" stroke-width=""1.5"" fill=""none"" />
    <circle cx=871.79 cy=372.22872070574704 r=20.822188298792337 stroke=""none"" stroke-width=""1.5"" fill=""none"" />
    <polygon points = ""871.79,432 877.6471774575087,411.17781170120765 865.9328225424912,411.17781170120765"" stroke=""none"" stroke-width=""3"" fill = ""none"" />
    
    </svg>
    </div>
        ","","","","","","","","","","","","","","","","","","","","","","","","","","","","",""
"html-keyboard-response","71","263153","0.0-71.0","null","null","","
    <div style="" display: block;  position: relative;"">
    <svg width=1536 height=864>
    
    <circle cx=705 cy=432 r=14.575531809154635 stroke=""black"" stroke-width=""1"" fill=""black"" />
    <circle cx=871.79 cy=432 r=20.822188298792337 stroke=""black"" stroke-width=""1.5"" fill=""none"" />
    <circle cx=926.1275266311391 cy=432 r=20.822188298792337 stroke=""black"" stroke-width=""1.5"" fill=""none"" />
    <circle cx=871.79 cy=486.33752663113904 r=20.822188298792337 stroke=""black"" stroke-width=""1.5"" fill=""none"" />
    <circle cx=817.4524733688609 cy=432 r=20.822188298792337 stroke=""black"" stroke-width=""1.5"" fill=""none"" />
    <circle cx=871.79 cy=377.66247336886096 r=20.822188298792337 stroke=""black"" stroke-width=""1.5"" fill=""none"" />
    <polygon points = ""871.79,432 877.6471774575087,452.82218829879235 865.9328225424912,452.82218829879235"" stroke=""white"" stroke-width=""3"" fill = ""white"" />
    
    </svg>
    </div>
        ","","","","","","","","","","","","stimulus","","","","","","","","","","","","","","","","",""
"html-keyboard-response","72","263720","0.0-72.0","564.7000000476837","arrowdown","","
    <div style="" display: block;  position: relative;"">
    
    <svg width=1536 height=864>
    <circle cx=705 cy=432 r=14.575531809154635 stroke=""black"" stroke-width=""1"" fill=""black"" />
    <circle cx=926.1275266311391 cy=432 r=20.822188298792337 stroke=""none"" stroke-width=""1.5"" fill=""none"" />
    <circle cx=871.79 cy=486.33752663113904 r=20.822188298792337 stroke=""none"" stroke-width=""1.5"" fill=""none"" />
    <circle cx=817.4524733688609 cy=432 r=20.822188298792337 stroke=""none"" stroke-width=""1.5"" fill=""none"" />
    <circle cx=871.79 cy=377.66247336886096 r=20.822188298792337 stroke=""none"" stroke-width=""1.5"" fill=""none"" />
    <polygon points = ""871.79,432 877.6471774575087,452.82218829879235 865.9328225424912,452.82218829879235"" stroke=""none"" stroke-width=""3"" fill = ""none"" />
    
    </svg>
    </div>
        ","","","","","","","","","","","","get_response","true","FgKp9F75Ace3Znhw","","","false","false","false","166.79","4","527.184","54.337526631139056","1.3","1","0","","",""
"html-keyboard-response","73","264234","0.0-73.0","null","null","","
    <div style="" display: block;  position: relative;"">
    
    <svg width=1536 height=864>
    <circle cx=705 cy=432 r=14.575531809154635 stroke=""black"" stroke-width=""1"" fill=""black"" />
    <circle cx=926.1275266311391 cy=432 r=20.822188298792337 stroke=""none"" stroke-width=""1.5"" fill=""none"" />
    <circle cx=871.79 cy=486.33752663113904 r=20.822188298792337 stroke=""none"" stroke-width=""1.5"" fill=""none"" />
    <circle cx=817.4524733688609 cy=432 r=20.822188298792337 stroke=""none"" stroke-width=""1.5"" fill=""none"" />
    <circle cx=871.79 cy=377.66247336886096 r=20.822188298792337 stroke=""none"" stroke-width=""1.5"" fill=""none"" />
    <polygon points = ""871.79,432 877.6471774575087,452.82218829879235 865.9328225424912,452.82218829879235"" stroke=""none"" stroke-width=""3"" fill = ""none"" />
    
    </svg>
    </div>
        ","","","","","","","","","","","","","","","","","","","","","","","","","","","","",""
"html-keyboard-response","74","264400","0.0-74.0","null","null","","
    <div style="" display: block;  position: relative;"">
    <svg width=1536 height=864>
    
    <circle cx=705 cy=432 r=14.575531809154635 stroke=""black"" stroke-width=""1"" fill=""black"" />
    <circle cx=538.21 cy=432 r=20.822188298792337 stroke=""black"" stroke-width=""1.5"" fill=""none"" />
    <circle cx=587.6077514828537 cy=432 r=20.822188298792337 stroke=""black"" stroke-width=""1.5"" fill=""none"" />
    <circle cx=538.21 cy=481.39775148285366 r=20.822188298792337 stroke=""black"" stroke-width=""1.5"" fill=""none"" />
    <circle cx=488.8122485171464 cy=432 r=20.822188298792337 stroke=""black"" stroke-width=""1.5"" fill=""none"" />
    <circle cx=538.21 cy=382.60224851714634 r=20.822188298792337 stroke=""black"" stroke-width=""1.5"" fill=""none"" />
    <polygon points = ""538.21,432 544.0671774575088,411.17781170120765 532.3528225424913,411.17781170120765"" stroke=""white"" stroke-width=""3"" fill = ""white"" />
    
    </svg>
    </div>
        ","","","","","","","","","","","","stimulus","","","","","","","","","","","","","","","","",""
"html-keyboard-response","75","264865","0.0-75.0","462.89999997615814","arrowup","","
    <div style="" display: block;  position: relative;"">
    
    <svg width=1536 height=864>
    <circle cx=705 cy=432 r=14.575531809154635 stroke=""black"" stroke-width=""1"" fill=""black"" />
    <circle cx=587.6077514828537 cy=432 r=20.822188298792337 stroke=""none"" stroke-width=""1.5"" fill=""none"" />
    <circle cx=538.21 cy=481.39775148285366 r=20.822188298792337 stroke=""none"" stroke-width=""1.5"" fill=""none"" />
    <circle cx=488.8122485171464 cy=432 r=20.822188298792337 stroke=""none"" stroke-width=""1.5"" fill=""none"" />
    <circle cx=538.21 cy=382.60224851714634 r=20.822188298792337 stroke=""none"" stroke-width=""1.5"" fill=""none"" />
    <polygon points = ""538.21,432 544.0671774575088,411.17781170120765 532.3528225424913,411.17781170120765"" stroke=""none"" stroke-width=""3"" fill = ""none"" />
    
    </svg>
    </div>
        ","","","","","","","","","","","","get_response","true","FgKp9F75Ace3Znhw","","","true","true","false","166.79","4","527.184","49.397751482853685","1.18","1","0","","",""
"html-keyboard-response","76","265371","0.0-76.0","null","null","","
    <div style="" display: block;  position: relative;"">
    
    <svg width=1536 height=864>
    <circle cx=705 cy=432 r=14.575531809154635 stroke=""black"" stroke-width=""1"" fill=""black"" />
    <circle cx=587.6077514828537 cy=432 r=20.822188298792337 stroke=""none"" stroke-width=""1.5"" fill=""none"" />
    <circle cx=538.21 cy=481.39775148285366 r=20.822188298792337 stroke=""none"" stroke-width=""1.5"" fill=""none"" />
    <circle cx=488.8122485171464 cy=432 r=20.822188298792337 stroke=""none"" stroke-width=""1.5"" fill=""none"" />
    <circle cx=538.21 cy=382.60224851714634 r=20.822188298792337 stroke=""none"" stroke-width=""1.5"" fill=""none"" />
    <polygon points = ""538.21,432 544.0671774575088,411.17781170120765 532.3528225424913,411.17781170120765"" stroke=""none"" stroke-width=""3"" fill = ""none"" />
    
    </svg>
    </div>
        ","","","","","","","","","","","","","","","","","","","","","","","","","","","","",""
"html-keyboard-response","77","265532","0.0-77.0","null","null","","
    <div style="" display: block;  position: relative;"">
    <svg width=1536 height=864>
    
    <circle cx=705 cy=432 r=14.575531809154635 stroke=""black"" stroke-width=""1"" fill=""black"" />
    <circle cx=538.21 cy=432 r=20.822188298792337 stroke=""black"" stroke-width=""1.5"" fill=""none"" />
    <circle cx=583.1170468025942 cy=432 r=20.822188298792337 stroke=""black"" stroke-width=""1.5"" fill=""none"" />
    <circle cx=538.21 cy=476.90704680259427 r=20.822188298792337 stroke=""black"" stroke-width=""1.5"" fill=""none"" />
    <circle cx=493.30295319740577 cy=432 r=20.822188298792337 stroke=""black"" stroke-width=""1.5"" fill=""none"" />
    <circle cx=538.21 cy=387.09295319740573 r=20.822188298792337 stroke=""black"" stroke-width=""1.5"" fill=""none"" />
    <polygon points = ""538.21,432 544.0671774575088,411.17781170120765 532.3528225424913,411.17781170120765"" stroke=""white"" stroke-width=""3"" fill = ""white"" />
    
    </svg>
    </div>
        ","","","","","","","","","","","","stimulus","","","","","","","","","","","","","","","","",""
"html-keyboard-response","78","266084","0.0-78.0","549.8999999761581","arrowup","","
    <div style="" display: block;  position: relative;"">
    
    <svg width=1536 height=864>
    <circle cx=705 cy=432 r=14.575531809154635 stroke=""black"" stroke-width=""1"" fill=""black"" />
    <circle cx=583.1170468025942 cy=432 r=20.822188298792337 stroke=""none"" stroke-width=""1.5"" fill=""none"" />
    <circle cx=538.21 cy=476.90704680259427 r=20.822188298792337 stroke=""none"" stroke-width=""1.5"" fill=""none"" />
    <circle cx=493.30295319740577 cy=432 r=20.822188298792337 stroke=""none"" stroke-width=""1.5"" fill=""none"" />
    <circle cx=538.21 cy=387.09295319740573 r=20.822188298792337 stroke=""none"" stroke-width=""1.5"" fill=""none"" />
    <polygon points = ""538.21,432 544.0671774575088,411.17781170120765 532.3528225424913,411.17781170120765"" stroke=""none"" stroke-width=""3"" fill = ""none"" />
    
    </svg>
    </div>
        ","","","","","","","","","","","","get_response","true","FgKp9F75Ace3Znhw","","","true","true","false","166.79","4","527.184","44.90704680259426","1.08","1","0","","",""
"html-keyboard-response","79","266590","0.0-79.0","null","null","","
    <div style="" display: block;  position: relative;"">
    
    <svg width=1536 height=864>
    <circle cx=705 cy=432 r=14.575531809154635 stroke=""black"" stroke-width=""1"" fill=""black"" />
    <circle cx=583.1170468025942 cy=432 r=20.822188298792337 stroke=""none"" stroke-width=""1.5"" fill=""none"" />
    <circle cx=538.21 cy=476.90704680259427 r=20.822188298792337 stroke=""none"" stroke-width=""1.5"" fill=""none"" />
    <circle cx=493.30295319740577 cy=432 r=20.822188298792337 stroke=""none"" stroke-width=""1.5"" fill=""none"" />
    <circle cx=538.21 cy=387.09295319740573 r=20.822188298792337 stroke=""none"" stroke-width=""1.5"" fill=""none"" />
    <polygon points = ""538.21,432 544.0671774575088,411.17781170120765 532.3528225424913,411.17781170120765"" stroke=""none"" stroke-width=""3"" fill = ""none"" />
    
    </svg>
    </div>
        ","","","","","","","","","","","","","","","","","","","","","","","","","","","","",""
"html-keyboard-response","80","266746","0.0-80.0","null","null","","
    <div style="" display: block;  position: relative;"">
    <svg width=1536 height=864>
    
    <circle cx=705 cy=432 r=14.575531809154635 stroke=""black"" stroke-width=""1"" fill=""black"" />
    <circle cx=538.21 cy=432 r=20.822188298792337 stroke=""black"" stroke-width=""1.5"" fill=""none"" />
    <circle cx=579.8543765975847 cy=432 r=20.822188298792337 stroke=""black"" stroke-width=""1.5"" fill=""none"" />
    <circle cx=538.21 cy=473.64437659758465 r=20.822188298792337 stroke=""black"" stroke-width=""1.5"" fill=""none"" />
    <circle cx=496.5656234024154 cy=432 r=20.822188298792337 stroke=""black"" stroke-width=""1.5"" fill=""none"" />
    <circle cx=538.21 cy=390.35562340241535 r=20.822188298792337 stroke=""black"" stroke-width=""1.5"" fill=""none"" />
    <polygon points = ""538.21,432 544.0671774575088,411.17781170120765 532.3528225424913,411.17781170120765"" stroke=""white"" stroke-width=""3"" fill = ""white"" />
    
    </svg>
    </div>
        ","","","","","","","","","","","","stimulus","","","","","","","","","","","","","","","","",""
"html-keyboard-response","81","267264","0.0-81.0","515.8000000715256","arrowup","","
    <div style="" display: block;  position: relative;"">
    
    <svg width=1536 height=864>
    <circle cx=705 cy=432 r=14.575531809154635 stroke=""black"" stroke-width=""1"" fill=""black"" />
    <circle cx=579.8543765975847 cy=432 r=20.822188298792337 stroke=""none"" stroke-width=""1.5"" fill=""none"" />
    <circle cx=538.21 cy=473.64437659758465 r=20.822188298792337 stroke=""none"" stroke-width=""1.5"" fill=""none"" />
    <circle cx=496.5656234024154 cy=432 r=20.822188298792337 stroke=""none"" stroke-width=""1.5"" fill=""none"" />
    <circle cx=538.21 cy=390.35562340241535 r=20.822188298792337 stroke=""none"" stroke-width=""1.5"" fill=""none"" />
    <polygon points = ""538.21,432 544.0671774575088,411.17781170120765 532.3528225424913,411.17781170120765"" stroke=""none"" stroke-width=""3"" fill = ""none"" />
    
    </svg>
    </div>
        ","","","","","","","","","","","","get_response","true","FgKp9F75Ace3Znhw","","","true","true","false","166.79","4","527.184","41.644376597584674","1","1","0","","",""
"html-keyboard-response","82","267772","0.0-82.0","null","null","","
    <div style="" display: block;  position: relative;"">
    
    <svg width=1536 height=864>
    <circle cx=705 cy=432 r=14.575531809154635 stroke=""black"" stroke-width=""1"" fill=""black"" />
    <circle cx=579.8543765975847 cy=432 r=20.822188298792337 stroke=""none"" stroke-width=""1.5"" fill=""none"" />
    <circle cx=538.21 cy=473.64437659758465 r=20.822188298792337 stroke=""none"" stroke-width=""1.5"" fill=""none"" />
    <circle cx=496.5656234024154 cy=432 r=20.822188298792337 stroke=""none"" stroke-width=""1.5"" fill=""none"" />
    <circle cx=538.21 cy=390.35562340241535 r=20.822188298792337 stroke=""none"" stroke-width=""1.5"" fill=""none"" />
    <polygon points = ""538.21,432 544.0671774575088,411.17781170120765 532.3528225424913,411.17781170120765"" stroke=""none"" stroke-width=""3"" fill = ""none"" />
    
    </svg>
    </div>
        ","","","","","","","","","","","","","","","","","","","","","","","","","","","","",""
"html-keyboard-response","83","267937","0.0-83.0","null","null","","
    <div style="" display: block;  position: relative;"">
    <svg width=1536 height=864>
    
    <circle cx=705 cy=432 r=14.575531809154635 stroke=""black"" stroke-width=""1"" fill=""black"" />
    <circle cx=538.21 cy=432 r=20.822188298792337 stroke=""black"" stroke-width=""1.5"" fill=""none"" />
    <circle cx=579.8543765975847 cy=432 r=20.822188298792337 stroke=""black"" stroke-width=""1.5"" fill=""none"" />
    <circle cx=538.21 cy=473.64437659758465 r=20.822188298792337 stroke=""black"" stroke-width=""1.5"" fill=""none"" />
    <circle cx=496.5656234024154 cy=432 r=20.822188298792337 stroke=""black"" stroke-width=""1.5"" fill=""none"" />
    <circle cx=538.21 cy=390.35562340241535 r=20.822188298792337 stroke=""black"" stroke-width=""1.5"" fill=""none"" />
    <polygon points = ""538.21,432 544.0671774575088,452.82218829879235 532.3528225424913,452.82218829879235"" stroke=""white"" stroke-width=""3"" fill = ""white"" />
    
    </svg>
    </div>
        ","","","","","","","","","","","","stimulus","","","","","","","","","","","","","","","","",""
"html-keyboard-response","84","268668","0.0-84.0","730","arrowup","","
    <div style="" display: block;  position: relative;"">
    
    <svg width=1536 height=864>
    <circle cx=705 cy=432 r=14.575531809154635 stroke=""black"" stroke-width=""1"" fill=""black"" />
    <circle cx=579.8543765975847 cy=432 r=20.822188298792337 stroke=""none"" stroke-width=""1.5"" fill=""none"" />
    <circle cx=538.21 cy=473.64437659758465 r=20.822188298792337 stroke=""none"" stroke-width=""1.5"" fill=""none"" />
    <circle cx=496.5656234024154 cy=432 r=20.822188298792337 stroke=""none"" stroke-width=""1.5"" fill=""none"" />
    <circle cx=538.21 cy=390.35562340241535 r=20.822188298792337 stroke=""none"" stroke-width=""1.5"" fill=""none"" />
    <polygon points = ""538.21,432 544.0671774575088,452.82218829879235 532.3528225424913,452.82218829879235"" stroke=""none"" stroke-width=""3"" fill = ""none"" />
    
    </svg>
    </div>
        ","","","","","","","","","","","","get_response","false","FgKp9F75Ace3Znhw","","","true","false","false","166.79","4","527.184","41.644376597584674","1","1","0","","",""
"html-keyboard-response","85","269170","0.0-85.0","null","null","","
    <div style="" display: block;  position: relative;"">
    
    <svg width=1536 height=864>
    <circle cx=705 cy=432 r=14.575531809154635 stroke=""black"" stroke-width=""1"" fill=""black"" />
    <circle cx=579.8543765975847 cy=432 r=20.822188298792337 stroke=""none"" stroke-width=""1.5"" fill=""none"" />
    <circle cx=538.21 cy=473.64437659758465 r=20.822188298792337 stroke=""none"" stroke-width=""1.5"" fill=""none"" />
    <circle cx=496.5656234024154 cy=432 r=20.822188298792337 stroke=""none"" stroke-width=""1.5"" fill=""none"" />
    <circle cx=538.21 cy=390.35562340241535 r=20.822188298792337 stroke=""none"" stroke-width=""1.5"" fill=""none"" />
    <polygon points = ""538.21,432 544.0671774575088,452.82218829879235 532.3528225424913,452.82218829879235"" stroke=""none"" stroke-width=""3"" fill = ""none"" />
    
    </svg>
    </div>
        ","","","","","","","","","","","","","","","","","","","","","","","","","","","","",""
"html-keyboard-response","86","269329","0.0-86.0","null","null","","
    <div style="" display: block;  position: relative;"">
    <svg width=1536 height=864>
    
    <circle cx=705 cy=432 r=14.575531809154635 stroke=""black"" stroke-width=""1"" fill=""black"" />
    <circle cx=538.21 cy=432 r=20.822188298792337 stroke=""black"" stroke-width=""1.5"" fill=""none"" />
    <circle cx=592.3476895768601 cy=432 r=20.822188298792337 stroke=""black"" stroke-width=""1.5"" fill=""none"" />
    <circle cx=538.21 cy=486.13768957686005 r=20.822188298792337 stroke=""black"" stroke-width=""1.5"" fill=""none"" />
    <circle cx=484.07231042314 cy=432 r=20.822188298792337 stroke=""black"" stroke-width=""1.5"" fill=""none"" />
    <circle cx=538.21 cy=377.86231042313995 r=20.822188298792337 stroke=""black"" stroke-width=""1.5"" fill=""none"" />
    <polygon points = ""538.21,432 544.0671774575088,411.17781170120765 532.3528225424913,411.17781170120765"" stroke=""white"" stroke-width=""3"" fill = ""white"" />
    
    </svg>
    </div>
        ","","","","","","","","","","","","stimulus","","","","","","","","","","","","","","","","",""
"html-keyboard-response","87","270033","0.0-87.0","701.8999999761581","arrowup","","
    <div style="" display: block;  position: relative;"">
    
    <svg width=1536 height=864>
    <circle cx=705 cy=432 r=14.575531809154635 stroke=""black"" stroke-width=""1"" fill=""black"" />
    <circle cx=592.3476895768601 cy=432 r=20.822188298792337 stroke=""none"" stroke-width=""1.5"" fill=""none"" />
    <circle cx=538.21 cy=486.13768957686005 r=20.822188298792337 stroke=""none"" stroke-width=""1.5"" fill=""none"" />
    <circle cx=484.07231042314 cy=432 r=20.822188298792337 stroke=""none"" stroke-width=""1.5"" fill=""none"" />
    <circle cx=538.21 cy=377.86231042313995 r=20.822188298792337 stroke=""none"" stroke-width=""1.5"" fill=""none"" />
    <polygon points = ""538.21,432 544.0671774575088,411.17781170120765 532.3528225424913,411.17781170120765"" stroke=""none"" stroke-width=""3"" fill = ""none"" />
    
    </svg>
    </div>
        ","","","","","","","","","","","","get_response","true","FgKp9F75Ace3Znhw","","","true","true","false","166.79","4","527.184","54.137689576860076","1.3","1","0","","",""
"html-keyboard-response","88","270541","0.0-88.0","null","null","","
    <div style="" display: block;  position: relative;"">
    
    <svg width=1536 height=864>
    <circle cx=705 cy=432 r=14.575531809154635 stroke=""black"" stroke-width=""1"" fill=""black"" />
    <circle cx=592.3476895768601 cy=432 r=20.822188298792337 stroke=""none"" stroke-width=""1.5"" fill=""none"" />
    <circle cx=538.21 cy=486.13768957686005 r=20.822188298792337 stroke=""none"" stroke-width=""1.5"" fill=""none"" />
    <circle cx=484.07231042314 cy=432 r=20.822188298792337 stroke=""none"" stroke-width=""1.5"" fill=""none"" />
    <circle cx=538.21 cy=377.86231042313995 r=20.822188298792337 stroke=""none"" stroke-width=""1.5"" fill=""none"" />
    <polygon points = ""538.21,432 544.0671774575088,411.17781170120765 532.3528225424913,411.17781170120765"" stroke=""none"" stroke-width=""3"" fill = ""none"" />
    
    </svg>
    </div>
        ","","","","","","","","","","","","","","","","","","","","","","","","","","","","",""
"html-keyboard-response","89","270700","0.0-89.0","null","null","","
    <div style="" display: block;  position: relative;"">
    <svg width=1536 height=864>
    
    <circle cx=705 cy=432 r=14.575531809154635 stroke=""black"" stroke-width=""1"" fill=""black"" />
    <circle cx=538.21 cy=432 r=20.822188298792337 stroke=""black"" stroke-width=""1.5"" fill=""none"" />
    <circle cx=592.3476895768601 cy=432 r=20.822188298792337 stroke=""black"" stroke-width=""1.5"" fill=""none"" />
    <circle cx=538.21 cy=486.13768957686005 r=20.822188298792337 stroke=""black"" stroke-width=""1.5"" fill=""none"" />
    <circle cx=484.07231042314 cy=432 r=20.822188298792337 stroke=""black"" stroke-width=""1.5"" fill=""none"" />
    <circle cx=538.21 cy=377.86231042313995 r=20.822188298792337 stroke=""black"" stroke-width=""1.5"" fill=""none"" />
    <polygon points = ""538.21,432 544.0671774575088,452.82218829879235 532.3528225424913,452.82218829879235"" stroke=""white"" stroke-width=""3"" fill = ""white"" />
    
    </svg>
    </div>
        ","","","","","","","","","","","","stimulus","","","","","","","","","","","","","","","","",""
"html-keyboard-response","90","271214","0.0-90.0","511.39999997615814","arrowdown","","
    <div style="" display: block;  position: relative;"">
    
    <svg width=1536 height=864>
    <circle cx=705 cy=432 r=14.575531809154635 stroke=""black"" stroke-width=""1"" fill=""black"" />
    <circle cx=592.3476895768601 cy=432 r=20.822188298792337 stroke=""none"" stroke-width=""1.5"" fill=""none"" />
    <circle cx=538.21 cy=486.13768957686005 r=20.822188298792337 stroke=""none"" stroke-width=""1.5"" fill=""none"" />
    <circle cx=484.07231042314 cy=432 r=20.822188298792337 stroke=""none"" stroke-width=""1.5"" fill=""none"" />
    <circle cx=538.21 cy=377.86231042313995 r=20.822188298792337 stroke=""none"" stroke-width=""1.5"" fill=""none"" />
    <polygon points = ""538.21,432 544.0671774575088,452.82218829879235 532.3528225424913,452.82218829879235"" stroke=""none"" stroke-width=""3"" fill = ""none"" />
    
    </svg>
    </div>
        ","","","","","","","","","","","","get_response","true","FgKp9F75Ace3Znhw","","","true","false","false","166.79","4","527.184","54.137689576860076","1.3","1","0","","",""
"html-keyboard-response","91","271716","0.0-91.0","null","null","","
    <div style="" display: block;  position: relative;"">
    
    <svg width=1536 height=864>
    <circle cx=705 cy=432 r=14.575531809154635 stroke=""black"" stroke-width=""1"" fill=""black"" />
    <circle cx=592.3476895768601 cy=432 r=20.822188298792337 stroke=""none"" stroke-width=""1.5"" fill=""none"" />
    <circle cx=538.21 cy=486.13768957686005 r=20.822188298792337 stroke=""none"" stroke-width=""1.5"" fill=""none"" />
    <circle cx=484.07231042314 cy=432 r=20.822188298792337 stroke=""none"" stroke-width=""1.5"" fill=""none"" />
    <circle cx=538.21 cy=377.86231042313995 r=20.822188298792337 stroke=""none"" stroke-width=""1.5"" fill=""none"" />
    <polygon points = ""538.21,432 544.0671774575088,452.82218829879235 532.3528225424913,452.82218829879235"" stroke=""none"" stroke-width=""3"" fill = ""none"" />
    
    </svg>
    </div>
        ","","","","","","","","","","","","","","","","","","","","","","","","","","","","",""
"html-keyboard-response","92","271872","0.0-92.0","null","null","","
    <div style="" display: block;  position: relative;"">
    <svg width=1536 height=864>
    
    <circle cx=705 cy=432 r=14.575531809154635 stroke=""black"" stroke-width=""1"" fill=""black"" />
    <circle cx=871.79 cy=432 r=20.822188298792337 stroke=""black"" stroke-width=""1.5"" fill=""none"" />
    <circle cx=925.9276895768601 cy=432 r=20.822188298792337 stroke=""black"" stroke-width=""1.5"" fill=""none"" />
    <circle cx=871.79 cy=486.13768957686005 r=20.822188298792337 stroke=""black"" stroke-width=""1.5"" fill=""none"" />
    <circle cx=817.6523104231399 cy=432 r=20.822188298792337 stroke=""black"" stroke-width=""1.5"" fill=""none"" />
    <circle cx=871.79 cy=377.86231042313995 r=20.822188298792337 stroke=""black"" stroke-width=""1.5"" fill=""none"" />
    <polygon points = ""871.79,432 877.6471774575087,452.82218829879235 865.9328225424912,452.82218829879235"" stroke=""white"" stroke-width=""3"" fill = ""white"" />
    
    </svg>
    </div>
        ","","","","","","","","","","","","stimulus","","","","","","","","","","","","","","","","",""
"html-keyboard-response","93","272352","0.0-93.0","477.5","arrowdown","","
    <div style="" display: block;  position: relative;"">
    
    <svg width=1536 height=864>
    <circle cx=705 cy=432 r=14.575531809154635 stroke=""black"" stroke-width=""1"" fill=""black"" />
    <circle cx=925.9276895768601 cy=432 r=20.822188298792337 stroke=""none"" stroke-width=""1.5"" fill=""none"" />
    <circle cx=871.79 cy=486.13768957686005 r=20.822188298792337 stroke=""none"" stroke-width=""1.5"" fill=""none"" />
    <circle cx=817.6523104231399 cy=432 r=20.822188298792337 stroke=""none"" stroke-width=""1.5"" fill=""none"" />
    <circle cx=871.79 cy=377.86231042313995 r=20.822188298792337 stroke=""none"" stroke-width=""1.5"" fill=""none"" />
    <polygon points = ""871.79,432 877.6471774575087,452.82218829879235 865.9328225424912,452.82218829879235"" stroke=""none"" stroke-width=""3"" fill = ""none"" />
    
    </svg>
    </div>
        ","","","","","","","","","","","","get_response","true","FgKp9F75Ace3Znhw","","","false","false","false","166.79","4","527.184","54.137689576860076","1.3","1","0","","",""
"html-keyboard-response","94","272857","0.0-94.0","null","null","","
    <div style="" display: block;  position: relative;"">
    
    <svg width=1536 height=864>
    <circle cx=705 cy=432 r=14.575531809154635 stroke=""black"" stroke-width=""1"" fill=""black"" />
    <circle cx=925.9276895768601 cy=432 r=20.822188298792337 stroke=""none"" stroke-width=""1.5"" fill=""none"" />
    <circle cx=871.79 cy=486.13768957686005 r=20.822188298792337 stroke=""none"" stroke-width=""1.5"" fill=""none"" />
    <circle cx=817.6523104231399 cy=432 r=20.822188298792337 stroke=""none"" stroke-width=""1.5"" fill=""none"" />
    <circle cx=871.79 cy=377.86231042313995 r=20.822188298792337 stroke=""none"" stroke-width=""1.5"" fill=""none"" />
    <polygon points = ""871.79,432 877.6471774575087,452.82218829879235 865.9328225424912,452.82218829879235"" stroke=""none"" stroke-width=""3"" fill = ""none"" />
    
    </svg>
    </div>
        ","","","","","","","","","","","","","","","","","","","","","","","","","","","","",""
"html-keyboard-response","95","273014","0.0-95.0","null","null","","
    <div style="" display: block;  position: relative;"">
    <svg width=1536 height=864>
    
    <circle cx=705 cy=432 r=14.575531809154635 stroke=""black"" stroke-width=""1"" fill=""black"" />
    <circle cx=538.21 cy=432 r=20.822188298792337 stroke=""black"" stroke-width=""1.5"" fill=""none"" />
    <circle cx=587.4260814335092 cy=432 r=20.822188298792337 stroke=""black"" stroke-width=""1.5"" fill=""none"" />
    <circle cx=538.21 cy=481.21608143350915 r=20.822188298792337 stroke=""black"" stroke-width=""1.5"" fill=""none"" />
    <circle cx=488.9939185664909 cy=432 r=20.822188298792337 stroke=""black"" stroke-width=""1.5"" fill=""none"" />
    <circle cx=538.21 cy=382.78391856649085 r=20.822188298792337 stroke=""black"" stroke-width=""1.5"" fill=""none"" />
    <polygon points = ""538.21,432 544.0671774575088,411.17781170120765 532.3528225424913,411.17781170120765"" stroke=""white"" stroke-width=""3"" fill = ""white"" />
    
    </svg>
    </div>
        ","","","","","","","","","","","","stimulus","","","","","","","","","","","","","","","","",""
"html-keyboard-response","96","273558","0.0-96.0","542","arrowup","","
    <div style="" display: block;  position: relative;"">
    
    <svg width=1536 height=864>
    <circle cx=705 cy=432 r=14.575531809154635 stroke=""black"" stroke-width=""1"" fill=""black"" />
    <circle cx=587.4260814335092 cy=432 r=20.822188298792337 stroke=""none"" stroke-width=""1.5"" fill=""none"" />
    <circle cx=538.21 cy=481.21608143350915 r=20.822188298792337 stroke=""none"" stroke-width=""1.5"" fill=""none"" />
    <circle cx=488.9939185664909 cy=432 r=20.822188298792337 stroke=""none"" stroke-width=""1.5"" fill=""none"" />
    <circle cx=538.21 cy=382.78391856649085 r=20.822188298792337 stroke=""none"" stroke-width=""1.5"" fill=""none"" />
    <polygon points = ""538.21,432 544.0671774575088,411.17781170120765 532.3528225424913,411.17781170120765"" stroke=""none"" stroke-width=""3"" fill = ""none"" />
    
    </svg>
    </div>
        ","","","","","","","","","","","","get_response","true","FgKp9F75Ace3Znhw","","","true","true","false","166.79","4","527.184","49.21608143350915","1.18","1","0","","",""
