,trial_type,trial_index,time_elapsed,internal_node_id,rt,response,success,stimulus,start_time,start_time_unix,item_width_mm,item_height_mm,item_width_px,px2mm,view_dist_mm,item_width_deg,px2deg,win_width_deg,win_height_deg,trialType,correct,participantID,criticalSpacing,criticalSpacing_deg,isLeft,isUp,isEccen4,eccentricity,eccentricity_deg,viewingDistanceMean,critical_spacing,critical_spacing_deg,crowding_session,correctRate,viewDistance_1,viewDistance_2,viewDistance_3,age
0,pavlovia,0,3,0.0-0.0,,,,,,,,,,,,,,,,,,,,,,,,,,,,,,,,,,21
2,fullscreen,2,11792,0.0-2.0,,,True,,,,,,,,,,,,,,,,,,,,,,,,,,,,,,,21
3,html-keyboard-response,3,31632,0.0-3.0,19836.0, ,,"<h1>Consent Form</h1>
       <p>By answering the following questions, you are participating in a study being performed by cognitive scientists in the Stanford Department of Psychology. If you have questions about this research, please contact us at stanfordpsych251@gmail.com. You must be at least 18 years old to participate. Your participation in this research is voluntary. You may decline to answer any or all of the following questions. You may decline further participation by closing the window, at any time, without adverse consequences. Your anonymity is assured; the researchers who have requested your participation will not receive any personal information about you.</p>
       <p>Press <b>any key</b> to start the experiment!</p>",,,,,,,,,,,,,,,,,,,,,,,,,,,,,,21
4,html-keyboard-response,4,36471,0.0-4.0,4837.0, ,,"<h1>Welcome to the Visual Crowding Experiment!</h1>
       <p>This test will take <b>10-12</b> minutes to complete.</p>
       <p>Press any key to start the experiment!</p>",1/12/2021 01:19:36,1638343176102.0,,,,,,,,,,,,,,,,,,,,,,,,,,,,21
5,html-keyboard-response,5,45323,0.0-5.0,8850.0,arrowdown,,"<div> 
<p> Before you begin this study, let&#39;s quickly test how far away you are sitting. You might know that vision tests at a doctor&#39;s practice often involve chinrests, the doctor basically asks you to sit away from a screen in a specific distance. We do this here with a <b>virtual chinrest</b>. </p>
<p> Please press the <b>down</b> arrow to continue.
</p>
</div>",,,,,,,,,,,,,,,,,,,,,,,,,,,,,,21
6,virtual-chinrest,6,130457,0.0-6.0,85130.0,,,,,,85.6,53.98,408.0,4.77,419.64,11.647168580994222,35.029972921124525,41.10765381527373,27.40510254351582,,,,,,,,,,,,,,,,,,,21
7,html-keyboard-response,7,170513,0.0-7.0,40047.0,arrowdown,,"
	<h2 class=""bolded-blue"">Now, you will take a peripheral vision test!</h2>
<p> 
	<b>
		<font size=""140%"">1. </font>
	</b>
	<em><b>Please use both eyes for the following task.</b></em> First, you will see a screen (like the one in the image below) showing a <b>black dot</b> in the middle of the screen, with a group of circles displayed on either the <span class=""bolded-blue"">left</span> or <span class=""bolded-blue"">right</span> of the black dot for 150 ms. <span class=""bolded-blue"">Please make sure to focus on the black dot all the time!</span>

	<div>
		<img src=""example.png"" alt=""example"" style=""border: 2px solid black"" width=""600""/> 
	</div>
	
	<b>
		<font size=""140%"">2. </font>
	</b>
	Your task is to identify whether the opening of the <b class=""bolded-blue"">center circle</b> is upward by pressing UP or downward by pressing DOWN on your keyboard. The opening of the circle will only be upward or downward, not towards left or right.

	<div>
		<img src=""arrow_keys+.png"" alt=""arrows"" style=""border: 2px solid black"" width=""600""/>
	</div>
	<br>

<p>Please press the <b>down</b> arrow key to start the <span class=""bolded-blue"">practice task</span> (this first practice task will not count toward your final results).</p>
</p>
",,,,,,,,,,,,,,,,,,,,,,,,,,,,,,21
8,html-keyboard-response,8,171019,0.0-8.0,,,,"
    <div style="" display: block;  position: relative;"">
    
    <svg width=1440 height=960>
    <circle cx=657 cy=480 r=12.981804645679407 stroke=""black"" stroke-width=""1"" fill=""black"" />
    <circle cx=NaN cy=480 r=18.54543520811344 stroke=""none"" stroke-width=""1.5"" fill=""none"" />
    <circle cx=434.62 cy=NaN r=18.54543520811344 stroke=""none"" stroke-width=""1.5"" fill=""none"" />
    <circle cx=NaN cy=480 r=18.54543520811344 stroke=""none"" stroke-width=""1.5"" fill=""none"" />
    <circle cx=434.62 cy=NaN r=18.54543520811344 stroke=""none"" stroke-width=""1.5"" fill=""none"" />
    <polygon points = ""434.62,480 439.8367381968663,498.5454352081134 429.4032618031337,498.5454352081134"" stroke=""none"" stroke-width=""3"" fill = ""none"" />
    
    </svg>
    </div>
        ",,,,,,,,,,,,,,,,,,,,,,,,,,,,,,21
9,html-keyboard-response,9,171175,0.0-9.0,,,,"
    <div style="" display: block;  position: relative;"">
    <svg width=1440 height=960>
    
    <circle cx=657 cy=480 r=12.981804645679407 stroke=""black"" stroke-width=""1"" fill=""black"" />
    <circle cx=434.62 cy=480 r=18.54543520811344 stroke=""black"" stroke-width=""1.5"" fill=""none"" />
    <circle cx=579.167 cy=480 r=18.54543520811344 stroke=""black"" stroke-width=""1.5"" fill=""none"" />
    <circle cx=434.62 cy=624.547 r=18.54543520811344 stroke=""black"" stroke-width=""1.5"" fill=""none"" />
    <circle cx=290.073 cy=480 r=18.54543520811344 stroke=""black"" stroke-width=""1.5"" fill=""none"" />
    <circle cx=434.62 cy=335.453 r=18.54543520811344 stroke=""black"" stroke-width=""1.5"" fill=""none"" />
    <polygon points = ""434.62,480 439.8367381968663,498.5454352081134 429.4032618031337,498.5454352081134"" stroke=""white"" stroke-width=""3"" fill = ""white"" />
    
    </svg>
    </div>
        ",,,,,,,,,,,,stimulus,,,,,,,,,,,,,,,,,,21
10,html-keyboard-response,10,171698,0.0-10.0,519.0,arrowup,,"
    <div style="" display: block;  position: relative;"">
    
    <svg width=1440 height=960>
    <circle cx=657 cy=480 r=12.981804645679407 stroke=""black"" stroke-width=""1"" fill=""black"" />
    <circle cx=579.167 cy=480 r=18.54543520811344 stroke=""none"" stroke-width=""1.5"" fill=""none"" />
    <circle cx=434.62 cy=624.547 r=18.54543520811344 stroke=""none"" stroke-width=""1.5"" fill=""none"" />
    <circle cx=290.073 cy=480 r=18.54543520811344 stroke=""none"" stroke-width=""1.5"" fill=""none"" />
    <circle cx=434.62 cy=335.453 r=18.54543520811344 stroke=""none"" stroke-width=""1.5"" fill=""none"" />
    <polygon points = ""434.62,480 439.8367381968663,498.5454352081134 429.4032618031337,498.5454352081134"" stroke=""none"" stroke-width=""3"" fill = ""none"" />
    
    </svg>
    </div>
        ",,,,,,,,,,,,practice_get_response,False,gTYJJZK9vObwEy4d,144.547,3.89,True,False,False,222.38,6.0,446.9,,,,,,,,21
11,html-keyboard-response,11,172035,0.0-11.0,333.0,arrowdown,,"
    <div style="" display: block;  position: relative;"">
    
    <svg width=1440 height=960>
    <circle cx=657 cy=480 r=12.981804645679407 stroke=""black"" stroke-width=""1"" fill=""black"" />
    <circle cx=579.167 cy=480 r=18.54543520811344 stroke=""none"" stroke-width=""1.5"" fill=""none"" />
    <circle cx=434.62 cy=624.547 r=18.54543520811344 stroke=""none"" stroke-width=""1.5"" fill=""none"" />
    <circle cx=290.073 cy=480 r=18.54543520811344 stroke=""none"" stroke-width=""1.5"" fill=""none"" />
    <circle cx=434.62 cy=335.453 r=18.54543520811344 stroke=""none"" stroke-width=""1.5"" fill=""none"" />
    <polygon points = ""434.62,480 439.8367381968663,498.5454352081134 429.4032618031337,498.5454352081134"" stroke=""none"" stroke-width=""3"" fill = ""none"" />
    
    </svg>
    </div>
        ",,,,,,,,,,,,,,,,,,,,,,,,,,,,,,21
12,html-keyboard-response,12,172188,0.0-12.0,,,,"
    <div style="" display: block;  position: relative;"">
    <svg width=1440 height=960>
    
    <circle cx=657 cy=480 r=12.981804645679407 stroke=""black"" stroke-width=""1"" fill=""black"" />
    <circle cx=879.38 cy=480 r=18.54543520811344 stroke=""black"" stroke-width=""1.5"" fill=""none"" />
    <circle cx=1030.1982591675462 cy=480 r=18.54543520811344 stroke=""black"" stroke-width=""1.5"" fill=""none"" />
    <circle cx=879.38 cy=630.8182591675462 r=18.54543520811344 stroke=""black"" stroke-width=""1.5"" fill=""none"" />
    <circle cx=728.5617408324538 cy=480 r=18.54543520811344 stroke=""black"" stroke-width=""1.5"" fill=""none"" />
    <circle cx=879.38 cy=329.1817408324538 r=18.54543520811344 stroke=""black"" stroke-width=""1.5"" fill=""none"" />
    <polygon points = ""879.38,480 884.5967381968662,498.5454352081134 874.1632618031338,498.5454352081134"" stroke=""white"" stroke-width=""3"" fill = ""white"" />
    
    </svg>
    </div>
        ",,,,,,,,,,,,stimulus,,,,,,,,,,,,,,,,,,21
13,html-keyboard-response,13,172457,0.0-13.0,267.0,arrowup,,"
    <div style="" display: block;  position: relative;"">
    
    <svg width=1440 height=960>
    <circle cx=657 cy=480 r=12.981804645679407 stroke=""black"" stroke-width=""1"" fill=""black"" />
    <circle cx=1030.1982591675462 cy=480 r=18.54543520811344 stroke=""none"" stroke-width=""1.5"" fill=""none"" />
    <circle cx=879.38 cy=630.8182591675462 r=18.54543520811344 stroke=""none"" stroke-width=""1.5"" fill=""none"" />
    <circle cx=728.5617408324538 cy=480 r=18.54543520811344 stroke=""none"" stroke-width=""1.5"" fill=""none"" />
    <circle cx=879.38 cy=329.1817408324538 r=18.54543520811344 stroke=""none"" stroke-width=""1.5"" fill=""none"" />
    <polygon points = ""879.38,480 884.5967381968662,498.5454352081134 874.1632618031338,498.5454352081134"" stroke=""none"" stroke-width=""3"" fill = ""none"" />
    
    </svg>
    </div>
        ",,,,,,,,,,,,practice_get_response,False,gTYJJZK9vObwEy4d,150.81825916754624,4.06,False,False,False,222.38,6.0,446.9,,,,,,,,21
14,html-keyboard-response,14,172650,0.0-14.0,190.0,arrowdown,,"
    <div style="" display: block;  position: relative;"">
    
    <svg width=1440 height=960>
    <circle cx=657 cy=480 r=12.981804645679407 stroke=""black"" stroke-width=""1"" fill=""black"" />
    <circle cx=1030.1982591675462 cy=480 r=18.54543520811344 stroke=""none"" stroke-width=""1.5"" fill=""none"" />
    <circle cx=879.38 cy=630.8182591675462 r=18.54543520811344 stroke=""none"" stroke-width=""1.5"" fill=""none"" />
    <circle cx=728.5617408324538 cy=480 r=18.54543520811344 stroke=""none"" stroke-width=""1.5"" fill=""none"" />
    <circle cx=879.38 cy=329.1817408324538 r=18.54543520811344 stroke=""none"" stroke-width=""1.5"" fill=""none"" />
    <polygon points = ""879.38,480 884.5967381968662,498.5454352081134 874.1632618031338,498.5454352081134"" stroke=""none"" stroke-width=""3"" fill = ""none"" />
    
    </svg>
    </div>
        ",,,,,,,,,,,,,,,,,,,,,,,,,,,,,,21
15,html-keyboard-response,15,172806,0.0-15.0,,,,"
    <div style="" display: block;  position: relative;"">
    <svg width=1440 height=960>
    
    <circle cx=657 cy=480 r=12.981804645679407 stroke=""black"" stroke-width=""1"" fill=""black"" />
    <circle cx=879.38 cy=480 r=18.54543520811344 stroke=""black"" stroke-width=""1.5"" fill=""none"" />
    <circle cx=1030.1982591675462 cy=480 r=18.54543520811344 stroke=""black"" stroke-width=""1.5"" fill=""none"" />
    <circle cx=879.38 cy=630.8182591675462 r=18.54543520811344 stroke=""black"" stroke-width=""1.5"" fill=""none"" />
    <circle cx=728.5617408324538 cy=480 r=18.54543520811344 stroke=""black"" stroke-width=""1.5"" fill=""none"" />
    <circle cx=879.38 cy=329.1817408324538 r=18.54543520811344 stroke=""black"" stroke-width=""1.5"" fill=""none"" />
    <polygon points = ""879.38,480 884.5967381968662,461.4545647918866 874.1632618031338,461.4545647918866"" stroke=""white"" stroke-width=""3"" fill = ""white"" />
    
    </svg>
    </div>
        ",,,,,,,,,,,,stimulus,,,,,,,,,,,,,,,,,,21
16,html-keyboard-response,16,173179,0.0-16.0,371.0,arrowup,,"
    <div style="" display: block;  position: relative;"">
    
    <svg width=1440 height=960>
    <circle cx=657 cy=480 r=12.981804645679407 stroke=""black"" stroke-width=""1"" fill=""black"" />
    <circle cx=1030.1982591675462 cy=480 r=18.54543520811344 stroke=""none"" stroke-width=""1.5"" fill=""none"" />
    <circle cx=879.38 cy=630.8182591675462 r=18.54543520811344 stroke=""none"" stroke-width=""1.5"" fill=""none"" />
    <circle cx=728.5617408324538 cy=480 r=18.54543520811344 stroke=""none"" stroke-width=""1.5"" fill=""none"" />
    <circle cx=879.38 cy=329.1817408324538 r=18.54543520811344 stroke=""none"" stroke-width=""1.5"" fill=""none"" />
    <polygon points = ""879.38,480 884.5967381968662,461.4545647918866 874.1632618031338,461.4545647918866"" stroke=""none"" stroke-width=""3"" fill = ""none"" />
    
    </svg>
    </div>
        ",,,,,,,,,,,,practice_get_response,True,gTYJJZK9vObwEy4d,150.81825916754624,4.06,False,True,False,222.38,6.0,446.9,,,,,,,,21
17,html-keyboard-response,17,173684,0.0-17.0,,,,"
    <div style="" display: block;  position: relative;"">
    
    <svg width=1440 height=960>
    <circle cx=657 cy=480 r=12.981804645679407 stroke=""black"" stroke-width=""1"" fill=""black"" />
    <circle cx=1030.1982591675462 cy=480 r=18.54543520811344 stroke=""none"" stroke-width=""1.5"" fill=""none"" />
    <circle cx=879.38 cy=630.8182591675462 r=18.54543520811344 stroke=""none"" stroke-width=""1.5"" fill=""none"" />
    <circle cx=728.5617408324538 cy=480 r=18.54543520811344 stroke=""none"" stroke-width=""1.5"" fill=""none"" />
    <circle cx=879.38 cy=329.1817408324538 r=18.54543520811344 stroke=""none"" stroke-width=""1.5"" fill=""none"" />
    <polygon points = ""879.38,480 884.5967381968662,461.4545647918866 874.1632618031338,461.4545647918866"" stroke=""none"" stroke-width=""3"" fill = ""none"" />
    
    </svg>
    </div>
        ",,,,,,,,,,,,,,,,,,,,,,,,,,,,,,21
18,html-keyboard-response,18,173842,0.0-18.0,,,,"
    <div style="" display: block;  position: relative;"">
    <svg width=1440 height=960>
    
    <circle cx=657 cy=480 r=12.981804645679407 stroke=""black"" stroke-width=""1"" fill=""black"" />
    <circle cx=434.62 cy=480 r=18.54543520811344 stroke=""black"" stroke-width=""1.5"" fill=""none"" />
    <circle cx=585.4382591675462 cy=480 r=18.54543520811344 stroke=""black"" stroke-width=""1.5"" fill=""none"" />
    <circle cx=434.62 cy=630.8182591675462 r=18.54543520811344 stroke=""black"" stroke-width=""1.5"" fill=""none"" />
    <circle cx=283.8017408324538 cy=480 r=18.54543520811344 stroke=""black"" stroke-width=""1.5"" fill=""none"" />
    <circle cx=434.62 cy=329.1817408324538 r=18.54543520811344 stroke=""black"" stroke-width=""1.5"" fill=""none"" />
    <polygon points = ""434.62,480 439.8367381968663,498.5454352081134 429.4032618031337,498.5454352081134"" stroke=""white"" stroke-width=""3"" fill = ""white"" />
    
    </svg>
    </div>
        ",,,,,,,,,,,,stimulus,,,,,,,,,,,,,,,,,,21
19,html-keyboard-response,19,174097,0.0-19.0,252.0,arrowdown,,"
    <div style="" display: block;  position: relative;"">
    
    <svg width=1440 height=960>
    <circle cx=657 cy=480 r=12.981804645679407 stroke=""black"" stroke-width=""1"" fill=""black"" />
    <circle cx=585.4382591675462 cy=480 r=18.54543520811344 stroke=""none"" stroke-width=""1.5"" fill=""none"" />
    <circle cx=434.62 cy=630.8182591675462 r=18.54543520811344 stroke=""none"" stroke-width=""1.5"" fill=""none"" />
    <circle cx=283.8017408324538 cy=480 r=18.54543520811344 stroke=""none"" stroke-width=""1.5"" fill=""none"" />
    <circle cx=434.62 cy=329.1817408324538 r=18.54543520811344 stroke=""none"" stroke-width=""1.5"" fill=""none"" />
    <polygon points = ""434.62,480 439.8367381968663,498.5454352081134 429.4032618031337,498.5454352081134"" stroke=""none"" stroke-width=""3"" fill = ""none"" />
    
    </svg>
    </div>
        ",,,,,,,,,,,,practice_get_response,True,gTYJJZK9vObwEy4d,150.81825916754624,4.06,True,False,False,222.38,6.0,446.9,,,,,,,,21
20,html-keyboard-response,20,174609,0.0-20.0,,,,"
    <div style="" display: block;  position: relative;"">
    
    <svg width=1440 height=960>
    <circle cx=657 cy=480 r=12.981804645679407 stroke=""black"" stroke-width=""1"" fill=""black"" />
    <circle cx=585.4382591675462 cy=480 r=18.54543520811344 stroke=""none"" stroke-width=""1.5"" fill=""none"" />
    <circle cx=434.62 cy=630.8182591675462 r=18.54543520811344 stroke=""none"" stroke-width=""1.5"" fill=""none"" />
    <circle cx=283.8017408324538 cy=480 r=18.54543520811344 stroke=""none"" stroke-width=""1.5"" fill=""none"" />
    <circle cx=434.62 cy=329.1817408324538 r=18.54543520811344 stroke=""none"" stroke-width=""1.5"" fill=""none"" />
    <polygon points = ""434.62,480 439.8367381968663,498.5454352081134 429.4032618031337,498.5454352081134"" stroke=""none"" stroke-width=""3"" fill = ""none"" />
    
    </svg>
    </div>
        ",,,,,,,,,,,,,,,,,,,,,,,,,,,,,,21
21,html-keyboard-response,21,174772,0.0-21.0,,,,"
    <div style="" display: block;  position: relative;"">
    <svg width=1440 height=960>
    
    <circle cx=657 cy=480 r=12.981804645679407 stroke=""black"" stroke-width=""1"" fill=""black"" />
    <circle cx=434.62 cy=480 r=18.54543520811344 stroke=""black"" stroke-width=""1.5"" fill=""none"" />
    <circle cx=585.4382591675462 cy=480 r=18.54543520811344 stroke=""black"" stroke-width=""1.5"" fill=""none"" />
    <circle cx=434.62 cy=630.8182591675462 r=18.54543520811344 stroke=""black"" stroke-width=""1.5"" fill=""none"" />
    <circle cx=283.8017408324538 cy=480 r=18.54543520811344 stroke=""black"" stroke-width=""1.5"" fill=""none"" />
    <circle cx=434.62 cy=329.1817408324538 r=18.54543520811344 stroke=""black"" stroke-width=""1.5"" fill=""none"" />
    <polygon points = ""434.62,480 439.8367381968663,461.4545647918866 429.4032618031337,461.4545647918866"" stroke=""white"" stroke-width=""3"" fill = ""white"" />
    
    </svg>
    </div>
        ",,,,,,,,,,,,stimulus,,,,,,,,,,,,,,,,,,21
22,html-keyboard-response,22,175131,0.0-22.0,357.0,arrowup,,"
    <div style="" display: block;  position: relative;"">
    
    <svg width=1440 height=960>
    <circle cx=657 cy=480 r=12.981804645679407 stroke=""black"" stroke-width=""1"" fill=""black"" />
    <circle cx=585.4382591675462 cy=480 r=18.54543520811344 stroke=""none"" stroke-width=""1.5"" fill=""none"" />
    <circle cx=434.62 cy=630.8182591675462 r=18.54543520811344 stroke=""none"" stroke-width=""1.5"" fill=""none"" />
    <circle cx=283.8017408324538 cy=480 r=18.54543520811344 stroke=""none"" stroke-width=""1.5"" fill=""none"" />
    <circle cx=434.62 cy=329.1817408324538 r=18.54543520811344 stroke=""none"" stroke-width=""1.5"" fill=""none"" />
    <polygon points = ""434.62,480 439.8367381968663,461.4545647918866 429.4032618031337,461.4545647918866"" stroke=""none"" stroke-width=""3"" fill = ""none"" />
    
    </svg>
    </div>
        ",,,,,,,,,,,,practice_get_response,True,gTYJJZK9vObwEy4d,150.81825916754624,4.06,True,True,False,222.38,6.0,446.9,,,,,,,,21
23,html-keyboard-response,23,180024,0.0-23.0,4892.0,arrowdown,,"<div> 
<h2 class=""bolded-blue"">Well done!</h2>
<p> Now that you have the hang of it, we&#39;ll start the study. This session has 25 trials and takes about 2 minute to complete. </p> 
<p>If you are ready for the real deal, please press the <b>down</b> arrow to continue.
</p>
</div>",,,,,,,,,,,,,,,,,,,,,,,,,,,,,,21
24,html-keyboard-response,24,186471,0.0-24.0,6445.0,arrowdown,,"<div id=""continue""> 
<p>Again, please keep the <b>full screen</b> mode for the best experience.</p>
<p>Please do not move around and keep your eye on the black dot. Click <b>up</b> or <b>down</b> key on your keyboard to indicate the opening of the center circle. Make your best guess!</p>
<p>Please press the <b>down</b> arrow key to start the session 1. </p>
</div>",,,,,,,,,,,,,,,,,,,,,,,,,,,,,,21
25,html-keyboard-response,25,186974,0.0-25.0,,,,"
    <div style="" display: block;  position: relative;"">
    
    <svg width=1440 height=960>
    <circle cx=657 cy=480 r=12.981804645679407 stroke=""black"" stroke-width=""1"" fill=""black"" />
    <circle cx=585.4382591675462 cy=480 r=18.54543520811344 stroke=""none"" stroke-width=""1.5"" fill=""none"" />
    <circle cx=434.62 cy=630.8182591675462 r=18.54543520811344 stroke=""none"" stroke-width=""1.5"" fill=""none"" />
    <circle cx=283.8017408324538 cy=480 r=18.54543520811344 stroke=""none"" stroke-width=""1.5"" fill=""none"" />
    <circle cx=434.62 cy=329.1817408324538 r=18.54543520811344 stroke=""none"" stroke-width=""1.5"" fill=""none"" />
    <polygon points = ""434.62,480 439.8367381968663,498.5454352081134 429.4032618031337,498.5454352081134"" stroke=""none"" stroke-width=""3"" fill = ""none"" />
    
    </svg>
    </div>
        ",,,,,,,,,,,,,,,,,,,,,,,,,,,,,,21
26,html-keyboard-response,26,187130,0.0-26.0,,,,"
    <div style="" display: block;  position: relative;"">
    <svg width=1440 height=960>
    
    <circle cx=657 cy=480 r=12.981804645679407 stroke=""black"" stroke-width=""1"" fill=""black"" />
    <circle cx=434.62 cy=480 r=18.54543520811344 stroke=""black"" stroke-width=""1.5"" fill=""none"" />
    <circle cx=579.167 cy=480 r=18.54543520811344 stroke=""black"" stroke-width=""1.5"" fill=""none"" />
    <circle cx=434.62 cy=624.547 r=18.54543520811344 stroke=""black"" stroke-width=""1.5"" fill=""none"" />
    <circle cx=290.073 cy=480 r=18.54543520811344 stroke=""black"" stroke-width=""1.5"" fill=""none"" />
    <circle cx=434.62 cy=335.453 r=18.54543520811344 stroke=""black"" stroke-width=""1.5"" fill=""none"" />
    <polygon points = ""434.62,480 439.8367381968663,461.4545647918866 429.4032618031337,461.4545647918866"" stroke=""white"" stroke-width=""3"" fill = ""white"" />
    
    </svg>
    </div>
        ",,,,,,,,,,,,stimulus,,,,,,,,,,,,,,,,,,21
27,html-keyboard-response,27,187398,0.0-27.0,266.0,arrowup,,"
    <div style="" display: block;  position: relative;"">
    
    <svg width=1440 height=960>
    <circle cx=657 cy=480 r=12.981804645679407 stroke=""black"" stroke-width=""1"" fill=""black"" />
    <circle cx=579.167 cy=480 r=18.54543520811344 stroke=""none"" stroke-width=""1.5"" fill=""none"" />
    <circle cx=434.62 cy=624.547 r=18.54543520811344 stroke=""none"" stroke-width=""1.5"" fill=""none"" />
    <circle cx=290.073 cy=480 r=18.54543520811344 stroke=""none"" stroke-width=""1.5"" fill=""none"" />
    <circle cx=434.62 cy=335.453 r=18.54543520811344 stroke=""none"" stroke-width=""1.5"" fill=""none"" />
    <polygon points = ""434.62,480 439.8367381968663,461.4545647918866 429.4032618031337,461.4545647918866"" stroke=""none"" stroke-width=""3"" fill = ""none"" />
    
    </svg>
    </div>
        ",,,,,,,,,,,,get_response,True,gTYJJZK9vObwEy4d,,,True,True,False,222.38,6.0,446.9,144.547,3.89,1.0,0.0,,,,21
28,html-keyboard-response,28,187909,0.0-28.0,,,,"
    <div style="" display: block;  position: relative;"">
    
    <svg width=1440 height=960>
    <circle cx=657 cy=480 r=12.981804645679407 stroke=""black"" stroke-width=""1"" fill=""black"" />
    <circle cx=579.167 cy=480 r=18.54543520811344 stroke=""none"" stroke-width=""1.5"" fill=""none"" />
    <circle cx=434.62 cy=624.547 r=18.54543520811344 stroke=""none"" stroke-width=""1.5"" fill=""none"" />
    <circle cx=290.073 cy=480 r=18.54543520811344 stroke=""none"" stroke-width=""1.5"" fill=""none"" />
    <circle cx=434.62 cy=335.453 r=18.54543520811344 stroke=""none"" stroke-width=""1.5"" fill=""none"" />
    <polygon points = ""434.62,480 439.8367381968663,461.4545647918866 429.4032618031337,461.4545647918866"" stroke=""none"" stroke-width=""3"" fill = ""none"" />
    
    </svg>
    </div>
        ",,,,,,,,,,,,,,,,,,,,,,,,,,,,,,21
29,html-keyboard-response,29,188066,0.0-29.0,,,,"
    <div style="" display: block;  position: relative;"">
    <svg width=1440 height=960>
    
    <circle cx=657 cy=480 r=12.981804645679407 stroke=""black"" stroke-width=""1"" fill=""black"" />
    <circle cx=434.62 cy=480 r=18.54543520811344 stroke=""black"" stroke-width=""1.5"" fill=""none"" />
    <circle cx=579.167 cy=480 r=18.54543520811344 stroke=""black"" stroke-width=""1.5"" fill=""none"" />
    <circle cx=434.62 cy=624.547 r=18.54543520811344 stroke=""black"" stroke-width=""1.5"" fill=""none"" />
    <circle cx=290.073 cy=480 r=18.54543520811344 stroke=""black"" stroke-width=""1.5"" fill=""none"" />
    <circle cx=434.62 cy=335.453 r=18.54543520811344 stroke=""black"" stroke-width=""1.5"" fill=""none"" />
    <polygon points = ""434.62,480 439.8367381968663,498.5454352081134 429.4032618031337,498.5454352081134"" stroke=""white"" stroke-width=""3"" fill = ""white"" />
    
    </svg>
    </div>
        ",,,,,,,,,,,,stimulus,,,,,,,,,,,,,,,,,,21
30,html-keyboard-response,30,188370,0.0-30.0,302.0,arrowdown,,"
    <div style="" display: block;  position: relative;"">
    
    <svg width=1440 height=960>
    <circle cx=657 cy=480 r=12.981804645679407 stroke=""black"" stroke-width=""1"" fill=""black"" />
    <circle cx=579.167 cy=480 r=18.54543520811344 stroke=""none"" stroke-width=""1.5"" fill=""none"" />
    <circle cx=434.62 cy=624.547 r=18.54543520811344 stroke=""none"" stroke-width=""1.5"" fill=""none"" />
    <circle cx=290.073 cy=480 r=18.54543520811344 stroke=""none"" stroke-width=""1.5"" fill=""none"" />
    <circle cx=434.62 cy=335.453 r=18.54543520811344 stroke=""none"" stroke-width=""1.5"" fill=""none"" />
    <polygon points = ""434.62,480 439.8367381968663,498.5454352081134 429.4032618031337,498.5454352081134"" stroke=""none"" stroke-width=""3"" fill = ""none"" />
    
    </svg>
    </div>
        ",,,,,,,,,,,,get_response,True,gTYJJZK9vObwEy4d,,,True,False,False,222.38,6.0,446.9,144.547,3.89,1.0,0.0,,,,21
31,html-keyboard-response,31,188877,0.0-31.0,,,,"
    <div style="" display: block;  position: relative;"">
    
    <svg width=1440 height=960>
    <circle cx=657 cy=480 r=12.981804645679407 stroke=""black"" stroke-width=""1"" fill=""black"" />
    <circle cx=579.167 cy=480 r=18.54543520811344 stroke=""none"" stroke-width=""1.5"" fill=""none"" />
    <circle cx=434.62 cy=624.547 r=18.54543520811344 stroke=""none"" stroke-width=""1.5"" fill=""none"" />
    <circle cx=290.073 cy=480 r=18.54543520811344 stroke=""none"" stroke-width=""1.5"" fill=""none"" />
    <circle cx=434.62 cy=335.453 r=18.54543520811344 stroke=""none"" stroke-width=""1.5"" fill=""none"" />
    <polygon points = ""434.62,480 439.8367381968663,498.5454352081134 429.4032618031337,498.5454352081134"" stroke=""none"" stroke-width=""3"" fill = ""none"" />
    
    </svg>
    </div>
        ",,,,,,,,,,,,,,,,,,,,,,,,,,,,,,21
32,html-keyboard-response,32,189036,0.0-32.0,,,,"
    <div style="" display: block;  position: relative;"">
    <svg width=1440 height=960>
    
    <circle cx=657 cy=480 r=12.981804645679407 stroke=""black"" stroke-width=""1"" fill=""black"" />
    <circle cx=434.62 cy=480 r=18.54543520811344 stroke=""black"" stroke-width=""1.5"" fill=""none"" />
    <circle cx=579.167 cy=480 r=18.54543520811344 stroke=""black"" stroke-width=""1.5"" fill=""none"" />
    <circle cx=434.62 cy=624.547 r=18.54543520811344 stroke=""black"" stroke-width=""1.5"" fill=""none"" />
    <circle cx=290.073 cy=480 r=18.54543520811344 stroke=""black"" stroke-width=""1.5"" fill=""none"" />
    <circle cx=434.62 cy=335.453 r=18.54543520811344 stroke=""black"" stroke-width=""1.5"" fill=""none"" />
    <polygon points = ""434.62,480 439.8367381968663,498.5454352081134 429.4032618031337,498.5454352081134"" stroke=""white"" stroke-width=""3"" fill = ""white"" />
    
    </svg>
    </div>
        ",,,,,,,,,,,,stimulus,,,,,,,,,,,,,,,,,,21
33,html-keyboard-response,33,189298,0.0-33.0,262.0,arrowdown,,"
    <div style="" display: block;  position: relative;"">
    
    <svg width=1440 height=960>
    <circle cx=657 cy=480 r=12.981804645679407 stroke=""black"" stroke-width=""1"" fill=""black"" />
    <circle cx=579.167 cy=480 r=18.54543520811344 stroke=""none"" stroke-width=""1.5"" fill=""none"" />
    <circle cx=434.62 cy=624.547 r=18.54543520811344 stroke=""none"" stroke-width=""1.5"" fill=""none"" />
    <circle cx=290.073 cy=480 r=18.54543520811344 stroke=""none"" stroke-width=""1.5"" fill=""none"" />
    <circle cx=434.62 cy=335.453 r=18.54543520811344 stroke=""none"" stroke-width=""1.5"" fill=""none"" />
    <polygon points = ""434.62,480 439.8367381968663,498.5454352081134 429.4032618031337,498.5454352081134"" stroke=""none"" stroke-width=""3"" fill = ""none"" />
    
    </svg>
    </div>
        ",,,,,,,,,,,,get_response,True,gTYJJZK9vObwEy4d,,,True,False,False,222.38,6.0,446.9,144.547,3.89,1.0,0.0,,,,21
34,html-keyboard-response,34,189815,0.0-34.0,,,,"
    <div style="" display: block;  position: relative;"">
    
    <svg width=1440 height=960>
    <circle cx=657 cy=480 r=12.981804645679407 stroke=""black"" stroke-width=""1"" fill=""black"" />
    <circle cx=579.167 cy=480 r=18.54543520811344 stroke=""none"" stroke-width=""1.5"" fill=""none"" />
    <circle cx=434.62 cy=624.547 r=18.54543520811344 stroke=""none"" stroke-width=""1.5"" fill=""none"" />
    <circle cx=290.073 cy=480 r=18.54543520811344 stroke=""none"" stroke-width=""1.5"" fill=""none"" />
    <circle cx=434.62 cy=335.453 r=18.54543520811344 stroke=""none"" stroke-width=""1.5"" fill=""none"" />
    <polygon points = ""434.62,480 439.8367381968663,498.5454352081134 429.4032618031337,498.5454352081134"" stroke=""none"" stroke-width=""3"" fill = ""none"" />
    
    </svg>
    </div>
        ",,,,,,,,,,,,,,,,,,,,,,,,,,,,,,21
35,html-keyboard-response,35,189970,0.0-35.0,,,,"
    <div style="" display: block;  position: relative;"">
    <svg width=1440 height=960>
    
    <circle cx=657 cy=480 r=12.981804645679407 stroke=""black"" stroke-width=""1"" fill=""black"" />
    <circle cx=879.38 cy=480 r=18.54543520811344 stroke=""black"" stroke-width=""1.5"" fill=""none"" />
    <circle cx=1010.7863636363636 cy=480 r=18.54543520811344 stroke=""black"" stroke-width=""1.5"" fill=""none"" />
    <circle cx=879.38 cy=611.4063636363636 r=18.54543520811344 stroke=""black"" stroke-width=""1.5"" fill=""none"" />
    <circle cx=747.9736363636364 cy=480 r=18.54543520811344 stroke=""black"" stroke-width=""1.5"" fill=""none"" />
    <circle cx=879.38 cy=348.5936363636364 r=18.54543520811344 stroke=""black"" stroke-width=""1.5"" fill=""none"" />
    <polygon points = ""879.38,480 884.5967381968662,461.4545647918866 874.1632618031338,461.4545647918866"" stroke=""white"" stroke-width=""3"" fill = ""white"" />
    
    </svg>
    </div>
        ",,,,,,,,,,,,stimulus,,,,,,,,,,,,,,,,,,21
36,html-keyboard-response,36,190142,0.0-36.0,171.0,arrowup,,"
    <div style="" display: block;  position: relative;"">
    
    <svg width=1440 height=960>
    <circle cx=657 cy=480 r=12.981804645679407 stroke=""black"" stroke-width=""1"" fill=""black"" />
    <circle cx=1010.7863636363636 cy=480 r=18.54543520811344 stroke=""none"" stroke-width=""1.5"" fill=""none"" />
    <circle cx=879.38 cy=611.4063636363636 r=18.54543520811344 stroke=""none"" stroke-width=""1.5"" fill=""none"" />
    <circle cx=747.9736363636364 cy=480 r=18.54543520811344 stroke=""none"" stroke-width=""1.5"" fill=""none"" />
    <circle cx=879.38 cy=348.5936363636364 r=18.54543520811344 stroke=""none"" stroke-width=""1.5"" fill=""none"" />
    <polygon points = ""879.38,480 884.5967381968662,461.4545647918866 874.1632618031338,461.4545647918866"" stroke=""none"" stroke-width=""3"" fill = ""none"" />
    
    </svg>
    </div>
        ",,,,,,,,,,,,get_response,True,gTYJJZK9vObwEy4d,,,False,True,False,222.38,6.0,446.9,131.40636363636364,3.54,1.0,0.0,,,,21
37,html-keyboard-response,37,190656,0.0-37.0,,,,"
    <div style="" display: block;  position: relative;"">
    
    <svg width=1440 height=960>
    <circle cx=657 cy=480 r=12.981804645679407 stroke=""black"" stroke-width=""1"" fill=""black"" />
    <circle cx=1010.7863636363636 cy=480 r=18.54543520811344 stroke=""none"" stroke-width=""1.5"" fill=""none"" />
    <circle cx=879.38 cy=611.4063636363636 r=18.54543520811344 stroke=""none"" stroke-width=""1.5"" fill=""none"" />
    <circle cx=747.9736363636364 cy=480 r=18.54543520811344 stroke=""none"" stroke-width=""1.5"" fill=""none"" />
    <circle cx=879.38 cy=348.5936363636364 r=18.54543520811344 stroke=""none"" stroke-width=""1.5"" fill=""none"" />
    <polygon points = ""879.38,480 884.5967381968662,461.4545647918866 874.1632618031338,461.4545647918866"" stroke=""none"" stroke-width=""3"" fill = ""none"" />
    
    </svg>
    </div>
        ",,,,,,,,,,,,,,,,,,,,,,,,,,,,,,21
38,html-keyboard-response,38,190812,0.0-38.0,,,,"
    <div style="" display: block;  position: relative;"">
    <svg width=1440 height=960>
    
    <circle cx=657 cy=480 r=12.981804645679407 stroke=""black"" stroke-width=""1"" fill=""black"" />
    <circle cx=434.62 cy=480 r=18.54543520811344 stroke=""black"" stroke-width=""1.5"" fill=""none"" />
    <circle cx=554.0803305785124 cy=480 r=18.54543520811344 stroke=""black"" stroke-width=""1.5"" fill=""none"" />
    <circle cx=434.62 cy=599.4603305785124 r=18.54543520811344 stroke=""black"" stroke-width=""1.5"" fill=""none"" />
    <circle cx=315.1596694214876 cy=480 r=18.54543520811344 stroke=""black"" stroke-width=""1.5"" fill=""none"" />
    <circle cx=434.62 cy=360.5396694214876 r=18.54543520811344 stroke=""black"" stroke-width=""1.5"" fill=""none"" />
    <polygon points = ""434.62,480 439.8367381968663,498.5454352081134 429.4032618031337,498.5454352081134"" stroke=""white"" stroke-width=""3"" fill = ""white"" />
    
    </svg>
    </div>
        ",,,,,,,,,,,,stimulus,,,,,,,,,,,,,,,,,,21
39,html-keyboard-response,39,191142,0.0-39.0,328.0,arrowdown,,"
    <div style="" display: block;  position: relative;"">
    
    <svg width=1440 height=960>
    <circle cx=657 cy=480 r=12.981804645679407 stroke=""black"" stroke-width=""1"" fill=""black"" />
    <circle cx=554.0803305785124 cy=480 r=18.54543520811344 stroke=""none"" stroke-width=""1.5"" fill=""none"" />
    <circle cx=434.62 cy=599.4603305785124 r=18.54543520811344 stroke=""none"" stroke-width=""1.5"" fill=""none"" />
    <circle cx=315.1596694214876 cy=480 r=18.54543520811344 stroke=""none"" stroke-width=""1.5"" fill=""none"" />
    <circle cx=434.62 cy=360.5396694214876 r=18.54543520811344 stroke=""none"" stroke-width=""1.5"" fill=""none"" />
    <polygon points = ""434.62,480 439.8367381968663,498.5454352081134 429.4032618031337,498.5454352081134"" stroke=""none"" stroke-width=""3"" fill = ""none"" />
    
    </svg>
    </div>
        ",,,,,,,,,,,,get_response,True,gTYJJZK9vObwEy4d,,,True,False,False,222.38,6.0,446.9,119.46033057851238,3.21,1.0,0.0,,,,21
40,html-keyboard-response,40,191654,0.0-40.0,,,,"
    <div style="" display: block;  position: relative;"">
    
    <svg width=1440 height=960>
    <circle cx=657 cy=480 r=12.981804645679407 stroke=""black"" stroke-width=""1"" fill=""black"" />
    <circle cx=554.0803305785124 cy=480 r=18.54543520811344 stroke=""none"" stroke-width=""1.5"" fill=""none"" />
    <circle cx=434.62 cy=599.4603305785124 r=18.54543520811344 stroke=""none"" stroke-width=""1.5"" fill=""none"" />
    <circle cx=315.1596694214876 cy=480 r=18.54543520811344 stroke=""none"" stroke-width=""1.5"" fill=""none"" />
    <circle cx=434.62 cy=360.5396694214876 r=18.54543520811344 stroke=""none"" stroke-width=""1.5"" fill=""none"" />
    <polygon points = ""434.62,480 439.8367381968663,498.5454352081134 429.4032618031337,498.5454352081134"" stroke=""none"" stroke-width=""3"" fill = ""none"" />
    
    </svg>
    </div>
        ",,,,,,,,,,,,,,,,,,,,,,,,,,,,,,21
41,html-keyboard-response,41,191810,0.0-41.0,,,,"
    <div style="" display: block;  position: relative;"">
    <svg width=1440 height=960>
    
    <circle cx=657 cy=480 r=12.981804645679407 stroke=""black"" stroke-width=""1"" fill=""black"" />
    <circle cx=879.38 cy=480 r=18.54543520811344 stroke=""black"" stroke-width=""1.5"" fill=""none"" />
    <circle cx=987.9803005259204 cy=480 r=18.54543520811344 stroke=""black"" stroke-width=""1.5"" fill=""none"" />
    <circle cx=879.38 cy=588.6003005259204 r=18.54543520811344 stroke=""black"" stroke-width=""1.5"" fill=""none"" />
    <circle cx=770.7796994740796 cy=480 r=18.54543520811344 stroke=""black"" stroke-width=""1.5"" fill=""none"" />
    <circle cx=879.38 cy=371.3996994740796 r=18.54543520811344 stroke=""black"" stroke-width=""1.5"" fill=""none"" />
    <polygon points = ""879.38,480 884.5967381968662,461.4545647918866 874.1632618031338,461.4545647918866"" stroke=""white"" stroke-width=""3"" fill = ""white"" />
    
    </svg>
    </div>
        ",,,,,,,,,,,,stimulus,,,,,,,,,,,,,,,,,,21
42,html-keyboard-response,42,191951,0.0-42.0,140.0,arrowup,,"
    <div style="" display: block;  position: relative;"">
    
    <svg width=1440 height=960>
    <circle cx=657 cy=480 r=12.981804645679407 stroke=""black"" stroke-width=""1"" fill=""black"" />
    <circle cx=987.9803005259204 cy=480 r=18.54543520811344 stroke=""none"" stroke-width=""1.5"" fill=""none"" />
    <circle cx=879.38 cy=588.6003005259204 r=18.54543520811344 stroke=""none"" stroke-width=""1.5"" fill=""none"" />
    <circle cx=770.7796994740796 cy=480 r=18.54543520811344 stroke=""none"" stroke-width=""1.5"" fill=""none"" />
    <circle cx=879.38 cy=371.3996994740796 r=18.54543520811344 stroke=""none"" stroke-width=""1.5"" fill=""none"" />
    <polygon points = ""879.38,480 884.5967381968662,461.4545647918866 874.1632618031338,461.4545647918866"" stroke=""none"" stroke-width=""3"" fill = ""none"" />
    
    </svg>
    </div>
        ",,,,,,,,,,,,get_response,True,gTYJJZK9vObwEy4d,,,False,True,False,222.38,6.0,446.9,108.60030052592036,2.92,1.0,0.0,,,,21
43,html-keyboard-response,43,192464,0.0-43.0,,,,"
    <div style="" display: block;  position: relative;"">
    
    <svg width=1440 height=960>
    <circle cx=657 cy=480 r=12.981804645679407 stroke=""black"" stroke-width=""1"" fill=""black"" />
    <circle cx=987.9803005259204 cy=480 r=18.54543520811344 stroke=""none"" stroke-width=""1.5"" fill=""none"" />
    <circle cx=879.38 cy=588.6003005259204 r=18.54543520811344 stroke=""none"" stroke-width=""1.5"" fill=""none"" />
    <circle cx=770.7796994740796 cy=480 r=18.54543520811344 stroke=""none"" stroke-width=""1.5"" fill=""none"" />
    <circle cx=879.38 cy=371.3996994740796 r=18.54543520811344 stroke=""none"" stroke-width=""1.5"" fill=""none"" />
    <polygon points = ""879.38,480 884.5967381968662,461.4545647918866 874.1632618031338,461.4545647918866"" stroke=""none"" stroke-width=""3"" fill = ""none"" />
    
    </svg>
    </div>
        ",,,,,,,,,,,,,,,,,,,,,,,,,,,,,,21
44,html-keyboard-response,44,192620,0.0-44.0,,,,"
    <div style="" display: block;  position: relative;"">
    <svg width=1440 height=960>
    
    <circle cx=657 cy=480 r=12.981804645679407 stroke=""black"" stroke-width=""1"" fill=""black"" />
    <circle cx=434.62 cy=480 r=18.54543520811344 stroke=""black"" stroke-width=""1.5"" fill=""none"" />
    <circle cx=533.3475459326548 cy=480 r=18.54543520811344 stroke=""black"" stroke-width=""1.5"" fill=""none"" />
    <circle cx=434.62 cy=578.7275459326548 r=18.54543520811344 stroke=""black"" stroke-width=""1.5"" fill=""none"" />
    <circle cx=335.89245406734517 cy=480 r=18.54543520811344 stroke=""black"" stroke-width=""1.5"" fill=""none"" />
    <circle cx=434.62 cy=381.27245406734517 r=18.54543520811344 stroke=""black"" stroke-width=""1.5"" fill=""none"" />
    <polygon points = ""434.62,480 439.8367381968663,498.5454352081134 429.4032618031337,498.5454352081134"" stroke=""white"" stroke-width=""3"" fill = ""white"" />
    
    </svg>
    </div>
        ",,,,,,,,,,,,stimulus,,,,,,,,,,,,,,,,,,21
45,html-keyboard-response,45,192806,0.0-45.0,185.0,arrowdown,,"
    <div style="" display: block;  position: relative;"">
    
    <svg width=1440 height=960>
    <circle cx=657 cy=480 r=12.981804645679407 stroke=""black"" stroke-width=""1"" fill=""black"" />
    <circle cx=533.3475459326548 cy=480 r=18.54543520811344 stroke=""none"" stroke-width=""1.5"" fill=""none"" />
    <circle cx=434.62 cy=578.7275459326548 r=18.54543520811344 stroke=""none"" stroke-width=""1.5"" fill=""none"" />
    <circle cx=335.89245406734517 cy=480 r=18.54543520811344 stroke=""none"" stroke-width=""1.5"" fill=""none"" />
    <circle cx=434.62 cy=381.27245406734517 r=18.54543520811344 stroke=""none"" stroke-width=""1.5"" fill=""none"" />
    <polygon points = ""434.62,480 439.8367381968663,498.5454352081134 429.4032618031337,498.5454352081134"" stroke=""none"" stroke-width=""3"" fill = ""none"" />
    
    </svg>
    </div>
        ",,,,,,,,,,,,get_response,True,gTYJJZK9vObwEy4d,,,True,False,False,222.38,6.0,446.9,98.72754593265483,2.66,1.0,0.0,,,,21
46,html-keyboard-response,46,193309,0.0-46.0,,,,"
    <div style="" display: block;  position: relative;"">
    
    <svg width=1440 height=960>
    <circle cx=657 cy=480 r=12.981804645679407 stroke=""black"" stroke-width=""1"" fill=""black"" />
    <circle cx=533.3475459326548 cy=480 r=18.54543520811344 stroke=""none"" stroke-width=""1.5"" fill=""none"" />
    <circle cx=434.62 cy=578.7275459326548 r=18.54543520811344 stroke=""none"" stroke-width=""1.5"" fill=""none"" />
    <circle cx=335.89245406734517 cy=480 r=18.54543520811344 stroke=""none"" stroke-width=""1.5"" fill=""none"" />
    <circle cx=434.62 cy=381.27245406734517 r=18.54543520811344 stroke=""none"" stroke-width=""1.5"" fill=""none"" />
    <polygon points = ""434.62,480 439.8367381968663,498.5454352081134 429.4032618031337,498.5454352081134"" stroke=""none"" stroke-width=""3"" fill = ""none"" />
    
    </svg>
    </div>
        ",,,,,,,,,,,,,,,,,,,,,,,,,,,,,,21
47,html-keyboard-response,47,193462,0.0-47.0,,,,"
    <div style="" display: block;  position: relative;"">
    <svg width=1440 height=960>
    
    <circle cx=657 cy=480 r=12.981804645679407 stroke=""black"" stroke-width=""1"" fill=""black"" />
    <circle cx=434.62 cy=480 r=18.54543520811344 stroke=""black"" stroke-width=""1.5"" fill=""none"" />
    <circle cx=524.3723144842317 cy=480 r=18.54543520811344 stroke=""black"" stroke-width=""1.5"" fill=""none"" />
    <circle cx=434.62 cy=569.7523144842316 r=18.54543520811344 stroke=""black"" stroke-width=""1.5"" fill=""none"" />
    <circle cx=344.86768551576836 cy=480 r=18.54543520811344 stroke=""black"" stroke-width=""1.5"" fill=""none"" />
    <circle cx=434.62 cy=390.24768551576835 r=18.54543520811344 stroke=""black"" stroke-width=""1.5"" fill=""none"" />
    <polygon points = ""434.62,480 439.8367381968663,461.4545647918866 429.4032618031337,461.4545647918866"" stroke=""white"" stroke-width=""3"" fill = ""white"" />
    
    </svg>
    </div>
        ",,,,,,,,,,,,stimulus,,,,,,,,,,,,,,,,,,21
48,html-keyboard-response,48,193697,0.0-48.0,236.0,arrowdown,,"
    <div style="" display: block;  position: relative;"">
    
    <svg width=1440 height=960>
    <circle cx=657 cy=480 r=12.981804645679407 stroke=""black"" stroke-width=""1"" fill=""black"" />
    <circle cx=524.3723144842317 cy=480 r=18.54543520811344 stroke=""none"" stroke-width=""1.5"" fill=""none"" />
    <circle cx=434.62 cy=569.7523144842316 r=18.54543520811344 stroke=""none"" stroke-width=""1.5"" fill=""none"" />
    <circle cx=344.86768551576836 cy=480 r=18.54543520811344 stroke=""none"" stroke-width=""1.5"" fill=""none"" />
    <circle cx=434.62 cy=390.24768551576835 r=18.54543520811344 stroke=""none"" stroke-width=""1.5"" fill=""none"" />
    <polygon points = ""434.62,480 439.8367381968663,461.4545647918866 429.4032618031337,461.4545647918866"" stroke=""none"" stroke-width=""3"" fill = ""none"" />
    
    </svg>
    </div>
        ",,,,,,,,,,,,get_response,False,gTYJJZK9vObwEy4d,,,True,True,False,222.38,6.0,446.9,89.75231448423168,2.41,1.0,0.0,,,,21
49,html-keyboard-response,49,194211,0.0-49.0,,,,"
    <div style="" display: block;  position: relative;"">
    
    <svg width=1440 height=960>
    <circle cx=657 cy=480 r=12.981804645679407 stroke=""black"" stroke-width=""1"" fill=""black"" />
    <circle cx=524.3723144842317 cy=480 r=18.54543520811344 stroke=""none"" stroke-width=""1.5"" fill=""none"" />
    <circle cx=434.62 cy=569.7523144842316 r=18.54543520811344 stroke=""none"" stroke-width=""1.5"" fill=""none"" />
    <circle cx=344.86768551576836 cy=480 r=18.54543520811344 stroke=""none"" stroke-width=""1.5"" fill=""none"" />
    <circle cx=434.62 cy=390.24768551576835 r=18.54543520811344 stroke=""none"" stroke-width=""1.5"" fill=""none"" />
    <polygon points = ""434.62,480 439.8367381968663,461.4545647918866 429.4032618031337,461.4545647918866"" stroke=""none"" stroke-width=""3"" fill = ""none"" />
    
    </svg>
    </div>
        ",,,,,,,,,,,,,,,,,,,,,,,,,,,,,,21
50,html-keyboard-response,50,194368,0.0-50.0,,,,"
    <div style="" display: block;  position: relative;"">
    <svg width=1440 height=960>
    
    <circle cx=657 cy=480 r=12.981804645679407 stroke=""black"" stroke-width=""1"" fill=""black"" />
    <circle cx=879.38 cy=480 r=18.54543520811344 stroke=""black"" stroke-width=""1.5"" fill=""none"" />
    <circle cx=996.0580088295012 cy=480 r=18.54543520811344 stroke=""black"" stroke-width=""1.5"" fill=""none"" />
    <circle cx=879.38 cy=596.6780088295012 r=18.54543520811344 stroke=""black"" stroke-width=""1.5"" fill=""none"" />
    <circle cx=762.7019911704988 cy=480 r=18.54543520811344 stroke=""black"" stroke-width=""1.5"" fill=""none"" />
    <circle cx=879.38 cy=363.3219911704988 r=18.54543520811344 stroke=""black"" stroke-width=""1.5"" fill=""none"" />
    <polygon points = ""879.38,480 884.5967381968662,498.5454352081134 874.1632618031338,498.5454352081134"" stroke=""white"" stroke-width=""3"" fill = ""white"" />
    
    </svg>
    </div>
        ",,,,,,,,,,,,stimulus,,,,,,,,,,,,,,,,,,21
51,html-keyboard-response,51,194527,0.0-51.0,158.0,arrowup,,"
    <div style="" display: block;  position: relative;"">
    
    <svg width=1440 height=960>
    <circle cx=657 cy=480 r=12.981804645679407 stroke=""black"" stroke-width=""1"" fill=""black"" />
    <circle cx=996.0580088295012 cy=480 r=18.54543520811344 stroke=""none"" stroke-width=""1.5"" fill=""none"" />
    <circle cx=879.38 cy=596.6780088295012 r=18.54543520811344 stroke=""none"" stroke-width=""1.5"" fill=""none"" />
    <circle cx=762.7019911704988 cy=480 r=18.54543520811344 stroke=""none"" stroke-width=""1.5"" fill=""none"" />
    <circle cx=879.38 cy=363.3219911704988 r=18.54543520811344 stroke=""none"" stroke-width=""1.5"" fill=""none"" />
    <polygon points = ""879.38,480 884.5967381968662,498.5454352081134 874.1632618031338,498.5454352081134"" stroke=""none"" stroke-width=""3"" fill = ""none"" />
    
    </svg>
    </div>
        ",,,,,,,,,,,,get_response,False,gTYJJZK9vObwEy4d,,,False,False,False,222.38,6.0,446.9,116.67800882950118,3.14,1.0,0.0,,,,21
52,html-keyboard-response,52,195043,0.0-52.0,,,,"
    <div style="" display: block;  position: relative;"">
    
    <svg width=1440 height=960>
    <circle cx=657 cy=480 r=12.981804645679407 stroke=""black"" stroke-width=""1"" fill=""black"" />
    <circle cx=996.0580088295012 cy=480 r=18.54543520811344 stroke=""none"" stroke-width=""1.5"" fill=""none"" />
    <circle cx=879.38 cy=596.6780088295012 r=18.54543520811344 stroke=""none"" stroke-width=""1.5"" fill=""none"" />
    <circle cx=762.7019911704988 cy=480 r=18.54543520811344 stroke=""none"" stroke-width=""1.5"" fill=""none"" />
    <circle cx=879.38 cy=363.3219911704988 r=18.54543520811344 stroke=""none"" stroke-width=""1.5"" fill=""none"" />
    <polygon points = ""879.38,480 884.5967381968662,498.5454352081134 874.1632618031338,498.5454352081134"" stroke=""none"" stroke-width=""3"" fill = ""none"" />
    
    </svg>
    </div>
        ",,,,,,,,,,,,,,,,,,,,,,,,,,,,,,21
53,html-keyboard-response,53,195200,0.0-53.0,,,,"
    <div style="" display: block;  position: relative;"">
    <svg width=1440 height=960>
    
    <circle cx=657 cy=480 r=12.981804645679407 stroke=""black"" stroke-width=""1"" fill=""black"" />
    <circle cx=879.38 cy=480 r=18.54543520811344 stroke=""black"" stroke-width=""1.5"" fill=""none"" />
    <circle cx=1030.1982591675462 cy=480 r=18.54543520811344 stroke=""black"" stroke-width=""1.5"" fill=""none"" />
    <circle cx=879.38 cy=630.8182591675462 r=18.54543520811344 stroke=""black"" stroke-width=""1.5"" fill=""none"" />
    <circle cx=728.5617408324538 cy=480 r=18.54543520811344 stroke=""black"" stroke-width=""1.5"" fill=""none"" />
    <circle cx=879.38 cy=329.1817408324538 r=18.54543520811344 stroke=""black"" stroke-width=""1.5"" fill=""none"" />
    <polygon points = ""879.38,480 884.5967381968662,461.4545647918866 874.1632618031338,461.4545647918866"" stroke=""white"" stroke-width=""3"" fill = ""white"" />
    
    </svg>
    </div>
        ",,,,,,,,,,,,stimulus,,,,,,,,,,,,,,,,,,21
54,html-keyboard-response,54,195464,0.0-54.0,262.0,arrowup,,"
    <div style="" display: block;  position: relative;"">
    
    <svg width=1440 height=960>
    <circle cx=657 cy=480 r=12.981804645679407 stroke=""black"" stroke-width=""1"" fill=""black"" />
    <circle cx=1030.1982591675462 cy=480 r=18.54543520811344 stroke=""none"" stroke-width=""1.5"" fill=""none"" />
    <circle cx=879.38 cy=630.8182591675462 r=18.54543520811344 stroke=""none"" stroke-width=""1.5"" fill=""none"" />
    <circle cx=728.5617408324538 cy=480 r=18.54543520811344 stroke=""none"" stroke-width=""1.5"" fill=""none"" />
    <circle cx=879.38 cy=329.1817408324538 r=18.54543520811344 stroke=""none"" stroke-width=""1.5"" fill=""none"" />
    <polygon points = ""879.38,480 884.5967381968662,461.4545647918866 874.1632618031338,461.4545647918866"" stroke=""none"" stroke-width=""3"" fill = ""none"" />
    
    </svg>
    </div>
        ",,,,,,,,,,,,get_response,True,gTYJJZK9vObwEy4d,,,False,True,False,222.38,6.0,446.9,150.81825916754624,4.06,1.0,0.0,,,,21
55,html-keyboard-response,55,195966,0.0-55.0,,,,"
    <div style="" display: block;  position: relative;"">
    
    <svg width=1440 height=960>
    <circle cx=657 cy=480 r=12.981804645679407 stroke=""black"" stroke-width=""1"" fill=""black"" />
    <circle cx=1030.1982591675462 cy=480 r=18.54543520811344 stroke=""none"" stroke-width=""1.5"" fill=""none"" />
    <circle cx=879.38 cy=630.8182591675462 r=18.54543520811344 stroke=""none"" stroke-width=""1.5"" fill=""none"" />
    <circle cx=728.5617408324538 cy=480 r=18.54543520811344 stroke=""none"" stroke-width=""1.5"" fill=""none"" />
    <circle cx=879.38 cy=329.1817408324538 r=18.54543520811344 stroke=""none"" stroke-width=""1.5"" fill=""none"" />
    <polygon points = ""879.38,480 884.5967381968662,461.4545647918866 874.1632618031338,461.4545647918866"" stroke=""none"" stroke-width=""3"" fill = ""none"" />
    
    </svg>
    </div>
        ",,,,,,,,,,,,,,,,,,,,,,,,,,,,,,21
56,html-keyboard-response,56,196121,0.0-56.0,,,,"
    <div style="" display: block;  position: relative;"">
    <svg width=1440 height=960>
    
    <circle cx=657 cy=480 r=12.981804645679407 stroke=""black"" stroke-width=""1"" fill=""black"" />
    <circle cx=879.38 cy=480 r=18.54543520811344 stroke=""black"" stroke-width=""1.5"" fill=""none"" />
    <circle cx=1030.1982591675462 cy=480 r=18.54543520811344 stroke=""black"" stroke-width=""1.5"" fill=""none"" />
    <circle cx=879.38 cy=630.8182591675462 r=18.54543520811344 stroke=""black"" stroke-width=""1.5"" fill=""none"" />
    <circle cx=728.5617408324538 cy=480 r=18.54543520811344 stroke=""black"" stroke-width=""1.5"" fill=""none"" />
    <circle cx=879.38 cy=329.1817408324538 r=18.54543520811344 stroke=""black"" stroke-width=""1.5"" fill=""none"" />
    <polygon points = ""879.38,480 884.5967381968662,498.5454352081134 874.1632618031338,498.5454352081134"" stroke=""white"" stroke-width=""3"" fill = ""white"" />
    
    </svg>
    </div>
        ",,,,,,,,,,,,stimulus,,,,,,,,,,,,,,,,,,21
57,html-keyboard-response,57,196386,0.0-57.0,263.0,arrowdown,,"
    <div style="" display: block;  position: relative;"">
    
    <svg width=1440 height=960>
    <circle cx=657 cy=480 r=12.981804645679407 stroke=""black"" stroke-width=""1"" fill=""black"" />
    <circle cx=1030.1982591675462 cy=480 r=18.54543520811344 stroke=""none"" stroke-width=""1.5"" fill=""none"" />
    <circle cx=879.38 cy=630.8182591675462 r=18.54543520811344 stroke=""none"" stroke-width=""1.5"" fill=""none"" />
    <circle cx=728.5617408324538 cy=480 r=18.54543520811344 stroke=""none"" stroke-width=""1.5"" fill=""none"" />
    <circle cx=879.38 cy=329.1817408324538 r=18.54543520811344 stroke=""none"" stroke-width=""1.5"" fill=""none"" />
    <polygon points = ""879.38,480 884.5967381968662,498.5454352081134 874.1632618031338,498.5454352081134"" stroke=""none"" stroke-width=""3"" fill = ""none"" />
    
    </svg>
    </div>
        ",,,,,,,,,,,,get_response,True,gTYJJZK9vObwEy4d,,,False,False,False,222.38,6.0,446.9,150.81825916754624,4.06,1.0,0.0,,,,21
58,html-keyboard-response,58,196891,0.0-58.0,,,,"
    <div style="" display: block;  position: relative;"">
    
    <svg width=1440 height=960>
    <circle cx=657 cy=480 r=12.981804645679407 stroke=""black"" stroke-width=""1"" fill=""black"" />
    <circle cx=1030.1982591675462 cy=480 r=18.54543520811344 stroke=""none"" stroke-width=""1.5"" fill=""none"" />
    <circle cx=879.38 cy=630.8182591675462 r=18.54543520811344 stroke=""none"" stroke-width=""1.5"" fill=""none"" />
    <circle cx=728.5617408324538 cy=480 r=18.54543520811344 stroke=""none"" stroke-width=""1.5"" fill=""none"" />
    <circle cx=879.38 cy=329.1817408324538 r=18.54543520811344 stroke=""none"" stroke-width=""1.5"" fill=""none"" />
    <polygon points = ""879.38,480 884.5967381968662,498.5454352081134 874.1632618031338,498.5454352081134"" stroke=""none"" stroke-width=""3"" fill = ""none"" />
    
    </svg>
    </div>
        ",,,,,,,,,,,,,,,,,,,,,,,,,,,,,,21
59,html-keyboard-response,59,197049,0.0-59.0,,,,"
    <div style="" display: block;  position: relative;"">
    <svg width=1440 height=960>
    
    <circle cx=657 cy=480 r=12.981804645679407 stroke=""black"" stroke-width=""1"" fill=""black"" />
    <circle cx=879.38 cy=480 r=18.54543520811344 stroke=""black"" stroke-width=""1.5"" fill=""none"" />
    <circle cx=1030.1982591675462 cy=480 r=18.54543520811344 stroke=""black"" stroke-width=""1.5"" fill=""none"" />
    <circle cx=879.38 cy=630.8182591675462 r=18.54543520811344 stroke=""black"" stroke-width=""1.5"" fill=""none"" />
    <circle cx=728.5617408324538 cy=480 r=18.54543520811344 stroke=""black"" stroke-width=""1.5"" fill=""none"" />
    <circle cx=879.38 cy=329.1817408324538 r=18.54543520811344 stroke=""black"" stroke-width=""1.5"" fill=""none"" />
    <polygon points = ""879.38,480 884.5967381968662,461.4545647918866 874.1632618031338,461.4545647918866"" stroke=""white"" stroke-width=""3"" fill = ""white"" />
    
    </svg>
    </div>
        ",,,,,,,,,,,,stimulus,,,,,,,,,,,,,,,,,,21
60,html-keyboard-response,60,197257,0.0-60.0,206.0,arrowup,,"
    <div style="" display: block;  position: relative;"">
    
    <svg width=1440 height=960>
    <circle cx=657 cy=480 r=12.981804645679407 stroke=""black"" stroke-width=""1"" fill=""black"" />
    <circle cx=1030.1982591675462 cy=480 r=18.54543520811344 stroke=""none"" stroke-width=""1.5"" fill=""none"" />
    <circle cx=879.38 cy=630.8182591675462 r=18.54543520811344 stroke=""none"" stroke-width=""1.5"" fill=""none"" />
    <circle cx=728.5617408324538 cy=480 r=18.54543520811344 stroke=""none"" stroke-width=""1.5"" fill=""none"" />
    <circle cx=879.38 cy=329.1817408324538 r=18.54543520811344 stroke=""none"" stroke-width=""1.5"" fill=""none"" />
    <polygon points = ""879.38,480 884.5967381968662,461.4545647918866 874.1632618031338,461.4545647918866"" stroke=""none"" stroke-width=""3"" fill = ""none"" />
    
    </svg>
    </div>
        ",,,,,,,,,,,,get_response,True,gTYJJZK9vObwEy4d,,,False,True,False,222.38,6.0,446.9,150.81825916754624,4.06,1.0,0.0,,,,21
61,html-keyboard-response,61,197773,0.0-61.0,,,,"
    <div style="" display: block;  position: relative;"">
    
    <svg width=1440 height=960>
    <circle cx=657 cy=480 r=12.981804645679407 stroke=""black"" stroke-width=""1"" fill=""black"" />
    <circle cx=1030.1982591675462 cy=480 r=18.54543520811344 stroke=""none"" stroke-width=""1.5"" fill=""none"" />
    <circle cx=879.38 cy=630.8182591675462 r=18.54543520811344 stroke=""none"" stroke-width=""1.5"" fill=""none"" />
    <circle cx=728.5617408324538 cy=480 r=18.54543520811344 stroke=""none"" stroke-width=""1.5"" fill=""none"" />
    <circle cx=879.38 cy=329.1817408324538 r=18.54543520811344 stroke=""none"" stroke-width=""1.5"" fill=""none"" />
    <polygon points = ""879.38,480 884.5967381968662,461.4545647918866 874.1632618031338,461.4545647918866"" stroke=""none"" stroke-width=""3"" fill = ""none"" />
    
    </svg>
    </div>
        ",,,,,,,,,,,,,,,,,,,,,,,,,,,,,,21
62,html-keyboard-response,62,197929,0.0-62.0,,,,"
    <div style="" display: block;  position: relative;"">
    <svg width=1440 height=960>
    
    <circle cx=657 cy=480 r=12.981804645679407 stroke=""black"" stroke-width=""1"" fill=""black"" />
    <circle cx=434.62 cy=480 r=18.54543520811344 stroke=""black"" stroke-width=""1.5"" fill=""none"" />
    <circle cx=571.727508334133 cy=480 r=18.54543520811344 stroke=""black"" stroke-width=""1.5"" fill=""none"" />
    <circle cx=434.62 cy=617.107508334133 r=18.54543520811344 stroke=""black"" stroke-width=""1.5"" fill=""none"" />
    <circle cx=297.51249166586706 cy=480 r=18.54543520811344 stroke=""black"" stroke-width=""1.5"" fill=""none"" />
    <circle cx=434.62 cy=342.89249166586706 r=18.54543520811344 stroke=""black"" stroke-width=""1.5"" fill=""none"" />
    <polygon points = ""434.62,480 439.8367381968663,461.4545647918866 429.4032618031337,461.4545647918866"" stroke=""white"" stroke-width=""3"" fill = ""white"" />
    
    </svg>
    </div>
        ",,,,,,,,,,,,stimulus,,,,,,,,,,,,,,,,,,21
63,html-keyboard-response,63,198042,0.0-63.0,111.0,arrowdown,,"
    <div style="" display: block;  position: relative;"">
    
    <svg width=1440 height=960>
    <circle cx=657 cy=480 r=12.981804645679407 stroke=""black"" stroke-width=""1"" fill=""black"" />
    <circle cx=571.727508334133 cy=480 r=18.54543520811344 stroke=""none"" stroke-width=""1.5"" fill=""none"" />
    <circle cx=434.62 cy=617.107508334133 r=18.54543520811344 stroke=""none"" stroke-width=""1.5"" fill=""none"" />
    <circle cx=297.51249166586706 cy=480 r=18.54543520811344 stroke=""none"" stroke-width=""1.5"" fill=""none"" />
    <circle cx=434.62 cy=342.89249166586706 r=18.54543520811344 stroke=""none"" stroke-width=""1.5"" fill=""none"" />
    <polygon points = ""434.62,480 439.8367381968663,461.4545647918866 429.4032618031337,461.4545647918866"" stroke=""none"" stroke-width=""3"" fill = ""none"" />
    
    </svg>
    </div>
        ",,,,,,,,,,,,get_response,False,gTYJJZK9vObwEy4d,,,True,True,False,222.38,6.0,446.9,137.10750833413294,3.69,1.0,0.0,,,,21
64,html-keyboard-response,64,198556,0.0-64.0,,,,"
    <div style="" display: block;  position: relative;"">
    
    <svg width=1440 height=960>
    <circle cx=657 cy=480 r=12.981804645679407 stroke=""black"" stroke-width=""1"" fill=""black"" />
    <circle cx=571.727508334133 cy=480 r=18.54543520811344 stroke=""none"" stroke-width=""1.5"" fill=""none"" />
    <circle cx=434.62 cy=617.107508334133 r=18.54543520811344 stroke=""none"" stroke-width=""1.5"" fill=""none"" />
    <circle cx=297.51249166586706 cy=480 r=18.54543520811344 stroke=""none"" stroke-width=""1.5"" fill=""none"" />
    <circle cx=434.62 cy=342.89249166586706 r=18.54543520811344 stroke=""none"" stroke-width=""1.5"" fill=""none"" />
    <polygon points = ""434.62,480 439.8367381968663,461.4545647918866 429.4032618031337,461.4545647918866"" stroke=""none"" stroke-width=""3"" fill = ""none"" />
    
    </svg>
    </div>
        ",,,,,,,,,,,,,,,,,,,,,,,,,,,,,,21
65,html-keyboard-response,65,198711,0.0-65.0,,,,"
    <div style="" display: block;  position: relative;"">
    <svg width=1440 height=960>
    
    <circle cx=657 cy=480 r=12.981804645679407 stroke=""black"" stroke-width=""1"" fill=""black"" />
    <circle cx=434.62 cy=480 r=18.54543520811344 stroke=""black"" stroke-width=""1.5"" fill=""none"" />
    <circle cx=585.4382591675462 cy=480 r=18.54543520811344 stroke=""black"" stroke-width=""1.5"" fill=""none"" />
    <circle cx=434.62 cy=630.8182591675462 r=18.54543520811344 stroke=""black"" stroke-width=""1.5"" fill=""none"" />
    <circle cx=283.8017408324538 cy=480 r=18.54543520811344 stroke=""black"" stroke-width=""1.5"" fill=""none"" />
    <circle cx=434.62 cy=329.1817408324538 r=18.54543520811344 stroke=""black"" stroke-width=""1.5"" fill=""none"" />
    <polygon points = ""434.62,480 439.8367381968663,461.4545647918866 429.4032618031337,461.4545647918866"" stroke=""white"" stroke-width=""3"" fill = ""white"" />
    
    </svg>
    </div>
        ",,,,,,,,,,,,stimulus,,,,,,,,,,,,,,,,,,21
66,html-keyboard-response,66,198984,0.0-66.0,271.0,arrowup,,"
    <div style="" display: block;  position: relative;"">
    
    <svg width=1440 height=960>
    <circle cx=657 cy=480 r=12.981804645679407 stroke=""black"" stroke-width=""1"" fill=""black"" />
    <circle cx=585.4382591675462 cy=480 r=18.54543520811344 stroke=""none"" stroke-width=""1.5"" fill=""none"" />
    <circle cx=434.62 cy=630.8182591675462 r=18.54543520811344 stroke=""none"" stroke-width=""1.5"" fill=""none"" />
    <circle cx=283.8017408324538 cy=480 r=18.54543520811344 stroke=""none"" stroke-width=""1.5"" fill=""none"" />
    <circle cx=434.62 cy=329.1817408324538 r=18.54543520811344 stroke=""none"" stroke-width=""1.5"" fill=""none"" />
    <polygon points = ""434.62,480 439.8367381968663,461.4545647918866 429.4032618031337,461.4545647918866"" stroke=""none"" stroke-width=""3"" fill = ""none"" />
    
    </svg>
    </div>
        ",,,,,,,,,,,,get_response,True,gTYJJZK9vObwEy4d,,,True,True,False,222.38,6.0,446.9,150.81825916754624,4.06,1.0,0.0,,,,21
67,html-keyboard-response,67,199496,0.0-67.0,,,,"
    <div style="" display: block;  position: relative;"">
    
    <svg width=1440 height=960>
    <circle cx=657 cy=480 r=12.981804645679407 stroke=""black"" stroke-width=""1"" fill=""black"" />
    <circle cx=585.4382591675462 cy=480 r=18.54543520811344 stroke=""none"" stroke-width=""1.5"" fill=""none"" />
    <circle cx=434.62 cy=630.8182591675462 r=18.54543520811344 stroke=""none"" stroke-width=""1.5"" fill=""none"" />
    <circle cx=283.8017408324538 cy=480 r=18.54543520811344 stroke=""none"" stroke-width=""1.5"" fill=""none"" />
    <circle cx=434.62 cy=329.1817408324538 r=18.54543520811344 stroke=""none"" stroke-width=""1.5"" fill=""none"" />
    <polygon points = ""434.62,480 439.8367381968663,461.4545647918866 429.4032618031337,461.4545647918866"" stroke=""none"" stroke-width=""3"" fill = ""none"" />
    
    </svg>
    </div>
        ",,,,,,,,,,,,,,,,,,,,,,,,,,,,,,21
68,html-keyboard-response,68,199652,0.0-68.0,,,,"
    <div style="" display: block;  position: relative;"">
    <svg width=1440 height=960>
    
    <circle cx=657 cy=480 r=12.981804645679407 stroke=""black"" stroke-width=""1"" fill=""black"" />
    <circle cx=879.38 cy=480 r=18.54543520811344 stroke=""black"" stroke-width=""1.5"" fill=""none"" />
    <circle cx=1030.1982591675462 cy=480 r=18.54543520811344 stroke=""black"" stroke-width=""1.5"" fill=""none"" />
    <circle cx=879.38 cy=630.8182591675462 r=18.54543520811344 stroke=""black"" stroke-width=""1.5"" fill=""none"" />
    <circle cx=728.5617408324538 cy=480 r=18.54543520811344 stroke=""black"" stroke-width=""1.5"" fill=""none"" />
    <circle cx=879.38 cy=329.1817408324538 r=18.54543520811344 stroke=""black"" stroke-width=""1.5"" fill=""none"" />
    <polygon points = ""879.38,480 884.5967381968662,498.5454352081134 874.1632618031338,498.5454352081134"" stroke=""white"" stroke-width=""3"" fill = ""white"" />
    
    </svg>
    </div>
        ",,,,,,,,,,,,stimulus,,,,,,,,,,,,,,,,,,21
69,html-keyboard-response,69,199908,0.0-69.0,255.0,arrowdown,,"
    <div style="" display: block;  position: relative;"">
    
    <svg width=1440 height=960>
    <circle cx=657 cy=480 r=12.981804645679407 stroke=""black"" stroke-width=""1"" fill=""black"" />
    <circle cx=1030.1982591675462 cy=480 r=18.54543520811344 stroke=""none"" stroke-width=""1.5"" fill=""none"" />
    <circle cx=879.38 cy=630.8182591675462 r=18.54543520811344 stroke=""none"" stroke-width=""1.5"" fill=""none"" />
    <circle cx=728.5617408324538 cy=480 r=18.54543520811344 stroke=""none"" stroke-width=""1.5"" fill=""none"" />
    <circle cx=879.38 cy=329.1817408324538 r=18.54543520811344 stroke=""none"" stroke-width=""1.5"" fill=""none"" />
    <polygon points = ""879.38,480 884.5967381968662,498.5454352081134 874.1632618031338,498.5454352081134"" stroke=""none"" stroke-width=""3"" fill = ""none"" />
    
    </svg>
    </div>
        ",,,,,,,,,,,,get_response,True,gTYJJZK9vObwEy4d,,,False,False,False,222.38,6.0,446.9,150.81825916754624,4.06,1.0,0.0,,,,21
70,html-keyboard-response,70,200411,0.0-70.0,,,,"
    <div style="" display: block;  position: relative;"">
    
    <svg width=1440 height=960>
    <circle cx=657 cy=480 r=12.981804645679407 stroke=""black"" stroke-width=""1"" fill=""black"" />
    <circle cx=1030.1982591675462 cy=480 r=18.54543520811344 stroke=""none"" stroke-width=""1.5"" fill=""none"" />
    <circle cx=879.38 cy=630.8182591675462 r=18.54543520811344 stroke=""none"" stroke-width=""1.5"" fill=""none"" />
    <circle cx=728.5617408324538 cy=480 r=18.54543520811344 stroke=""none"" stroke-width=""1.5"" fill=""none"" />
    <circle cx=879.38 cy=329.1817408324538 r=18.54543520811344 stroke=""none"" stroke-width=""1.5"" fill=""none"" />
    <polygon points = ""879.38,480 884.5967381968662,498.5454352081134 874.1632618031338,498.5454352081134"" stroke=""none"" stroke-width=""3"" fill = ""none"" />
    
    </svg>
    </div>
        ",,,,,,,,,,,,,,,,,,,,,,,,,,,,,,21
71,html-keyboard-response,71,200567,0.0-71.0,,,,"
    <div style="" display: block;  position: relative;"">
    <svg width=1440 height=960>
    
    <circle cx=657 cy=480 r=12.981804645679407 stroke=""black"" stroke-width=""1"" fill=""black"" />
    <circle cx=879.38 cy=480 r=18.54543520811344 stroke=""black"" stroke-width=""1.5"" fill=""none"" />
    <circle cx=1030.1982591675462 cy=480 r=18.54543520811344 stroke=""black"" stroke-width=""1.5"" fill=""none"" />
    <circle cx=879.38 cy=630.8182591675462 r=18.54543520811344 stroke=""black"" stroke-width=""1.5"" fill=""none"" />
    <circle cx=728.5617408324538 cy=480 r=18.54543520811344 stroke=""black"" stroke-width=""1.5"" fill=""none"" />
    <circle cx=879.38 cy=329.1817408324538 r=18.54543520811344 stroke=""black"" stroke-width=""1.5"" fill=""none"" />
    <polygon points = ""879.38,480 884.5967381968662,461.4545647918866 874.1632618031338,461.4545647918866"" stroke=""white"" stroke-width=""3"" fill = ""white"" />
    
    </svg>
    </div>
        ",,,,,,,,,,,,stimulus,,,,,,,,,,,,,,,,,,21
72,html-keyboard-response,72,200744,0.0-72.0,175.0,arrowup,,"
    <div style="" display: block;  position: relative;"">
    
    <svg width=1440 height=960>
    <circle cx=657 cy=480 r=12.981804645679407 stroke=""black"" stroke-width=""1"" fill=""black"" />
    <circle cx=1030.1982591675462 cy=480 r=18.54543520811344 stroke=""none"" stroke-width=""1.5"" fill=""none"" />
    <circle cx=879.38 cy=630.8182591675462 r=18.54543520811344 stroke=""none"" stroke-width=""1.5"" fill=""none"" />
    <circle cx=728.5617408324538 cy=480 r=18.54543520811344 stroke=""none"" stroke-width=""1.5"" fill=""none"" />
    <circle cx=879.38 cy=329.1817408324538 r=18.54543520811344 stroke=""none"" stroke-width=""1.5"" fill=""none"" />
    <polygon points = ""879.38,480 884.5967381968662,461.4545647918866 874.1632618031338,461.4545647918866"" stroke=""none"" stroke-width=""3"" fill = ""none"" />
    
    </svg>
    </div>
        ",,,,,,,,,,,,get_response,True,gTYJJZK9vObwEy4d,,,False,True,False,222.38,6.0,446.9,150.81825916754624,4.06,1.0,0.0,,,,21
73,html-keyboard-response,73,201255,0.0-73.0,,,,"
    <div style="" display: block;  position: relative;"">
    
    <svg width=1440 height=960>
    <circle cx=657 cy=480 r=12.981804645679407 stroke=""black"" stroke-width=""1"" fill=""black"" />
    <circle cx=1030.1982591675462 cy=480 r=18.54543520811344 stroke=""none"" stroke-width=""1.5"" fill=""none"" />
    <circle cx=879.38 cy=630.8182591675462 r=18.54543520811344 stroke=""none"" stroke-width=""1.5"" fill=""none"" />
    <circle cx=728.5617408324538 cy=480 r=18.54543520811344 stroke=""none"" stroke-width=""1.5"" fill=""none"" />
    <circle cx=879.38 cy=329.1817408324538 r=18.54543520811344 stroke=""none"" stroke-width=""1.5"" fill=""none"" />
    <polygon points = ""879.38,480 884.5967381968662,461.4545647918866 874.1632618031338,461.4545647918866"" stroke=""none"" stroke-width=""3"" fill = ""none"" />
    
    </svg>
    </div>
        ",,,,,,,,,,,,,,,,,,,,,,,,,,,,,,21
74,html-keyboard-response,74,201412,0.0-74.0,,,,"
    <div style="" display: block;  position: relative;"">
    <svg width=1440 height=960>
    
    <circle cx=657 cy=480 r=12.981804645679407 stroke=""black"" stroke-width=""1"" fill=""black"" />
    <circle cx=434.62 cy=480 r=18.54543520811344 stroke=""black"" stroke-width=""1.5"" fill=""none"" />
    <circle cx=571.727508334133 cy=480 r=18.54543520811344 stroke=""black"" stroke-width=""1.5"" fill=""none"" />
    <circle cx=434.62 cy=617.107508334133 r=18.54543520811344 stroke=""black"" stroke-width=""1.5"" fill=""none"" />
    <circle cx=297.51249166586706 cy=480 r=18.54543520811344 stroke=""black"" stroke-width=""1.5"" fill=""none"" />
    <circle cx=434.62 cy=342.89249166586706 r=18.54543520811344 stroke=""black"" stroke-width=""1.5"" fill=""none"" />
    <polygon points = ""434.62,480 439.8367381968663,461.4545647918866 429.4032618031337,461.4545647918866"" stroke=""white"" stroke-width=""3"" fill = ""white"" />
    
    </svg>
    </div>
        ",,,,,,,,,,,,stimulus,,,,,,,,,,,,,,,,,,21
75,html-keyboard-response,75,201614,0.0-75.0,200.0,arrowdown,,"
    <div style="" display: block;  position: relative;"">
    
    <svg width=1440 height=960>
    <circle cx=657 cy=480 r=12.981804645679407 stroke=""black"" stroke-width=""1"" fill=""black"" />
    <circle cx=571.727508334133 cy=480 r=18.54543520811344 stroke=""none"" stroke-width=""1.5"" fill=""none"" />
    <circle cx=434.62 cy=617.107508334133 r=18.54543520811344 stroke=""none"" stroke-width=""1.5"" fill=""none"" />
    <circle cx=297.51249166586706 cy=480 r=18.54543520811344 stroke=""none"" stroke-width=""1.5"" fill=""none"" />
    <circle cx=434.62 cy=342.89249166586706 r=18.54543520811344 stroke=""none"" stroke-width=""1.5"" fill=""none"" />
    <polygon points = ""434.62,480 439.8367381968663,461.4545647918866 429.4032618031337,461.4545647918866"" stroke=""none"" stroke-width=""3"" fill = ""none"" />
    
    </svg>
    </div>
        ",,,,,,,,,,,,get_response,False,gTYJJZK9vObwEy4d,,,True,True,False,222.38,6.0,446.9,137.10750833413294,3.69,1.0,0.0,,,,21
76,html-keyboard-response,76,202116,0.0-76.0,,,,"
    <div style="" display: block;  position: relative;"">
    
    <svg width=1440 height=960>
    <circle cx=657 cy=480 r=12.981804645679407 stroke=""black"" stroke-width=""1"" fill=""black"" />
    <circle cx=571.727508334133 cy=480 r=18.54543520811344 stroke=""none"" stroke-width=""1.5"" fill=""none"" />
    <circle cx=434.62 cy=617.107508334133 r=18.54543520811344 stroke=""none"" stroke-width=""1.5"" fill=""none"" />
    <circle cx=297.51249166586706 cy=480 r=18.54543520811344 stroke=""none"" stroke-width=""1.5"" fill=""none"" />
    <circle cx=434.62 cy=342.89249166586706 r=18.54543520811344 stroke=""none"" stroke-width=""1.5"" fill=""none"" />
    <polygon points = ""434.62,480 439.8367381968663,461.4545647918866 429.4032618031337,461.4545647918866"" stroke=""none"" stroke-width=""3"" fill = ""none"" />
    
    </svg>
    </div>
        ",,,,,,,,,,,,,,,,,,,,,,,,,,,,,,21
77,html-keyboard-response,77,202272,0.0-77.0,,,,"
    <div style="" display: block;  position: relative;"">
    <svg width=1440 height=960>
    
    <circle cx=657 cy=480 r=12.981804645679407 stroke=""black"" stroke-width=""1"" fill=""black"" />
    <circle cx=879.38 cy=480 r=18.54543520811344 stroke=""black"" stroke-width=""1.5"" fill=""none"" />
    <circle cx=1030.1982591675462 cy=480 r=18.54543520811344 stroke=""black"" stroke-width=""1.5"" fill=""none"" />
    <circle cx=879.38 cy=630.8182591675462 r=18.54543520811344 stroke=""black"" stroke-width=""1.5"" fill=""none"" />
    <circle cx=728.5617408324538 cy=480 r=18.54543520811344 stroke=""black"" stroke-width=""1.5"" fill=""none"" />
    <circle cx=879.38 cy=329.1817408324538 r=18.54543520811344 stroke=""black"" stroke-width=""1.5"" fill=""none"" />
    <polygon points = ""879.38,480 884.5967381968662,498.5454352081134 874.1632618031338,498.5454352081134"" stroke=""white"" stroke-width=""3"" fill = ""white"" />
    
    </svg>
    </div>
        ",,,,,,,,,,,,stimulus,,,,,,,,,,,,,,,,,,21
78,html-keyboard-response,78,202478,0.0-78.0,206.0,arrowup,,"
    <div style="" display: block;  position: relative;"">
    
    <svg width=1440 height=960>
    <circle cx=657 cy=480 r=12.981804645679407 stroke=""black"" stroke-width=""1"" fill=""black"" />
    <circle cx=1030.1982591675462 cy=480 r=18.54543520811344 stroke=""none"" stroke-width=""1.5"" fill=""none"" />
    <circle cx=879.38 cy=630.8182591675462 r=18.54543520811344 stroke=""none"" stroke-width=""1.5"" fill=""none"" />
    <circle cx=728.5617408324538 cy=480 r=18.54543520811344 stroke=""none"" stroke-width=""1.5"" fill=""none"" />
    <circle cx=879.38 cy=329.1817408324538 r=18.54543520811344 stroke=""none"" stroke-width=""1.5"" fill=""none"" />
    <polygon points = ""879.38,480 884.5967381968662,498.5454352081134 874.1632618031338,498.5454352081134"" stroke=""none"" stroke-width=""3"" fill = ""none"" />
    
    </svg>
    </div>
        ",,,,,,,,,,,,get_response,False,gTYJJZK9vObwEy4d,,,False,False,False,222.38,6.0,446.9,150.81825916754624,4.06,1.0,0.0,,,,21
79,html-keyboard-response,79,202992,0.0-79.0,,,,"
    <div style="" display: block;  position: relative;"">
    
    <svg width=1440 height=960>
    <circle cx=657 cy=480 r=12.981804645679407 stroke=""black"" stroke-width=""1"" fill=""black"" />
    <circle cx=1030.1982591675462 cy=480 r=18.54543520811344 stroke=""none"" stroke-width=""1.5"" fill=""none"" />
    <circle cx=879.38 cy=630.8182591675462 r=18.54543520811344 stroke=""none"" stroke-width=""1.5"" fill=""none"" />
    <circle cx=728.5617408324538 cy=480 r=18.54543520811344 stroke=""none"" stroke-width=""1.5"" fill=""none"" />
    <circle cx=879.38 cy=329.1817408324538 r=18.54543520811344 stroke=""none"" stroke-width=""1.5"" fill=""none"" />
    <polygon points = ""879.38,480 884.5967381968662,498.5454352081134 874.1632618031338,498.5454352081134"" stroke=""none"" stroke-width=""3"" fill = ""none"" />
    
    </svg>
    </div>
        ",,,,,,,,,,,,,,,,,,,,,,,,,,,,,,21
80,html-keyboard-response,80,203149,0.0-80.0,,,,"
    <div style="" display: block;  position: relative;"">
    <svg width=1440 height=960>
    
    <circle cx=657 cy=480 r=12.981804645679407 stroke=""black"" stroke-width=""1"" fill=""black"" />
    <circle cx=434.62 cy=480 r=18.54543520811344 stroke=""black"" stroke-width=""1.5"" fill=""none"" />
    <circle cx=585.4382591675462 cy=480 r=18.54543520811344 stroke=""black"" stroke-width=""1.5"" fill=""none"" />
    <circle cx=434.62 cy=630.8182591675462 r=18.54543520811344 stroke=""black"" stroke-width=""1.5"" fill=""none"" />
    <circle cx=283.8017408324538 cy=480 r=18.54543520811344 stroke=""black"" stroke-width=""1.5"" fill=""none"" />
    <circle cx=434.62 cy=329.1817408324538 r=18.54543520811344 stroke=""black"" stroke-width=""1.5"" fill=""none"" />
    <polygon points = ""434.62,480 439.8367381968663,461.4545647918866 429.4032618031337,461.4545647918866"" stroke=""white"" stroke-width=""3"" fill = ""white"" />
    
    </svg>
    </div>
        ",,,,,,,,,,,,stimulus,,,,,,,,,,,,,,,,,,21
81,html-keyboard-response,81,203340,0.0-81.0,190.0,arrowdown,,"
    <div style="" display: block;  position: relative;"">
    
    <svg width=1440 height=960>
    <circle cx=657 cy=480 r=12.981804645679407 stroke=""black"" stroke-width=""1"" fill=""black"" />
    <circle cx=585.4382591675462 cy=480 r=18.54543520811344 stroke=""none"" stroke-width=""1.5"" fill=""none"" />
    <circle cx=434.62 cy=630.8182591675462 r=18.54543520811344 stroke=""none"" stroke-width=""1.5"" fill=""none"" />
    <circle cx=283.8017408324538 cy=480 r=18.54543520811344 stroke=""none"" stroke-width=""1.5"" fill=""none"" />
    <circle cx=434.62 cy=329.1817408324538 r=18.54543520811344 stroke=""none"" stroke-width=""1.5"" fill=""none"" />
    <polygon points = ""434.62,480 439.8367381968663,461.4545647918866 429.4032618031337,461.4545647918866"" stroke=""none"" stroke-width=""3"" fill = ""none"" />
    
    </svg>
    </div>
        ",,,,,,,,,,,,get_response,False,gTYJJZK9vObwEy4d,,,True,True,False,222.38,6.0,446.9,150.81825916754624,4.06,1.0,0.0,,,,21
82,html-keyboard-response,82,203853,0.0-82.0,,,,"
    <div style="" display: block;  position: relative;"">
    
    <svg width=1440 height=960>
    <circle cx=657 cy=480 r=12.981804645679407 stroke=""black"" stroke-width=""1"" fill=""black"" />
    <circle cx=585.4382591675462 cy=480 r=18.54543520811344 stroke=""none"" stroke-width=""1.5"" fill=""none"" />
    <circle cx=434.62 cy=630.8182591675462 r=18.54543520811344 stroke=""none"" stroke-width=""1.5"" fill=""none"" />
    <circle cx=283.8017408324538 cy=480 r=18.54543520811344 stroke=""none"" stroke-width=""1.5"" fill=""none"" />
    <circle cx=434.62 cy=329.1817408324538 r=18.54543520811344 stroke=""none"" stroke-width=""1.5"" fill=""none"" />
    <polygon points = ""434.62,480 439.8367381968663,461.4545647918866 429.4032618031337,461.4545647918866"" stroke=""none"" stroke-width=""3"" fill = ""none"" />
    
    </svg>
    </div>
        ",,,,,,,,,,,,,,,,,,,,,,,,,,,,,,21
83,html-keyboard-response,83,204008,0.0-83.0,,,,"
    <div style="" display: block;  position: relative;"">
    <svg width=1440 height=960>
    
    <circle cx=657 cy=480 r=12.981804645679407 stroke=""black"" stroke-width=""1"" fill=""black"" />
    <circle cx=879.38 cy=480 r=18.54543520811344 stroke=""black"" stroke-width=""1.5"" fill=""none"" />
    <circle cx=1030.1982591675462 cy=480 r=18.54543520811344 stroke=""black"" stroke-width=""1.5"" fill=""none"" />
    <circle cx=879.38 cy=630.8182591675462 r=18.54543520811344 stroke=""black"" stroke-width=""1.5"" fill=""none"" />
    <circle cx=728.5617408324538 cy=480 r=18.54543520811344 stroke=""black"" stroke-width=""1.5"" fill=""none"" />
    <circle cx=879.38 cy=329.1817408324538 r=18.54543520811344 stroke=""black"" stroke-width=""1.5"" fill=""none"" />
    <polygon points = ""879.38,480 884.5967381968662,461.4545647918866 874.1632618031338,461.4545647918866"" stroke=""white"" stroke-width=""3"" fill = ""white"" />
    
    </svg>
    </div>
        ",,,,,,,,,,,,stimulus,,,,,,,,,,,,,,,,,,21
84,html-keyboard-response,84,204010,0.0-84.0,2.0,arrowup,,"
    <div style="" display: block;  position: relative;"">
    
    <svg width=1440 height=960>
    <circle cx=657 cy=480 r=12.981804645679407 stroke=""black"" stroke-width=""1"" fill=""black"" />
    <circle cx=1030.1982591675462 cy=480 r=18.54543520811344 stroke=""none"" stroke-width=""1.5"" fill=""none"" />
    <circle cx=879.38 cy=630.8182591675462 r=18.54543520811344 stroke=""none"" stroke-width=""1.5"" fill=""none"" />
    <circle cx=728.5617408324538 cy=480 r=18.54543520811344 stroke=""none"" stroke-width=""1.5"" fill=""none"" />
    <circle cx=879.38 cy=329.1817408324538 r=18.54543520811344 stroke=""none"" stroke-width=""1.5"" fill=""none"" />
    <polygon points = ""879.38,480 884.5967381968662,461.4545647918866 874.1632618031338,461.4545647918866"" stroke=""none"" stroke-width=""3"" fill = ""none"" />
    
    </svg>
    </div>
        ",,,,,,,,,,,,get_response,True,gTYJJZK9vObwEy4d,,,False,True,False,222.38,6.0,446.9,150.81825916754624,4.06,1.0,0.0,,,,21
85,html-keyboard-response,85,204524,0.0-85.0,,,,"
    <div style="" display: block;  position: relative;"">
    
    <svg width=1440 height=960>
    <circle cx=657 cy=480 r=12.981804645679407 stroke=""black"" stroke-width=""1"" fill=""black"" />
    <circle cx=1030.1982591675462 cy=480 r=18.54543520811344 stroke=""none"" stroke-width=""1.5"" fill=""none"" />
    <circle cx=879.38 cy=630.8182591675462 r=18.54543520811344 stroke=""none"" stroke-width=""1.5"" fill=""none"" />
    <circle cx=728.5617408324538 cy=480 r=18.54543520811344 stroke=""none"" stroke-width=""1.5"" fill=""none"" />
    <circle cx=879.38 cy=329.1817408324538 r=18.54543520811344 stroke=""none"" stroke-width=""1.5"" fill=""none"" />
    <polygon points = ""879.38,480 884.5967381968662,461.4545647918866 874.1632618031338,461.4545647918866"" stroke=""none"" stroke-width=""3"" fill = ""none"" />
    
    </svg>
    </div>
        ",,,,,,,,,,,,,,,,,,,,,,,,,,,,,,21
86,html-keyboard-response,86,204680,0.0-86.0,,,,"
    <div style="" display: block;  position: relative;"">
    <svg width=1440 height=960>
    
    <circle cx=657 cy=480 r=12.981804645679407 stroke=""black"" stroke-width=""1"" fill=""black"" />
    <circle cx=879.38 cy=480 r=18.54543520811344 stroke=""black"" stroke-width=""1.5"" fill=""none"" />
    <circle cx=1030.1982591675462 cy=480 r=18.54543520811344 stroke=""black"" stroke-width=""1.5"" fill=""none"" />
    <circle cx=879.38 cy=630.8182591675462 r=18.54543520811344 stroke=""black"" stroke-width=""1.5"" fill=""none"" />
    <circle cx=728.5617408324538 cy=480 r=18.54543520811344 stroke=""black"" stroke-width=""1.5"" fill=""none"" />
    <circle cx=879.38 cy=329.1817408324538 r=18.54543520811344 stroke=""black"" stroke-width=""1.5"" fill=""none"" />
    <polygon points = ""879.38,480 884.5967381968662,498.5454352081134 874.1632618031338,498.5454352081134"" stroke=""white"" stroke-width=""3"" fill = ""white"" />
    
    </svg>
    </div>
        ",,,,,,,,,,,,stimulus,,,,,,,,,,,,,,,,,,21
87,html-keyboard-response,87,204828,0.0-87.0,147.0,arrowup,,"
    <div style="" display: block;  position: relative;"">
    
    <svg width=1440 height=960>
    <circle cx=657 cy=480 r=12.981804645679407 stroke=""black"" stroke-width=""1"" fill=""black"" />
    <circle cx=1030.1982591675462 cy=480 r=18.54543520811344 stroke=""none"" stroke-width=""1.5"" fill=""none"" />
    <circle cx=879.38 cy=630.8182591675462 r=18.54543520811344 stroke=""none"" stroke-width=""1.5"" fill=""none"" />
    <circle cx=728.5617408324538 cy=480 r=18.54543520811344 stroke=""none"" stroke-width=""1.5"" fill=""none"" />
    <circle cx=879.38 cy=329.1817408324538 r=18.54543520811344 stroke=""none"" stroke-width=""1.5"" fill=""none"" />
    <polygon points = ""879.38,480 884.5967381968662,498.5454352081134 874.1632618031338,498.5454352081134"" stroke=""none"" stroke-width=""3"" fill = ""none"" />
    
    </svg>
    </div>
        ",,,,,,,,,,,,get_response,False,gTYJJZK9vObwEy4d,,,False,False,False,222.38,6.0,446.9,150.81825916754624,4.06,1.0,0.0,,,,21
88,html-keyboard-response,88,204987,0.0-88.0,157.0,arrowdown,,"
    <div style="" display: block;  position: relative;"">
    
    <svg width=1440 height=960>
    <circle cx=657 cy=480 r=12.981804645679407 stroke=""black"" stroke-width=""1"" fill=""black"" />
    <circle cx=1030.1982591675462 cy=480 r=18.54543520811344 stroke=""none"" stroke-width=""1.5"" fill=""none"" />
    <circle cx=879.38 cy=630.8182591675462 r=18.54543520811344 stroke=""none"" stroke-width=""1.5"" fill=""none"" />
    <circle cx=728.5617408324538 cy=480 r=18.54543520811344 stroke=""none"" stroke-width=""1.5"" fill=""none"" />
    <circle cx=879.38 cy=329.1817408324538 r=18.54543520811344 stroke=""none"" stroke-width=""1.5"" fill=""none"" />
    <polygon points = ""879.38,480 884.5967381968662,498.5454352081134 874.1632618031338,498.5454352081134"" stroke=""none"" stroke-width=""3"" fill = ""none"" />
    
    </svg>
    </div>
        ",,,,,,,,,,,,,,,,,,,,,,,,,,,,,,21
89,html-keyboard-response,89,205148,0.0-89.0,,,,"
    <div style="" display: block;  position: relative;"">
    <svg width=1440 height=960>
    
    <circle cx=657 cy=480 r=12.981804645679407 stroke=""black"" stroke-width=""1"" fill=""black"" />
    <circle cx=879.38 cy=480 r=18.54543520811344 stroke=""black"" stroke-width=""1.5"" fill=""none"" />
    <circle cx=1030.1982591675462 cy=480 r=18.54543520811344 stroke=""black"" stroke-width=""1.5"" fill=""none"" />
    <circle cx=879.38 cy=630.8182591675462 r=18.54543520811344 stroke=""black"" stroke-width=""1.5"" fill=""none"" />
    <circle cx=728.5617408324538 cy=480 r=18.54543520811344 stroke=""black"" stroke-width=""1.5"" fill=""none"" />
    <circle cx=879.38 cy=329.1817408324538 r=18.54543520811344 stroke=""black"" stroke-width=""1.5"" fill=""none"" />
    <polygon points = ""879.38,480 884.5967381968662,461.4545647918866 874.1632618031338,461.4545647918866"" stroke=""white"" stroke-width=""3"" fill = ""white"" />
    
    </svg>
    </div>
        ",,,,,,,,,,,,stimulus,,,,,,,,,,,,,,,,,,21
90,html-keyboard-response,90,205620,0.0-90.0,470.0,arrowup,,"
    <div style="" display: block;  position: relative;"">
    
    <svg width=1440 height=960>
    <circle cx=657 cy=480 r=12.981804645679407 stroke=""black"" stroke-width=""1"" fill=""black"" />
    <circle cx=1030.1982591675462 cy=480 r=18.54543520811344 stroke=""none"" stroke-width=""1.5"" fill=""none"" />
    <circle cx=879.38 cy=630.8182591675462 r=18.54543520811344 stroke=""none"" stroke-width=""1.5"" fill=""none"" />
    <circle cx=728.5617408324538 cy=480 r=18.54543520811344 stroke=""none"" stroke-width=""1.5"" fill=""none"" />
    <circle cx=879.38 cy=329.1817408324538 r=18.54543520811344 stroke=""none"" stroke-width=""1.5"" fill=""none"" />
    <polygon points = ""879.38,480 884.5967381968662,461.4545647918866 874.1632618031338,461.4545647918866"" stroke=""none"" stroke-width=""3"" fill = ""none"" />
    
    </svg>
    </div>
        ",,,,,,,,,,,,get_response,True,gTYJJZK9vObwEy4d,,,False,True,False,222.38,6.0,446.9,150.81825916754624,4.06,1.0,0.0,,,,21
91,html-keyboard-response,91,206134,0.0-91.0,,,,"
    <div style="" display: block;  position: relative;"">
    
    <svg width=1440 height=960>
    <circle cx=657 cy=480 r=12.981804645679407 stroke=""black"" stroke-width=""1"" fill=""black"" />
    <circle cx=1030.1982591675462 cy=480 r=18.54543520811344 stroke=""none"" stroke-width=""1.5"" fill=""none"" />
    <circle cx=879.38 cy=630.8182591675462 r=18.54543520811344 stroke=""none"" stroke-width=""1.5"" fill=""none"" />
    <circle cx=728.5617408324538 cy=480 r=18.54543520811344 stroke=""none"" stroke-width=""1.5"" fill=""none"" />
    <circle cx=879.38 cy=329.1817408324538 r=18.54543520811344 stroke=""none"" stroke-width=""1.5"" fill=""none"" />
    <polygon points = ""879.38,480 884.5967381968662,461.4545647918866 874.1632618031338,461.4545647918866"" stroke=""none"" stroke-width=""3"" fill = ""none"" />
    
    </svg>
    </div>
        ",,,,,,,,,,,,,,,,,,,,,,,,,,,,,,21
92,html-keyboard-response,92,206291,0.0-92.0,,,,"
    <div style="" display: block;  position: relative;"">
    <svg width=1440 height=960>
    
    <circle cx=657 cy=480 r=12.981804645679407 stroke=""black"" stroke-width=""1"" fill=""black"" />
    <circle cx=879.38 cy=480 r=18.54543520811344 stroke=""black"" stroke-width=""1.5"" fill=""none"" />
    <circle cx=1030.1982591675462 cy=480 r=18.54543520811344 stroke=""black"" stroke-width=""1.5"" fill=""none"" />
    <circle cx=879.38 cy=630.8182591675462 r=18.54543520811344 stroke=""black"" stroke-width=""1.5"" fill=""none"" />
    <circle cx=728.5617408324538 cy=480 r=18.54543520811344 stroke=""black"" stroke-width=""1.5"" fill=""none"" />
    <circle cx=879.38 cy=329.1817408324538 r=18.54543520811344 stroke=""black"" stroke-width=""1.5"" fill=""none"" />
    <polygon points = ""879.38,480 884.5967381968662,498.5454352081134 874.1632618031338,498.5454352081134"" stroke=""white"" stroke-width=""3"" fill = ""white"" />
    
    </svg>
    </div>
        ",,,,,,,,,,,,stimulus,,,,,,,,,,,,,,,,,,21
93,html-keyboard-response,93,206518,0.0-93.0,225.0,arrowdown,,"
    <div style="" display: block;  position: relative;"">
    
    <svg width=1440 height=960>
    <circle cx=657 cy=480 r=12.981804645679407 stroke=""black"" stroke-width=""1"" fill=""black"" />
    <circle cx=1030.1982591675462 cy=480 r=18.54543520811344 stroke=""none"" stroke-width=""1.5"" fill=""none"" />
    <circle cx=879.38 cy=630.8182591675462 r=18.54543520811344 stroke=""none"" stroke-width=""1.5"" fill=""none"" />
    <circle cx=728.5617408324538 cy=480 r=18.54543520811344 stroke=""none"" stroke-width=""1.5"" fill=""none"" />
    <circle cx=879.38 cy=329.1817408324538 r=18.54543520811344 stroke=""none"" stroke-width=""1.5"" fill=""none"" />
    <polygon points = ""879.38,480 884.5967381968662,498.5454352081134 874.1632618031338,498.5454352081134"" stroke=""none"" stroke-width=""3"" fill = ""none"" />
    
    </svg>
    </div>
        ",,,,,,,,,,,,get_response,True,gTYJJZK9vObwEy4d,,,False,False,False,222.38,6.0,446.9,150.81825916754624,4.06,1.0,0.0,,,,21
94,html-keyboard-response,94,207021,0.0-94.0,,,,"
    <div style="" display: block;  position: relative;"">
    
    <svg width=1440 height=960>
    <circle cx=657 cy=480 r=12.981804645679407 stroke=""black"" stroke-width=""1"" fill=""black"" />
    <circle cx=1030.1982591675462 cy=480 r=18.54543520811344 stroke=""none"" stroke-width=""1.5"" fill=""none"" />
    <circle cx=879.38 cy=630.8182591675462 r=18.54543520811344 stroke=""none"" stroke-width=""1.5"" fill=""none"" />
    <circle cx=728.5617408324538 cy=480 r=18.54543520811344 stroke=""none"" stroke-width=""1.5"" fill=""none"" />
    <circle cx=879.38 cy=329.1817408324538 r=18.54543520811344 stroke=""none"" stroke-width=""1.5"" fill=""none"" />
    <polygon points = ""879.38,480 884.5967381968662,498.5454352081134 874.1632618031338,498.5454352081134"" stroke=""none"" stroke-width=""3"" fill = ""none"" />
    
    </svg>
    </div>
        ",,,,,,,,,,,,,,,,,,,,,,,,,,,,,,21
95,html-keyboard-response,95,207178,0.0-95.0,,,,"
    <div style="" display: block;  position: relative;"">
    <svg width=1440 height=960>
    
    <circle cx=657 cy=480 r=12.981804645679407 stroke=""black"" stroke-width=""1"" fill=""black"" />
    <circle cx=434.62 cy=480 r=18.54543520811344 stroke=""black"" stroke-width=""1.5"" fill=""none"" />
    <circle cx=585.4382591675462 cy=480 r=18.54543520811344 stroke=""black"" stroke-width=""1.5"" fill=""none"" />
    <circle cx=434.62 cy=630.8182591675462 r=18.54543520811344 stroke=""black"" stroke-width=""1.5"" fill=""none"" />
    <circle cx=283.8017408324538 cy=480 r=18.54543520811344 stroke=""black"" stroke-width=""1.5"" fill=""none"" />
    <circle cx=434.62 cy=329.1817408324538 r=18.54543520811344 stroke=""black"" stroke-width=""1.5"" fill=""none"" />
    <polygon points = ""434.62,480 439.8367381968663,461.4545647918866 429.4032618031337,461.4545647918866"" stroke=""white"" stroke-width=""3"" fill = ""white"" />
    
    </svg>
    </div>
        ",,,,,,,,,,,,stimulus,,,,,,,,,,,,,,,,,,21
96,html-keyboard-response,96,207498,0.0-96.0,317.0,arrowup,,"
    <div style="" display: block;  position: relative;"">
    
    <svg width=1440 height=960>
    <circle cx=657 cy=480 r=12.981804645679407 stroke=""black"" stroke-width=""1"" fill=""black"" />
    <circle cx=585.4382591675462 cy=480 r=18.54543520811344 stroke=""none"" stroke-width=""1.5"" fill=""none"" />
    <circle cx=434.62 cy=630.8182591675462 r=18.54543520811344 stroke=""none"" stroke-width=""1.5"" fill=""none"" />
    <circle cx=283.8017408324538 cy=480 r=18.54543520811344 stroke=""none"" stroke-width=""1.5"" fill=""none"" />
    <circle cx=434.62 cy=329.1817408324538 r=18.54543520811344 stroke=""none"" stroke-width=""1.5"" fill=""none"" />
    <polygon points = ""434.62,480 439.8367381968663,461.4545647918866 429.4032618031337,461.4545647918866"" stroke=""none"" stroke-width=""3"" fill = ""none"" />
    
    </svg>
    </div>
        ",,,,,,,,,,,,get_response,True,gTYJJZK9vObwEy4d,,,True,True,False,222.38,6.0,446.9,150.81825916754624,4.06,1.0,0.0,,,,21
97,html-keyboard-response,97,208003,0.0-97.0,,,,"
    <div style="" display: block;  position: relative;"">
    
    <svg width=1440 height=960>
    <circle cx=657 cy=480 r=12.981804645679407 stroke=""black"" stroke-width=""1"" fill=""black"" />
    <circle cx=585.4382591675462 cy=480 r=18.54543520811344 stroke=""none"" stroke-width=""1.5"" fill=""none"" />
    <circle cx=434.62 cy=630.8182591675462 r=18.54543520811344 stroke=""none"" stroke-width=""1.5"" fill=""none"" />
    <circle cx=283.8017408324538 cy=480 r=18.54543520811344 stroke=""none"" stroke-width=""1.5"" fill=""none"" />
    <circle cx=434.62 cy=329.1817408324538 r=18.54543520811344 stroke=""none"" stroke-width=""1.5"" fill=""none"" />
    <polygon points = ""434.62,480 439.8367381968663,461.4545647918866 429.4032618031337,461.4545647918866"" stroke=""none"" stroke-width=""3"" fill = ""none"" />
    
    </svg>
    </div>
        ",,,,,,,,,,,,,,,,,,,,,,,,,,,,,,21
98,html-keyboard-response,98,208160,0.0-98.0,,,,"
    <div style="" display: block;  position: relative;"">
    <svg width=1440 height=960>
    
    <circle cx=657 cy=480 r=12.981804645679407 stroke=""black"" stroke-width=""1"" fill=""black"" />
    <circle cx=434.62 cy=480 r=18.54543520811344 stroke=""black"" stroke-width=""1.5"" fill=""none"" />
    <circle cx=571.727508334133 cy=480 r=18.54543520811344 stroke=""black"" stroke-width=""1.5"" fill=""none"" />
    <circle cx=434.62 cy=617.107508334133 r=18.54543520811344 stroke=""black"" stroke-width=""1.5"" fill=""none"" />
    <circle cx=297.51249166586706 cy=480 r=18.54543520811344 stroke=""black"" stroke-width=""1.5"" fill=""none"" />
    <circle cx=434.62 cy=342.89249166586706 r=18.54543520811344 stroke=""black"" stroke-width=""1.5"" fill=""none"" />
    <polygon points = ""434.62,480 439.8367381968663,498.5454352081134 429.4032618031337,498.5454352081134"" stroke=""white"" stroke-width=""3"" fill = ""white"" />
    
    </svg>
    </div>
        ",,,,,,,,,,,,stimulus,,,,,,,,,,,,,,,,,,21
99,html-keyboard-response,99,208439,0.0-99.0,278.0,arrowdown,,"
    <div style="" display: block;  position: relative;"">
    
    <svg width=1440 height=960>
    <circle cx=657 cy=480 r=12.981804645679407 stroke=""black"" stroke-width=""1"" fill=""black"" />
    <circle cx=571.727508334133 cy=480 r=18.54543520811344 stroke=""none"" stroke-width=""1.5"" fill=""none"" />
    <circle cx=434.62 cy=617.107508334133 r=18.54543520811344 stroke=""none"" stroke-width=""1.5"" fill=""none"" />
    <circle cx=297.51249166586706 cy=480 r=18.54543520811344 stroke=""none"" stroke-width=""1.5"" fill=""none"" />
    <circle cx=434.62 cy=342.89249166586706 r=18.54543520811344 stroke=""none"" stroke-width=""1.5"" fill=""none"" />
    <polygon points = ""434.62,480 439.8367381968663,498.5454352081134 429.4032618031337,498.5454352081134"" stroke=""none"" stroke-width=""3"" fill = ""none"" />
    
    </svg>
    </div>
        ",,,,,,,,,,,,get_response,True,gTYJJZK9vObwEy4d,,,True,False,False,222.38,6.0,446.9,137.10750833413294,3.69,1.0,0.72,,,,21
100,html-keyboard-response,100,213353,0.0-100.0,4913.0,arrowdown,,"<div id=""continue""> 
<h2 class=""bolded-blue"">Great Job! You have completed half of the study!</h2>
<p>Before you start the session 2, let&#39;s measure your viewing distance again using the virtual chinrest.</p>
<p>Please press the <b>down</b> arrow key to continue. </p>
</div>",,,,,,,,,,,,,,,,,,,,,,,,,,,,,,21
101,virtual-chinrest,101,237801,0.0-101.0,24446.0,,,,,,85.6,53.98,402.0,4.7,379.77,12.860181296010165,31.25927937926656,46.06632106033491,30.710880706889935,,,,,,,,,,,,,,,,,,,21
102,html-keyboard-response,102,245970,0.0-102.0,8167.0,arrowdown,,"<div><h2 class=""bolded-blue"">Alright, let&#39;s do the peripheral vision test one more time!</h2>
<p>Please do not move around and keep your eye on the <b>black dot</b> all the time. Click <b>up</b> or <b>down</b> to indicate the opening
    of the center circle. The test is difficult for everyone, so if you are not sure, just take your best guess! </p> 
    <p>Now, press the <b>down</b> arrow key to start the task when you are ready!</p></div>",,,,,,,,,,,,,,,,,,,,,,,,,,,,,,21
103,html-keyboard-response,103,246484,0.0-103.0,,,,"
    <div style="" display: block;  position: relative;"">
    
    <svg width=1440 height=960>
    <circle cx=657 cy=480 r=10.837920924773977 stroke=""black"" stroke-width=""1"" fill=""black"" />
    <circle cx=608.447508334133 cy=480 r=15.48274417824854 stroke=""none"" stroke-width=""1.5"" fill=""none"" />
    <circle cx=471.34000000000003 cy=617.107508334133 r=15.48274417824854 stroke=""none"" stroke-width=""1.5"" fill=""none"" />
    <circle cx=334.2324916658671 cy=480 r=15.48274417824854 stroke=""none"" stroke-width=""1.5"" fill=""none"" />
    <circle cx=471.34000000000003 cy=342.89249166586706 r=15.48274417824854 stroke=""none"" stroke-width=""1.5"" fill=""none"" />
    <polygon points = ""471.34000000000003,480 475.69521852362044,495.48274417824854 466.9847814763796,495.48274417824854"" stroke=""none"" stroke-width=""3"" fill = ""none"" />
    
    </svg>
    </div>
        ",,,,,,,,,,,,,,,,,,,,,,,,,,,,,,21
104,html-keyboard-response,104,246650,0.0-104.0,,,,"
    <div style="" display: block;  position: relative;"">
    <svg width=1440 height=960>
    
    <circle cx=657 cy=480 r=10.837920924773977 stroke=""black"" stroke-width=""1"" fill=""black"" />
    <circle cx=842.66 cy=480 r=15.48274417824854 stroke=""black"" stroke-width=""1.5"" fill=""none"" />
    <circle cx=963.3389999999999 cy=480 r=15.48274417824854 stroke=""black"" stroke-width=""1.5"" fill=""none"" />
    <circle cx=842.66 cy=600.679 r=15.48274417824854 stroke=""black"" stroke-width=""1.5"" fill=""none"" />
    <circle cx=721.981 cy=480 r=15.48274417824854 stroke=""black"" stroke-width=""1.5"" fill=""none"" />
    <circle cx=842.66 cy=359.321 r=15.48274417824854 stroke=""black"" stroke-width=""1.5"" fill=""none"" />
    <polygon points = ""842.66,480 847.0152185236204,495.48274417824854 838.3047814763795,495.48274417824854"" stroke=""white"" stroke-width=""3"" fill = ""white"" />
    
    </svg>
    </div>
        ",,,,,,,,,,,,stimulus,,,,,,,,,,,,,,,,,,21
105,html-keyboard-response,105,246896,0.0-105.0,246.0,arrowdown,,"
    <div style="" display: block;  position: relative;"">
    
    <svg width=1440 height=960>
    <circle cx=657 cy=480 r=10.837920924773977 stroke=""black"" stroke-width=""1"" fill=""black"" />
    <circle cx=963.3389999999999 cy=480 r=15.48274417824854 stroke=""none"" stroke-width=""1.5"" fill=""none"" />
    <circle cx=842.66 cy=600.679 r=15.48274417824854 stroke=""none"" stroke-width=""1.5"" fill=""none"" />
    <circle cx=721.981 cy=480 r=15.48274417824854 stroke=""none"" stroke-width=""1.5"" fill=""none"" />
    <circle cx=842.66 cy=359.321 r=15.48274417824854 stroke=""none"" stroke-width=""1.5"" fill=""none"" />
    <polygon points = ""842.66,480 847.0152185236204,495.48274417824854 838.3047814763795,495.48274417824854"" stroke=""none"" stroke-width=""3"" fill = ""none"" />
    
    </svg>
    </div>
        ",,,,,,,,,,,,get_response,True,gTYJJZK9vObwEy4d,,,False,False,False,185.66,6.0,378.65333333333336,120.679,3.89,2.0,0.0,,,,21
106,html-keyboard-response,106,247404,0.0-106.0,,,,"
    <div style="" display: block;  position: relative;"">
    
    <svg width=1440 height=960>
    <circle cx=657 cy=480 r=10.837920924773977 stroke=""black"" stroke-width=""1"" fill=""black"" />
    <circle cx=963.3389999999999 cy=480 r=15.48274417824854 stroke=""none"" stroke-width=""1.5"" fill=""none"" />
    <circle cx=842.66 cy=600.679 r=15.48274417824854 stroke=""none"" stroke-width=""1.5"" fill=""none"" />
    <circle cx=721.981 cy=480 r=15.48274417824854 stroke=""none"" stroke-width=""1.5"" fill=""none"" />
