"trial_type","trial_index","time_elapsed","internal_node_id","rt","response","success","stimulus","start_time","start_time_unix","item_width_mm","item_height_mm","item_width_px","px2mm","view_dist_mm","item_width_deg","px2deg","win_width_deg","win_height_deg","trialType","correct","participantID","criticalSpacing","criticalSpacing_deg","isLeft","isUp","isEccen4","eccentricity","eccentricity_deg","viewingDistanceMean","critical_spacing","critical_spacing_deg","crowding_session","correctRate","viewDistance_1","viewDistance_2","viewDistance_3"
"pavlovia","0","3","0.0-0.0","","","","","","","","","","","","","","","","","","","","","","","","","","","","","","","","",""
"survey-text","1","7834","0.0-1.0","7818.300000000745","{""Q0"":""""}","","","","","","","","","","","","","","","","","","","","","","","","","","","","","","",""
"fullscreen","2","50875","0.0-2.0","","","true","","","","","","","","","","","","","","","","","","","","","","","","","","","","","",""
"html-keyboard-response","3","57319","0.0-3.0","6442.10000000149"," ","","<h1>Consent Form</h1>
       <p>By answering the following questions, you are participating in a study being performed by cognitive scientists in the Stanford Department of Psychology. If you have questions about this research, please contact us at stanfordpsych251@gmail.com. You must be at least 18 years old to participate. Your participation in this research is voluntary. You may decline to answer any or all of the following questions. You may decline further participation by closing the window, at any time, without adverse consequences. Your anonymity is assured; the researchers who have requested your participation will not receive any personal information about you.</p>
       <p>Press <b>any key</b> to start the experiment!</p>","","","","","","","","","","","","","","","","","","","","","","","","","","","","",""
"html-keyboard-response","4","59542","0.0-4.0","2222.300000000745"," ","","<h1>Welcome to the Visual Crowding Experiment!</h1>
       <p>This test will take <b>10-12</b> minutes to complete.</p>
       <p>Press any key to start the experiment!</p>","01/12/2021, 09:18:44","1638343124933","","","","","","","","","","","","","","","","","","","","","","","","","","",""
"html-keyboard-response","5","74529","0.0-5.0","14986.10000000149","arrowdown","","<div> 
<p> Before you begin this study, let&#39;s quickly test how far away you are sitting. You might know that vision tests at a doctor&#39;s practice often involve chinrests, the doctor basically asks you to sit away from a screen in a specific distance. We do this here with a <b>virtual chinrest</b>. </p>
<p> Please press the <b>down</b> arrow to continue.
</p>
</div>","","","","","","","","","","","","","","","","","","","","","","","","","","","","",""
"virtual-chinrest","6","166560","0.0-6.0","92027.79999999702","","","","","","85.6","53.98","434","5.07","421.43","11.598035760583373","37.420129490803546","44.89562229903241","28.059763936895255","","","","","","","","","","","","","","","","","",""
"html-keyboard-response","7","200655","0.0-7.0","34091.800000000745","arrowdown","","
	<h2 class=""bolded-blue"">Now, you will take a peripheral vision test!</h2>
<p> 
	<b>
		<font size=""140%"">1. </font>
	</b>
	<em><b>Please use both eyes for the following task.</b></em> First, you will see a screen (like the one in the image below) showing a <b>black dot</b> in the middle of the screen, with a group of circles displayed on either the <span class=""bolded-blue"">left</span> or <span class=""bolded-blue"">right</span> of the black dot for 150 ms. <span class=""bolded-blue"">Please make sure to focus on the black dot all the time!</span>

	<div>
		<img src=""example.png"" alt=""example"" style=""border: 2px solid black"" width=""600""/> 
	</div>
	
	<b>
		<font size=""140%"">2. </font>
	</b>
	Your task is to identify whether the opening of the <b class=""bolded-blue"">center circle</b> is upward by pressing UP or downward by pressing DOWN on your keyboard. The opening of the circle will only be upward or downward, not towards left or right.

	<div>
		<img src=""arrow_keys+.png"" alt=""arrows"" style=""border: 2px solid black"" width=""600""/>
	</div>
	<br>

<p>Please press the <b>down</b> arrow key to start the <span class=""bolded-blue"">practice task</span> (this first practice task will not count toward your final results).</p>
</p>
","","","","","","","","","","","","","","","","","","","","","","","","","","","","",""
"html-keyboard-response","8","201158","0.0-8.0","null","null","","
    <div style="" display: block;  position: relative;"">
    
    <svg width=1680 height=1050>
    <circle cx=777 cy=525 r=13.091344417246756 stroke=""black"" stroke-width=""1"" fill=""black"" />
    <circle cx=NaN cy=525 r=18.701920596066795 stroke=""none"" stroke-width=""1.5"" fill=""none"" />
    <circle cx=552.74 cy=NaN r=18.701920596066795 stroke=""none"" stroke-width=""1.5"" fill=""none"" />
    <circle cx=NaN cy=525 r=18.701920596066795 stroke=""none"" stroke-width=""1.5"" fill=""none"" />
    <circle cx=552.74 cy=NaN r=18.701920596066795 stroke=""none"" stroke-width=""1.5"" fill=""none"" />
    <polygon points = ""552.74,525 558.0007567540706,543.7019205960668 547.4792432459294,543.7019205960668"" stroke=""none"" stroke-width=""3"" fill = ""none"" />
    
    </svg>
    </div>
        ","","","","","","","","","","","","","","","","","","","","","","","","","","","","",""
"html-keyboard-response","9","201316","0.0-9.0","null","null","","
    <div style="" display: block;  position: relative;"">
    <svg width=1680 height=1050>
    
    <circle cx=777 cy=525 r=13.091344417246756 stroke=""black"" stroke-width=""1"" fill=""black"" />
    <circle cx=552.74 cy=525 r=18.701920596066795 stroke=""black"" stroke-width=""1.5"" fill=""none"" />
    <circle cx=698.509 cy=525 r=18.701920596066795 stroke=""black"" stroke-width=""1.5"" fill=""none"" />
    <circle cx=552.74 cy=670.769 r=18.701920596066795 stroke=""black"" stroke-width=""1.5"" fill=""none"" />
    <circle cx=406.971 cy=525 r=18.701920596066795 stroke=""black"" stroke-width=""1.5"" fill=""none"" />
    <circle cx=552.74 cy=379.231 r=18.701920596066795 stroke=""black"" stroke-width=""1.5"" fill=""none"" />
    <polygon points = ""552.74,525 558.0007567540706,506.29807940393323 547.4792432459294,506.29807940393323"" stroke=""white"" stroke-width=""3"" fill = ""white"" />
    
    </svg>
    </div>
        ","","","","","","","","","","","","stimulus","","","","","","","","","","","","","","","","",""
"html-keyboard-response","10","202644","0.0-10.0","1326.4000000022352","arrowup","","
    <div style="" display: block;  position: relative;"">
    
    <svg width=1680 height=1050>
    <circle cx=777 cy=525 r=13.091344417246756 stroke=""black"" stroke-width=""1"" fill=""black"" />
    <circle cx=698.509 cy=525 r=18.701920596066795 stroke=""none"" stroke-width=""1.5"" fill=""none"" />
    <circle cx=552.74 cy=670.769 r=18.701920596066795 stroke=""none"" stroke-width=""1.5"" fill=""none"" />
    <circle cx=406.971 cy=525 r=18.701920596066795 stroke=""none"" stroke-width=""1.5"" fill=""none"" />
    <circle cx=552.74 cy=379.231 r=18.701920596066795 stroke=""none"" stroke-width=""1.5"" fill=""none"" />
    <polygon points = ""552.74,525 558.0007567540706,506.29807940393323 547.4792432459294,506.29807940393323"" stroke=""none"" stroke-width=""3"" fill = ""none"" />
    
    </svg>
    </div>
        ","","","","","","","","","","","","practice_get_response","true","oMWDYncip3E1svzk","145.769","3.89","true","true","false","224.26","6","424.004","","","","","","",""
"html-keyboard-response","11","203148","0.0-11.0","null","null","","
    <div style="" display: block;  position: relative;"">
    
    <svg width=1680 height=1050>
    <circle cx=777 cy=525 r=13.091344417246756 stroke=""black"" stroke-width=""1"" fill=""black"" />
    <circle cx=698.509 cy=525 r=18.701920596066795 stroke=""none"" stroke-width=""1.5"" fill=""none"" />
    <circle cx=552.74 cy=670.769 r=18.701920596066795 stroke=""none"" stroke-width=""1.5"" fill=""none"" />
    <circle cx=406.971 cy=525 r=18.701920596066795 stroke=""none"" stroke-width=""1.5"" fill=""none"" />
    <circle cx=552.74 cy=379.231 r=18.701920596066795 stroke=""none"" stroke-width=""1.5"" fill=""none"" />
    <polygon points = ""552.74,525 558.0007567540706,506.29807940393323 547.4792432459294,506.29807940393323"" stroke=""none"" stroke-width=""3"" fill = ""none"" />
    
    </svg>
    </div>
        ","","","","","","","","","","","","","","","","","","","","","","","","","","","","",""
"html-keyboard-response","12","203303","0.0-12.0","null","null","","
    <div style="" display: block;  position: relative;"">
    <svg width=1680 height=1050>
    
    <circle cx=777 cy=525 r=13.091344417246756 stroke=""black"" stroke-width=""1"" fill=""black"" />
    <circle cx=1001.26 cy=525 r=18.701920596066795 stroke=""black"" stroke-width=""1.5"" fill=""none"" />
    <circle cx=1147.029 cy=525 r=18.701920596066795 stroke=""black"" stroke-width=""1.5"" fill=""none"" />
    <circle cx=1001.26 cy=670.769 r=18.701920596066795 stroke=""black"" stroke-width=""1.5"" fill=""none"" />
    <circle cx=855.491 cy=525 r=18.701920596066795 stroke=""black"" stroke-width=""1.5"" fill=""none"" />
    <circle cx=1001.26 cy=379.231 r=18.701920596066795 stroke=""black"" stroke-width=""1.5"" fill=""none"" />
    <polygon points = ""1001.26,525 1006.5207567540706,506.29807940393323 995.9992432459294,506.29807940393323"" stroke=""white"" stroke-width=""3"" fill = ""white"" />
    
    </svg>
    </div>
        ","","","","","","","","","","","","stimulus","","","","","","","","","","","","","","","","",""
"html-keyboard-response","13","204158","0.0-13.0","853.3999999985099","arrowup","","
    <div style="" display: block;  position: relative;"">
    
    <svg width=1680 height=1050>
    <circle cx=777 cy=525 r=13.091344417246756 stroke=""black"" stroke-width=""1"" fill=""black"" />
    <circle cx=1147.029 cy=525 r=18.701920596066795 stroke=""none"" stroke-width=""1.5"" fill=""none"" />
    <circle cx=1001.26 cy=670.769 r=18.701920596066795 stroke=""none"" stroke-width=""1.5"" fill=""none"" />
    <circle cx=855.491 cy=525 r=18.701920596066795 stroke=""none"" stroke-width=""1.5"" fill=""none"" />
    <circle cx=1001.26 cy=379.231 r=18.701920596066795 stroke=""none"" stroke-width=""1.5"" fill=""none"" />
    <polygon points = ""1001.26,525 1006.5207567540706,506.29807940393323 995.9992432459294,506.29807940393323"" stroke=""none"" stroke-width=""3"" fill = ""none"" />
    
    </svg>
    </div>
        ","","","","","","","","","","","","practice_get_response","true","oMWDYncip3E1svzk","145.769","3.89","false","true","false","224.26","6","424.004","","","","","","",""
"html-keyboard-response","14","204660","0.0-14.0","null","null","","
    <div style="" display: block;  position: relative;"">
    
    <svg width=1680 height=1050>
    <circle cx=777 cy=525 r=13.091344417246756 stroke=""black"" stroke-width=""1"" fill=""black"" />
    <circle cx=1147.029 cy=525 r=18.701920596066795 stroke=""none"" stroke-width=""1.5"" fill=""none"" />
    <circle cx=1001.26 cy=670.769 r=18.701920596066795 stroke=""none"" stroke-width=""1.5"" fill=""none"" />
    <circle cx=855.491 cy=525 r=18.701920596066795 stroke=""none"" stroke-width=""1.5"" fill=""none"" />
    <circle cx=1001.26 cy=379.231 r=18.701920596066795 stroke=""none"" stroke-width=""1.5"" fill=""none"" />
    <polygon points = ""1001.26,525 1006.5207567540706,506.29807940393323 995.9992432459294,506.29807940393323"" stroke=""none"" stroke-width=""3"" fill = ""none"" />
    
    </svg>
    </div>
        ","","","","","","","","","","","","","","","","","","","","","","","","","","","","",""
"html-keyboard-response","15","204815","0.0-15.0","null","null","","
    <div style="" display: block;  position: relative;"">
    <svg width=1680 height=1050>
    
    <circle cx=777 cy=525 r=13.091344417246756 stroke=""black"" stroke-width=""1"" fill=""black"" />
    <circle cx=552.74 cy=525 r=18.701920596066795 stroke=""black"" stroke-width=""1.5"" fill=""none"" />
    <circle cx=698.509 cy=525 r=18.701920596066795 stroke=""black"" stroke-width=""1.5"" fill=""none"" />
    <circle cx=552.74 cy=670.769 r=18.701920596066795 stroke=""black"" stroke-width=""1.5"" fill=""none"" />
    <circle cx=406.971 cy=525 r=18.701920596066795 stroke=""black"" stroke-width=""1.5"" fill=""none"" />
    <circle cx=552.74 cy=379.231 r=18.701920596066795 stroke=""black"" stroke-width=""1.5"" fill=""none"" />
    <polygon points = ""552.74,525 558.0007567540706,506.29807940393323 547.4792432459294,506.29807940393323"" stroke=""white"" stroke-width=""3"" fill = ""white"" />
    
    </svg>
    </div>
        ","","","","","","","","","","","","stimulus","","","","","","","","","","","","","","","","",""
"html-keyboard-response","16","205261","0.0-16.0","445","arrowup","","
    <div style="" display: block;  position: relative;"">
    
    <svg width=1680 height=1050>
    <circle cx=777 cy=525 r=13.091344417246756 stroke=""black"" stroke-width=""1"" fill=""black"" />
    <circle cx=698.509 cy=525 r=18.701920596066795 stroke=""none"" stroke-width=""1.5"" fill=""none"" />
    <circle cx=552.74 cy=670.769 r=18.701920596066795 stroke=""none"" stroke-width=""1.5"" fill=""none"" />
    <circle cx=406.971 cy=525 r=18.701920596066795 stroke=""none"" stroke-width=""1.5"" fill=""none"" />
    <circle cx=552.74 cy=379.231 r=18.701920596066795 stroke=""none"" stroke-width=""1.5"" fill=""none"" />
    <polygon points = ""552.74,525 558.0007567540706,506.29807940393323 547.4792432459294,506.29807940393323"" stroke=""none"" stroke-width=""3"" fill = ""none"" />
    
    </svg>
    </div>
        ","","","","","","","","","","","","practice_get_response","true","oMWDYncip3E1svzk","145.769","3.89","true","true","false","224.26","6","424.004","","","","","","",""
"html-keyboard-response","17","205764","0.0-17.0","null","null","","
    <div style="" display: block;  position: relative;"">
    
    <svg width=1680 height=1050>
    <circle cx=777 cy=525 r=13.091344417246756 stroke=""black"" stroke-width=""1"" fill=""black"" />
    <circle cx=698.509 cy=525 r=18.701920596066795 stroke=""none"" stroke-width=""1.5"" fill=""none"" />
    <circle cx=552.74 cy=670.769 r=18.701920596066795 stroke=""none"" stroke-width=""1.5"" fill=""none"" />
    <circle cx=406.971 cy=525 r=18.701920596066795 stroke=""none"" stroke-width=""1.5"" fill=""none"" />
    <circle cx=552.74 cy=379.231 r=18.701920596066795 stroke=""none"" stroke-width=""1.5"" fill=""none"" />
    <polygon points = ""552.74,525 558.0007567540706,506.29807940393323 547.4792432459294,506.29807940393323"" stroke=""none"" stroke-width=""3"" fill = ""none"" />
    
    </svg>
    </div>
        ","","","","","","","","","","","","","","","","","","","","","","","","","","","","",""
"html-keyboard-response","18","205919","0.0-18.0","null","null","","
    <div style="" display: block;  position: relative;"">
    <svg width=1680 height=1050>
    
    <circle cx=777 cy=525 r=13.091344417246756 stroke=""black"" stroke-width=""1"" fill=""black"" />
    <circle cx=552.74 cy=525 r=18.701920596066795 stroke=""black"" stroke-width=""1.5"" fill=""none"" />
    <circle cx=685.2572727272727 cy=525 r=18.701920596066795 stroke=""black"" stroke-width=""1.5"" fill=""none"" />
    <circle cx=552.74 cy=657.5172727272727 r=18.701920596066795 stroke=""black"" stroke-width=""1.5"" fill=""none"" />
    <circle cx=420.2227272727273 cy=525 r=18.701920596066795 stroke=""black"" stroke-width=""1.5"" fill=""none"" />
    <circle cx=552.74 cy=392.4827272727273 r=18.701920596066795 stroke=""black"" stroke-width=""1.5"" fill=""none"" />
    <polygon points = ""552.74,525 558.0007567540706,543.7019205960668 547.4792432459294,543.7019205960668"" stroke=""white"" stroke-width=""3"" fill = ""white"" />
    
    </svg>
    </div>
        ","","","","","","","","","","","","stimulus","","","","","","","","","","","","","","","","",""
"html-keyboard-response","19","206327","0.0-19.0","407.79999999701977","arrowdown","","
    <div style="" display: block;  position: relative;"">
    
    <svg width=1680 height=1050>
    <circle cx=777 cy=525 r=13.091344417246756 stroke=""black"" stroke-width=""1"" fill=""black"" />
    <circle cx=685.2572727272727 cy=525 r=18.701920596066795 stroke=""none"" stroke-width=""1.5"" fill=""none"" />
    <circle cx=552.74 cy=657.5172727272727 r=18.701920596066795 stroke=""none"" stroke-width=""1.5"" fill=""none"" />
    <circle cx=420.2227272727273 cy=525 r=18.701920596066795 stroke=""none"" stroke-width=""1.5"" fill=""none"" />
    <circle cx=552.74 cy=392.4827272727273 r=18.701920596066795 stroke=""none"" stroke-width=""1.5"" fill=""none"" />
    <polygon points = ""552.74,525 558.0007567540706,543.7019205960668 547.4792432459294,543.7019205960668"" stroke=""none"" stroke-width=""3"" fill = ""none"" />
    
    </svg>
    </div>
        ","","","","","","","","","","","","practice_get_response","true","oMWDYncip3E1svzk","132.5172727272727","3.54","true","false","false","224.26","6","424.004","","","","","","",""
"html-keyboard-response","20","206831","0.0-20.0","null","null","","
    <div style="" display: block;  position: relative;"">
    
    <svg width=1680 height=1050>
    <circle cx=777 cy=525 r=13.091344417246756 stroke=""black"" stroke-width=""1"" fill=""black"" />
    <circle cx=685.2572727272727 cy=525 r=18.701920596066795 stroke=""none"" stroke-width=""1.5"" fill=""none"" />
    <circle cx=552.74 cy=657.5172727272727 r=18.701920596066795 stroke=""none"" stroke-width=""1.5"" fill=""none"" />
    <circle cx=420.2227272727273 cy=525 r=18.701920596066795 stroke=""none"" stroke-width=""1.5"" fill=""none"" />
    <circle cx=552.74 cy=392.4827272727273 r=18.701920596066795 stroke=""none"" stroke-width=""1.5"" fill=""none"" />
    <polygon points = ""552.74,525 558.0007567540706,543.7019205960668 547.4792432459294,543.7019205960668"" stroke=""none"" stroke-width=""3"" fill = ""none"" />
    
    </svg>
    </div>
        ","","","","","","","","","","","","","","","","","","","","","","","","","","","","",""
"html-keyboard-response","21","206985","0.0-21.0","null","null","","
    <div style="" display: block;  position: relative;"">
    <svg width=1680 height=1050>
    
    <circle cx=777 cy=525 r=13.091344417246756 stroke=""black"" stroke-width=""1"" fill=""black"" />
    <circle cx=1001.26 cy=525 r=18.701920596066795 stroke=""black"" stroke-width=""1.5"" fill=""none"" />
    <circle cx=1121.7302479338844 cy=525 r=18.701920596066795 stroke=""black"" stroke-width=""1.5"" fill=""none"" />
    <circle cx=1001.26 cy=645.4702479338843 r=18.701920596066795 stroke=""black"" stroke-width=""1.5"" fill=""none"" />
    <circle cx=880.7897520661157 cy=525 r=18.701920596066795 stroke=""black"" stroke-width=""1.5"" fill=""none"" />
    <circle cx=1001.26 cy=404.52975206611575 r=18.701920596066795 stroke=""black"" stroke-width=""1.5"" fill=""none"" />
    <polygon points = ""1001.26,525 1006.5207567540706,506.29807940393323 995.9992432459294,506.29807940393323"" stroke=""white"" stroke-width=""3"" fill = ""white"" />
    
    </svg>
    </div>
        ","","","","","","","","","","","","stimulus","","","","","","","","","","","","","","","","",""
"html-keyboard-response","22","207463","0.0-22.0","476.9000000022352","arrowup","","
    <div style="" display: block;  position: relative;"">
    
    <svg width=1680 height=1050>
    <circle cx=777 cy=525 r=13.091344417246756 stroke=""black"" stroke-width=""1"" fill=""black"" />
    <circle cx=1121.7302479338844 cy=525 r=18.701920596066795 stroke=""none"" stroke-width=""1.5"" fill=""none"" />
    <circle cx=1001.26 cy=645.4702479338843 r=18.701920596066795 stroke=""none"" stroke-width=""1.5"" fill=""none"" />
    <circle cx=880.7897520661157 cy=525 r=18.701920596066795 stroke=""none"" stroke-width=""1.5"" fill=""none"" />
    <circle cx=1001.26 cy=404.52975206611575 r=18.701920596066795 stroke=""none"" stroke-width=""1.5"" fill=""none"" />
    <polygon points = ""1001.26,525 1006.5207567540706,506.29807940393323 995.9992432459294,506.29807940393323"" stroke=""none"" stroke-width=""3"" fill = ""none"" />
    
    </svg>
    </div>
        ","","","","","","","","","","","","practice_get_response","true","oMWDYncip3E1svzk","120.47024793388427","3.21","false","true","false","224.26","6","424.004","","","","","","",""
"html-keyboard-response","23","213063","0.0-23.0","5598.89999999851","arrowdown","","<div> 
<h2 class=""bolded-blue"">Well done!</h2>
<p> Now that you have the hang of it, we&#39;ll start the study. This session has 25 trials and takes about 2 minute to complete. </p> 
<p>If you are ready for the real deal, please press the <b>down</b> arrow to continue.
</p>
</div>","","","","","","","","","","","","","","","","","","","","","","","","","","","","",""
"html-keyboard-response","24","221782","0.0-24.0","8717.60000000149","arrowdown","","<div id=""continue""> 
<p>Again, please keep the <b>full screen</b> mode for the best experience.</p>
<p>Please do not move around and keep your eye on the black dot. Click <b>up</b> or <b>down</b> key on your keyboard to indicate the opening of the center circle. Make your best guess!</p>
<p>Please press the <b>down</b> arrow key to start the session 1. </p>
</div>","","","","","","","","","","","","","","","","","","","","","","","","","","","","",""
"html-keyboard-response","25","222287","0.0-25.0","null","null","","
    <div style="" display: block;  position: relative;"">
    
    <svg width=1680 height=1050>
    <circle cx=777 cy=525 r=13.091344417246756 stroke=""black"" stroke-width=""1"" fill=""black"" />
    <circle cx=673.2102479338843 cy=525 r=18.701920596066795 stroke=""none"" stroke-width=""1.5"" fill=""none"" />
    <circle cx=552.74 cy=645.4702479338843 r=18.701920596066795 stroke=""none"" stroke-width=""1.5"" fill=""none"" />
    <circle cx=432.26975206611576 cy=525 r=18.701920596066795 stroke=""none"" stroke-width=""1.5"" fill=""none"" />
    <circle cx=552.74 cy=404.52975206611575 r=18.701920596066795 stroke=""none"" stroke-width=""1.5"" fill=""none"" />
    <polygon points = ""552.74,525 558.0007567540706,543.7019205960668 547.4792432459294,543.7019205960668"" stroke=""none"" stroke-width=""3"" fill = ""none"" />
    
    </svg>
    </div>
        ","","","","","","","","","","","","","","","","","","","","","","","","","","","","",""
"html-keyboard-response","26","222442","0.0-26.0","null","null","","
    <div style="" display: block;  position: relative;"">
    <svg width=1680 height=1050>
    
    <circle cx=777 cy=525 r=13.091344417246756 stroke=""black"" stroke-width=""1"" fill=""black"" />
    <circle cx=552.74 cy=525 r=18.701920596066795 stroke=""black"" stroke-width=""1.5"" fill=""none"" />
    <circle cx=698.509 cy=525 r=18.701920596066795 stroke=""black"" stroke-width=""1.5"" fill=""none"" />
    <circle cx=552.74 cy=670.769 r=18.701920596066795 stroke=""black"" stroke-width=""1.5"" fill=""none"" />
    <circle cx=406.971 cy=525 r=18.701920596066795 stroke=""black"" stroke-width=""1.5"" fill=""none"" />
    <circle cx=552.74 cy=379.231 r=18.701920596066795 stroke=""black"" stroke-width=""1.5"" fill=""none"" />
    <polygon points = ""552.74,525 558.0007567540706,543.7019205960668 547.4792432459294,543.7019205960668"" stroke=""white"" stroke-width=""3"" fill = ""white"" />
    
    </svg>
    </div>
        ","","","","","","","","","","","","stimulus","","","","","","","","","","","","","","","","",""
"html-keyboard-response","27","222851","0.0-27.0","408.6000000014901","arrowdown","","
    <div style="" display: block;  position: relative;"">
    
    <svg width=1680 height=1050>
    <circle cx=777 cy=525 r=13.091344417246756 stroke=""black"" stroke-width=""1"" fill=""black"" />
    <circle cx=698.509 cy=525 r=18.701920596066795 stroke=""none"" stroke-width=""1.5"" fill=""none"" />
    <circle cx=552.74 cy=670.769 r=18.701920596066795 stroke=""none"" stroke-width=""1.5"" fill=""none"" />
    <circle cx=406.971 cy=525 r=18.701920596066795 stroke=""none"" stroke-width=""1.5"" fill=""none"" />
    <circle cx=552.74 cy=379.231 r=18.701920596066795 stroke=""none"" stroke-width=""1.5"" fill=""none"" />
    <polygon points = ""552.74,525 558.0007567540706,543.7019205960668 547.4792432459294,543.7019205960668"" stroke=""none"" stroke-width=""3"" fill = ""none"" />
    
    </svg>
    </div>
        ","","","","","","","","","","","","get_response","true","oMWDYncip3E1svzk","","","true","false","false","224.26","6","424.004","145.769","3.89","1","0","","",""
"html-keyboard-response","28","223357","0.0-28.0","null","null","","
    <div style="" display: block;  position: relative;"">
    
    <svg width=1680 height=1050>
    <circle cx=777 cy=525 r=13.091344417246756 stroke=""black"" stroke-width=""1"" fill=""black"" />
    <circle cx=698.509 cy=525 r=18.701920596066795 stroke=""none"" stroke-width=""1.5"" fill=""none"" />
    <circle cx=552.74 cy=670.769 r=18.701920596066795 stroke=""none"" stroke-width=""1.5"" fill=""none"" />
    <circle cx=406.971 cy=525 r=18.701920596066795 stroke=""none"" stroke-width=""1.5"" fill=""none"" />
    <circle cx=552.74 cy=379.231 r=18.701920596066795 stroke=""none"" stroke-width=""1.5"" fill=""none"" />
    <polygon points = ""552.74,525 558.0007567540706,543.7019205960668 547.4792432459294,543.7019205960668"" stroke=""none"" stroke-width=""3"" fill = ""none"" />
    
    </svg>
    </div>
        ","","","","","","","","","","","","","","","","","","","","","","","","","","","","",""
"html-keyboard-response","29","223511","0.0-29.0","null","null","","
    <div style="" display: block;  position: relative;"">
    <svg width=1680 height=1050>
    
    <circle cx=777 cy=525 r=13.091344417246756 stroke=""black"" stroke-width=""1"" fill=""black"" />
    <circle cx=1001.26 cy=525 r=18.701920596066795 stroke=""black"" stroke-width=""1.5"" fill=""none"" />
    <circle cx=1147.029 cy=525 r=18.701920596066795 stroke=""black"" stroke-width=""1.5"" fill=""none"" />
    <circle cx=1001.26 cy=670.769 r=18.701920596066795 stroke=""black"" stroke-width=""1.5"" fill=""none"" />
    <circle cx=855.491 cy=525 r=18.701920596066795 stroke=""black"" stroke-width=""1.5"" fill=""none"" />
    <circle cx=1001.26 cy=379.231 r=18.701920596066795 stroke=""black"" stroke-width=""1.5"" fill=""none"" />
    <polygon points = ""1001.26,525 1006.5207567540706,543.7019205960668 995.9992432459294,543.7019205960668"" stroke=""white"" stroke-width=""3"" fill = ""white"" />
    
    </svg>
    </div>
        ","","","","","","","","","","","","stimulus","","","","","","","","","","","","","","","","",""
"html-keyboard-response","30","223891","0.0-30.0","378.6000000014901","arrowdown","","
    <div style="" display: block;  position: relative;"">
    
    <svg width=1680 height=1050>
    <circle cx=777 cy=525 r=13.091344417246756 stroke=""black"" stroke-width=""1"" fill=""black"" />
    <circle cx=1147.029 cy=525 r=18.701920596066795 stroke=""none"" stroke-width=""1.5"" fill=""none"" />
    <circle cx=1001.26 cy=670.769 r=18.701920596066795 stroke=""none"" stroke-width=""1.5"" fill=""none"" />
    <circle cx=855.491 cy=525 r=18.701920596066795 stroke=""none"" stroke-width=""1.5"" fill=""none"" />
    <circle cx=1001.26 cy=379.231 r=18.701920596066795 stroke=""none"" stroke-width=""1.5"" fill=""none"" />
    <polygon points = ""1001.26,525 1006.5207567540706,543.7019205960668 995.9992432459294,543.7019205960668"" stroke=""none"" stroke-width=""3"" fill = ""none"" />
    
    </svg>
    </div>
        ","","","","","","","","","","","","get_response","true","oMWDYncip3E1svzk","","","false","false","false","224.26","6","424.004","145.769","3.89","1","0","","",""
"html-keyboard-response","31","224394","0.0-31.0","null","null","","
    <div style="" display: block;  position: relative;"">
    
    <svg width=1680 height=1050>
    <circle cx=777 cy=525 r=13.091344417246756 stroke=""black"" stroke-width=""1"" fill=""black"" />
    <circle cx=1147.029 cy=525 r=18.701920596066795 stroke=""none"" stroke-width=""1.5"" fill=""none"" />
    <circle cx=1001.26 cy=670.769 r=18.701920596066795 stroke=""none"" stroke-width=""1.5"" fill=""none"" />
    <circle cx=855.491 cy=525 r=18.701920596066795 stroke=""none"" stroke-width=""1.5"" fill=""none"" />
    <circle cx=1001.26 cy=379.231 r=18.701920596066795 stroke=""none"" stroke-width=""1.5"" fill=""none"" />
    <polygon points = ""1001.26,525 1006.5207567540706,543.7019205960668 995.9992432459294,543.7019205960668"" stroke=""none"" stroke-width=""3"" fill = ""none"" />
    
    </svg>
    </div>
        ","","","","","","","","","","","","","","","","","","","","","","","","","","","","",""
"html-keyboard-response","32","224548","0.0-32.0","null","null","","
    <div style="" display: block;  position: relative;"">
    <svg width=1680 height=1050>
    
    <circle cx=777 cy=525 r=13.091344417246756 stroke=""black"" stroke-width=""1"" fill=""black"" />
    <circle cx=552.74 cy=525 r=18.701920596066795 stroke=""black"" stroke-width=""1.5"" fill=""none"" />
    <circle cx=698.509 cy=525 r=18.701920596066795 stroke=""black"" stroke-width=""1.5"" fill=""none"" />
    <circle cx=552.74 cy=670.769 r=18.701920596066795 stroke=""black"" stroke-width=""1.5"" fill=""none"" />
    <circle cx=406.971 cy=525 r=18.701920596066795 stroke=""black"" stroke-width=""1.5"" fill=""none"" />
    <circle cx=552.74 cy=379.231 r=18.701920596066795 stroke=""black"" stroke-width=""1.5"" fill=""none"" />
    <polygon points = ""552.74,525 558.0007567540706,506.29807940393323 547.4792432459294,506.29807940393323"" stroke=""white"" stroke-width=""3"" fill = ""white"" />
    
    </svg>
    </div>
        ","","","","","","","","","","","","stimulus","","","","","","","","","","","","","","","","",""
"html-keyboard-response","33","224968","0.0-33.0","418.69999999925494","arrowup","","
    <div style="" display: block;  position: relative;"">
    
    <svg width=1680 height=1050>
    <circle cx=777 cy=525 r=13.091344417246756 stroke=""black"" stroke-width=""1"" fill=""black"" />
    <circle cx=698.509 cy=525 r=18.701920596066795 stroke=""none"" stroke-width=""1.5"" fill=""none"" />
    <circle cx=552.74 cy=670.769 r=18.701920596066795 stroke=""none"" stroke-width=""1.5"" fill=""none"" />
    <circle cx=406.971 cy=525 r=18.701920596066795 stroke=""none"" stroke-width=""1.5"" fill=""none"" />
    <circle cx=552.74 cy=379.231 r=18.701920596066795 stroke=""none"" stroke-width=""1.5"" fill=""none"" />
    <polygon points = ""552.74,525 558.0007567540706,506.29807940393323 547.4792432459294,506.29807940393323"" stroke=""none"" stroke-width=""3"" fill = ""none"" />
    
    </svg>
    </div>
        ","","","","","","","","","","","","get_response","true","oMWDYncip3E1svzk","","","true","true","false","224.26","6","424.004","145.769","3.89","1","0","","",""
"html-keyboard-response","34","225471","0.0-34.0","null","null","","
    <div style="" display: block;  position: relative;"">
    
    <svg width=1680 height=1050>
    <circle cx=777 cy=525 r=13.091344417246756 stroke=""black"" stroke-width=""1"" fill=""black"" />
    <circle cx=698.509 cy=525 r=18.701920596066795 stroke=""none"" stroke-width=""1.5"" fill=""none"" />
    <circle cx=552.74 cy=670.769 r=18.701920596066795 stroke=""none"" stroke-width=""1.5"" fill=""none"" />
    <circle cx=406.971 cy=525 r=18.701920596066795 stroke=""none"" stroke-width=""1.5"" fill=""none"" />
    <circle cx=552.74 cy=379.231 r=18.701920596066795 stroke=""none"" stroke-width=""1.5"" fill=""none"" />
    <polygon points = ""552.74,525 558.0007567540706,506.29807940393323 547.4792432459294,506.29807940393323"" stroke=""none"" stroke-width=""3"" fill = ""none"" />
    
    </svg>
    </div>
        ","","","","","","","","","","","","","","","","","","","","","","","","","","","","",""
"html-keyboard-response","35","225626","0.0-35.0","null","null","","
    <div style="" display: block;  position: relative;"">
    <svg width=1680 height=1050>
    
    <circle cx=777 cy=525 r=13.091344417246756 stroke=""black"" stroke-width=""1"" fill=""black"" />
    <circle cx=1001.26 cy=525 r=18.701920596066795 stroke=""black"" stroke-width=""1.5"" fill=""none"" />
    <circle cx=1133.7772727272727 cy=525 r=18.701920596066795 stroke=""black"" stroke-width=""1.5"" fill=""none"" />
    <circle cx=1001.26 cy=657.5172727272727 r=18.701920596066795 stroke=""black"" stroke-width=""1.5"" fill=""none"" />
    <circle cx=868.7427272727273 cy=525 r=18.701920596066795 stroke=""black"" stroke-width=""1.5"" fill=""none"" />
    <circle cx=1001.26 cy=392.4827272727273 r=18.701920596066795 stroke=""black"" stroke-width=""1.5"" fill=""none"" />
    <polygon points = ""1001.26,525 1006.5207567540706,543.7019205960668 995.9992432459294,543.7019205960668"" stroke=""white"" stroke-width=""3"" fill = ""white"" />
    
    </svg>
    </div>
        ","","","","","","","","","","","","stimulus","","","","","","","","","","","","","","","","",""
"html-keyboard-response","36","225892","0.0-36.0","265.19999999925494","arrowdown","","
    <div style="" display: block;  position: relative;"">
    
    <svg width=1680 height=1050>
    <circle cx=777 cy=525 r=13.091344417246756 stroke=""black"" stroke-width=""1"" fill=""black"" />
    <circle cx=1133.7772727272727 cy=525 r=18.701920596066795 stroke=""none"" stroke-width=""1.5"" fill=""none"" />
    <circle cx=1001.26 cy=657.5172727272727 r=18.701920596066795 stroke=""none"" stroke-width=""1.5"" fill=""none"" />
    <circle cx=868.7427272727273 cy=525 r=18.701920596066795 stroke=""none"" stroke-width=""1.5"" fill=""none"" />
    <circle cx=1001.26 cy=392.4827272727273 r=18.701920596066795 stroke=""none"" stroke-width=""1.5"" fill=""none"" />
    <polygon points = ""1001.26,525 1006.5207567540706,543.7019205960668 995.9992432459294,543.7019205960668"" stroke=""none"" stroke-width=""3"" fill = ""none"" />
    
    </svg>
    </div>
        ","","","","","","","","","","","","get_response","true","oMWDYncip3E1svzk","","","false","false","false","224.26","6","424.004","132.5172727272727","3.54","1","0","","",""
"html-keyboard-response","37","226397","0.0-37.0","null","null","","
    <div style="" display: block;  position: relative;"">
    
    <svg width=1680 height=1050>
    <circle cx=777 cy=525 r=13.091344417246756 stroke=""black"" stroke-width=""1"" fill=""black"" />
    <circle cx=1133.7772727272727 cy=525 r=18.701920596066795 stroke=""none"" stroke-width=""1.5"" fill=""none"" />
    <circle cx=1001.26 cy=657.5172727272727 r=18.701920596066795 stroke=""none"" stroke-width=""1.5"" fill=""none"" />
    <circle cx=868.7427272727273 cy=525 r=18.701920596066795 stroke=""none"" stroke-width=""1.5"" fill=""none"" />
    <circle cx=1001.26 cy=392.4827272727273 r=18.701920596066795 stroke=""none"" stroke-width=""1.5"" fill=""none"" />
    <polygon points = ""1001.26,525 1006.5207567540706,543.7019205960668 995.9992432459294,543.7019205960668"" stroke=""none"" stroke-width=""3"" fill = ""none"" />
    
    </svg>
    </div>
        ","","","","","","","","","","","","","","","","","","","","","","","","","","","","",""
"html-keyboard-response","38","226551","0.0-38.0","null","null","","
    <div style="" display: block;  position: relative;"">
    <svg width=1680 height=1050>
    
    <circle cx=777 cy=525 r=13.091344417246756 stroke=""black"" stroke-width=""1"" fill=""black"" />
    <circle cx=552.74 cy=525 r=18.701920596066795 stroke=""black"" stroke-width=""1.5"" fill=""none"" />
    <circle cx=673.2102479338843 cy=525 r=18.701920596066795 stroke=""black"" stroke-width=""1.5"" fill=""none"" />
    <circle cx=552.74 cy=645.4702479338843 r=18.701920596066795 stroke=""black"" stroke-width=""1.5"" fill=""none"" />
    <circle cx=432.26975206611576 cy=525 r=18.701920596066795 stroke=""black"" stroke-width=""1.5"" fill=""none"" />
    <circle cx=552.74 cy=404.52975206611575 r=18.701920596066795 stroke=""black"" stroke-width=""1.5"" fill=""none"" />
    <polygon points = ""552.74,525 558.0007567540706,506.29807940393323 547.4792432459294,506.29807940393323"" stroke=""white"" stroke-width=""3"" fill = ""white"" />
    
    </svg>
    </div>
        ","","","","","","","","","","","","stimulus","","","","","","","","","","","","","","","","",""
"html-keyboard-response","39","226856","0.0-39.0","302.5","arrowup","","
    <div style="" display: block;  position: relative;"">
    
    <svg width=1680 height=1050>
    <circle cx=777 cy=525 r=13.091344417246756 stroke=""black"" stroke-width=""1"" fill=""black"" />
    <circle cx=673.2102479338843 cy=525 r=18.701920596066795 stroke=""none"" stroke-width=""1.5"" fill=""none"" />
    <circle cx=552.74 cy=645.4702479338843 r=18.701920596066795 stroke=""none"" stroke-width=""1.5"" fill=""none"" />
    <circle cx=432.26975206611576 cy=525 r=18.701920596066795 stroke=""none"" stroke-width=""1.5"" fill=""none"" />
    <circle cx=552.74 cy=404.52975206611575 r=18.701920596066795 stroke=""none"" stroke-width=""1.5"" fill=""none"" />
    <polygon points = ""552.74,525 558.0007567540706,506.29807940393323 547.4792432459294,506.29807940393323"" stroke=""none"" stroke-width=""3"" fill = ""none"" />
    
    </svg>
    </div>
        ","","","","","","","","","","","","get_response","true","oMWDYncip3E1svzk","","","true","true","false","224.26","6","424.004","120.47024793388427","3.21","1","0","","",""
"html-keyboard-response","40","227359","0.0-40.0","null","null","","
    <div style="" display: block;  position: relative;"">
    
    <svg width=1680 height=1050>
    <circle cx=777 cy=525 r=13.091344417246756 stroke=""black"" stroke-width=""1"" fill=""black"" />
    <circle cx=673.2102479338843 cy=525 r=18.701920596066795 stroke=""none"" stroke-width=""1.5"" fill=""none"" />
    <circle cx=552.74 cy=645.4702479338843 r=18.701920596066795 stroke=""none"" stroke-width=""1.5"" fill=""none"" />
    <circle cx=432.26975206611576 cy=525 r=18.701920596066795 stroke=""none"" stroke-width=""1.5"" fill=""none"" />
    <circle cx=552.74 cy=404.52975206611575 r=18.701920596066795 stroke=""none"" stroke-width=""1.5"" fill=""none"" />
    <polygon points = ""552.74,525 558.0007567540706,506.29807940393323 547.4792432459294,506.29807940393323"" stroke=""none"" stroke-width=""3"" fill = ""none"" />
    
    </svg>
    </div>
        ","","","","","","","","","","","","","","","","","","","","","","","","","","","","",""
"html-keyboard-response","41","227514","0.0-41.0","null","null","","
    <div style="" display: block;  position: relative;"">
    <svg width=1680 height=1050>
    
    <circle cx=777 cy=525 r=13.091344417246756 stroke=""black"" stroke-width=""1"" fill=""black"" />
    <circle cx=1001.26 cy=525 r=18.701920596066795 stroke=""black"" stroke-width=""1.5"" fill=""none"" />
    <circle cx=1110.7784072126221 cy=525 r=18.701920596066795 stroke=""black"" stroke-width=""1.5"" fill=""none"" />
    <circle cx=1001.26 cy=634.518407212622 r=18.701920596066795 stroke=""black"" stroke-width=""1.5"" fill=""none"" />
    <circle cx=891.741592787378 cy=525 r=18.701920596066795 stroke=""black"" stroke-width=""1.5"" fill=""none"" />
    <circle cx=1001.26 cy=415.48159278737796 r=18.701920596066795 stroke=""black"" stroke-width=""1.5"" fill=""none"" />
    <polygon points = ""1001.26,525 1006.5207567540706,543.7019205960668 995.9992432459294,543.7019205960668"" stroke=""white"" stroke-width=""3"" fill = ""white"" />
    
    </svg>
    </div>
        ","","","","","","","","","","","","stimulus","","","","","","","","","","","","","","","","",""
"html-keyboard-response","42","227799","0.0-42.0","284.30000000074506","arrowdown","","
    <div style="" display: block;  position: relative;"">
    
    <svg width=1680 height=1050>
    <circle cx=777 cy=525 r=13.091344417246756 stroke=""black"" stroke-width=""1"" fill=""black"" />
    <circle cx=1110.7784072126221 cy=525 r=18.701920596066795 stroke=""none"" stroke-width=""1.5"" fill=""none"" />
    <circle cx=1001.26 cy=634.518407212622 r=18.701920596066795 stroke=""none"" stroke-width=""1.5"" fill=""none"" />
    <circle cx=891.741592787378 cy=525 r=18.701920596066795 stroke=""none"" stroke-width=""1.5"" fill=""none"" />
    <circle cx=1001.26 cy=415.48159278737796 r=18.701920596066795 stroke=""none"" stroke-width=""1.5"" fill=""none"" />
    <polygon points = ""1001.26,525 1006.5207567540706,543.7019205960668 995.9992432459294,543.7019205960668"" stroke=""none"" stroke-width=""3"" fill = ""none"" />
    
    </svg>
    </div>
        ","","","","","","","","","","","","get_response","true","oMWDYncip3E1svzk","","","false","false","false","224.26","6","424.004","109.51840721262205","2.92","1","0","","",""
"html-keyboard-response","43","228303","0.0-43.0","null","null","","
    <div style="" display: block;  position: relative;"">
    
    <svg width=1680 height=1050>
    <circle cx=777 cy=525 r=13.091344417246756 stroke=""black"" stroke-width=""1"" fill=""black"" />
    <circle cx=1110.7784072126221 cy=525 r=18.701920596066795 stroke=""none"" stroke-width=""1.5"" fill=""none"" />
    <circle cx=1001.26 cy=634.518407212622 r=18.701920596066795 stroke=""none"" stroke-width=""1.5"" fill=""none"" />
    <circle cx=891.741592787378 cy=525 r=18.701920596066795 stroke=""none"" stroke-width=""1.5"" fill=""none"" />
    <circle cx=1001.26 cy=415.48159278737796 r=18.701920596066795 stroke=""none"" stroke-width=""1.5"" fill=""none"" />
    <polygon points = ""1001.26,525 1006.5207567540706,543.7019205960668 995.9992432459294,543.7019205960668"" stroke=""none"" stroke-width=""3"" fill = ""none"" />
    
    </svg>
    </div>
        ","","","","","","","","","","","","","","","","","","","","","","","","","","","","",""
"html-keyboard-response","44","228458","0.0-44.0","null","null","","
    <div style="" display: block;  position: relative;"">
    <svg width=1680 height=1050>
    
    <circle cx=777 cy=525 r=13.091344417246756 stroke=""black"" stroke-width=""1"" fill=""black"" />
    <circle cx=552.74 cy=525 r=18.701920596066795 stroke=""black"" stroke-width=""1.5"" fill=""none"" />
    <circle cx=652.302188375111 cy=525 r=18.701920596066795 stroke=""black"" stroke-width=""1.5"" fill=""none"" />
    <circle cx=552.74 cy=624.562188375111 r=18.701920596066795 stroke=""black"" stroke-width=""1.5"" fill=""none"" />
    <circle cx=453.17781162488905 cy=525 r=18.701920596066795 stroke=""black"" stroke-width=""1.5"" fill=""none"" />
    <circle cx=552.74 cy=425.43781162488904 r=18.701920596066795 stroke=""black"" stroke-width=""1.5"" fill=""none"" />
    <polygon points = ""552.74,525 558.0007567540706,543.7019205960668 547.4792432459294,543.7019205960668"" stroke=""white"" stroke-width=""3"" fill = ""white"" />
    
    </svg>
    </div>
        ","","","","","","","","","","","","stimulus","","","","","","","","","","","","","","","","",""
"html-keyboard-response","45","228798","0.0-45.0","339.30000000074506","arrowdown","","
    <div style="" display: block;  position: relative;"">
    
    <svg width=1680 height=1050>
    <circle cx=777 cy=525 r=13.091344417246756 stroke=""black"" stroke-width=""1"" fill=""black"" />
    <circle cx=652.302188375111 cy=525 r=18.701920596066795 stroke=""none"" stroke-width=""1.5"" fill=""none"" />
    <circle cx=552.74 cy=624.562188375111 r=18.701920596066795 stroke=""none"" stroke-width=""1.5"" fill=""none"" />
    <circle cx=453.17781162488905 cy=525 r=18.701920596066795 stroke=""none"" stroke-width=""1.5"" fill=""none"" />
    <circle cx=552.74 cy=425.43781162488904 r=18.701920596066795 stroke=""none"" stroke-width=""1.5"" fill=""none"" />
    <polygon points = ""552.74,525 558.0007567540706,543.7019205960668 547.4792432459294,543.7019205960668"" stroke=""none"" stroke-width=""3"" fill = ""none"" />
    
    </svg>
    </div>
        ","","","","","","","","","","","","get_response","true","oMWDYncip3E1svzk","","","true","false","false","224.26","6","424.004","99.56218837511095","2.66","1","0","","",""
"html-keyboard-response","46","229303","0.0-46.0","null","null","","
    <div style="" display: block;  position: relative;"">
    
    <svg width=1680 height=1050>
    <circle cx=777 cy=525 r=13.091344417246756 stroke=""black"" stroke-width=""1"" fill=""black"" />
    <circle cx=652.302188375111 cy=525 r=18.701920596066795 stroke=""none"" stroke-width=""1.5"" fill=""none"" />
    <circle cx=552.74 cy=624.562188375111 r=18.701920596066795 stroke=""none"" stroke-width=""1.5"" fill=""none"" />
    <circle cx=453.17781162488905 cy=525 r=18.701920596066795 stroke=""none"" stroke-width=""1.5"" fill=""none"" />
    <circle cx=552.74 cy=425.43781162488904 r=18.701920596066795 stroke=""none"" stroke-width=""1.5"" fill=""none"" />
    <polygon points = ""552.74,525 558.0007567540706,543.7019205960668 547.4792432459294,543.7019205960668"" stroke=""none"" stroke-width=""3"" fill = ""none"" />
    
    </svg>
    </div>
        ","","","","","","","","","","","","","","","","","","","","","","","","","","","","",""
"html-keyboard-response","47","229460","0.0-47.0","null","null","","
    <div style="" display: block;  position: relative;"">
    <svg width=1680 height=1050>
    
    <circle cx=777 cy=525 r=13.091344417246756 stroke=""black"" stroke-width=""1"" fill=""black"" />
    <circle cx=552.74 cy=525 r=18.701920596066795 stroke=""black"" stroke-width=""1.5"" fill=""none"" />
    <circle cx=643.2510803410099 cy=525 r=18.701920596066795 stroke=""black"" stroke-width=""1.5"" fill=""none"" />
    <circle cx=552.74 cy=615.5110803410099 r=18.701920596066795 stroke=""black"" stroke-width=""1.5"" fill=""none"" />
    <circle cx=462.2289196589901 cy=525 r=18.701920596066795 stroke=""black"" stroke-width=""1.5"" fill=""none"" />
    <circle cx=552.74 cy=434.4889196589901 r=18.701920596066795 stroke=""black"" stroke-width=""1.5"" fill=""none"" />
    <polygon points = ""552.74,525 558.0007567540706,543.7019205960668 547.4792432459294,543.7019205960668"" stroke=""white"" stroke-width=""3"" fill = ""white"" />
    
    </svg>
    </div>
        ","","","","","","","","","","","","stimulus","","","","","","","","","","","","","","","","",""
"html-keyboard-response","48","229754","0.0-48.0","292.5","arrowdown","","
    <div style="" display: block;  position: relative;"">
    
    <svg width=1680 height=1050>
    <circle cx=777 cy=525 r=13.091344417246756 stroke=""black"" stroke-width=""1"" fill=""black"" />
    <circle cx=643.2510803410099 cy=525 r=18.701920596066795 stroke=""none"" stroke-width=""1.5"" fill=""none"" />
    <circle cx=552.74 cy=615.5110803410099 r=18.701920596066795 stroke=""none"" stroke-width=""1.5"" fill=""none"" />
    <circle cx=462.2289196589901 cy=525 r=18.701920596066795 stroke=""none"" stroke-width=""1.5"" fill=""none"" />
    <circle cx=552.74 cy=434.4889196589901 r=18.701920596066795 stroke=""none"" stroke-width=""1.5"" fill=""none"" />
    <polygon points = ""552.74,525 558.0007567540706,543.7019205960668 547.4792432459294,543.7019205960668"" stroke=""none"" stroke-width=""3"" fill = ""none"" />
    
    </svg>
    </div>
        ","","","","","","","","","","","","get_response","true","oMWDYncip3E1svzk","","","true","false","false","224.26","6","424.004","90.51108034100994","2.41","1","0","","",""
"html-keyboard-response","49","230258","0.0-49.0","null","null","","
    <div style="" display: block;  position: relative;"">
    
    <svg width=1680 height=1050>
    <circle cx=777 cy=525 r=13.091344417246756 stroke=""black"" stroke-width=""1"" fill=""black"" />
    <circle cx=643.2510803410099 cy=525 r=18.701920596066795 stroke=""none"" stroke-width=""1.5"" fill=""none"" />
    <circle cx=552.74 cy=615.5110803410099 r=18.701920596066795 stroke=""none"" stroke-width=""1.5"" fill=""none"" />
    <circle cx=462.2289196589901 cy=525 r=18.701920596066795 stroke=""none"" stroke-width=""1.5"" fill=""none"" />
    <circle cx=552.74 cy=434.4889196589901 r=18.701920596066795 stroke=""none"" stroke-width=""1.5"" fill=""none"" />
    <polygon points = ""552.74,525 558.0007567540706,543.7019205960668 547.4792432459294,543.7019205960668"" stroke=""none"" stroke-width=""3"" fill = ""none"" />
    
    </svg>
    </div>
        ","","","","","","","","","","","","","","","","","","","","","","","","","","","","",""
"html-keyboard-response","50","230413","0.0-50.0","null","null","","
    <div style="" display: block;  position: relative;"">
    <svg width=1680 height=1050>
    
    <circle cx=777 cy=525 r=13.091344417246756 stroke=""black"" stroke-width=""1"" fill=""black"" />
    <circle cx=1001.26 cy=525 r=18.701920596066795 stroke=""black"" stroke-width=""1.5"" fill=""none"" />
    <circle cx=1083.542800310009 cy=525 r=18.701920596066795 stroke=""black"" stroke-width=""1.5"" fill=""none"" />
    <circle cx=1001.26 cy=607.2828003100091 r=18.701920596066795 stroke=""black"" stroke-width=""1.5"" fill=""none"" />
    <circle cx=918.9771996899909 cy=525 r=18.701920596066795 stroke=""black"" stroke-width=""1.5"" fill=""none"" />
    <circle cx=1001.26 cy=442.71719968999093 r=18.701920596066795 stroke=""black"" stroke-width=""1.5"" fill=""none"" />
    <polygon points = ""1001.26,525 1006.5207567540706,543.7019205960668 995.9992432459294,543.7019205960668"" stroke=""white"" stroke-width=""3"" fill = ""white"" />
    
    </svg>
    </div>
        ","","","","","","","","","","","","stimulus","","","","","","","","","","","","","","","","",""
"html-keyboard-response","51","230632","0.0-51.0","218.20000000298023","arrowup","","
    <div style="" display: block;  position: relative;"">
    
    <svg width=1680 height=1050>
    <circle cx=777 cy=525 r=13.091344417246756 stroke=""black"" stroke-width=""1"" fill=""black"" />
    <circle cx=1083.542800310009 cy=525 r=18.701920596066795 stroke=""none"" stroke-width=""1.5"" fill=""none"" />
    <circle cx=1001.26 cy=607.2828003100091 r=18.701920596066795 stroke=""none"" stroke-width=""1.5"" fill=""none"" />
    <circle cx=918.9771996899909 cy=525 r=18.701920596066795 stroke=""none"" stroke-width=""1.5"" fill=""none"" />
    <circle cx=1001.26 cy=442.71719968999093 r=18.701920596066795 stroke=""none"" stroke-width=""1.5"" fill=""none"" />
    <polygon points = ""1001.26,525 1006.5207567540706,543.7019205960668 995.9992432459294,543.7019205960668"" stroke=""none"" stroke-width=""3"" fill = ""none"" />
    
    </svg>
    </div>
        ","","","","","","","","","","","","get_response","false","oMWDYncip3E1svzk","","","false","false","false","224.26","6","424.004","82.28280031000904","2.19","1","0","","",""
"html-keyboard-response","52","231135","0.0-52.0","null","null","","
    <div style="" display: block;  position: relative;"">
    
    <svg width=1680 height=1050>
    <circle cx=777 cy=525 r=13.091344417246756 stroke=""black"" stroke-width=""1"" fill=""black"" />
    <circle cx=1083.542800310009 cy=525 r=18.701920596066795 stroke=""none"" stroke-width=""1.5"" fill=""none"" />
    <circle cx=1001.26 cy=607.2828003100091 r=18.701920596066795 stroke=""none"" stroke-width=""1.5"" fill=""none"" />
    <circle cx=918.9771996899909 cy=525 r=18.701920596066795 stroke=""none"" stroke-width=""1.5"" fill=""none"" />
    <circle cx=1001.26 cy=442.71719968999093 r=18.701920596066795 stroke=""none"" stroke-width=""1.5"" fill=""none"" />
    <polygon points = ""1001.26,525 1006.5207567540706,543.7019205960668 995.9992432459294,543.7019205960668"" stroke=""none"" stroke-width=""3"" fill = ""none"" />
    
    </svg>
    </div>
        ","","","","","","","","","","","","","","","","","","","","","","","","","","","","",""
"html-keyboard-response","53","231290","0.0-53.0","null","null","","
    <div style="" display: block;  position: relative;"">
    <svg width=1680 height=1050>
    
    <circle cx=777 cy=525 r=13.091344417246756 stroke=""black"" stroke-width=""1"" fill=""black"" />
    <circle cx=1001.26 cy=525 r=18.701920596066795 stroke=""black"" stroke-width=""1.5"" fill=""none"" />
    <circle cx=1108.2276404030117 cy=525 r=18.701920596066795 stroke=""black"" stroke-width=""1.5"" fill=""none"" />
    <circle cx=1001.26 cy=631.9676404030117 r=18.701920596066795 stroke=""black"" stroke-width=""1.5"" fill=""none"" />
    <circle cx=894.2923595969883 cy=525 r=18.701920596066795 stroke=""black"" stroke-width=""1.5"" fill=""none"" />
    <circle cx=1001.26 cy=418.0323595969883 r=18.701920596066795 stroke=""black"" stroke-width=""1.5"" fill=""none"" />
    <polygon points = ""1001.26,525 1006.5207567540706,506.29807940393323 995.9992432459294,506.29807940393323"" stroke=""white"" stroke-width=""3"" fill = ""white"" />
    
    </svg>
    </div>
        ","","","","","","","","","","","","stimulus","","","","","","","","","","","","","","","","",""
"html-keyboard-response","54","231768","0.0-54.0","477.4000000022352","arrowdown","","
    <div style="" display: block;  position: relative;"">
    
    <svg width=1680 height=1050>
    <circle cx=777 cy=525 r=13.091344417246756 stroke=""black"" stroke-width=""1"" fill=""black"" />
    <circle cx=1108.2276404030117 cy=525 r=18.701920596066795 stroke=""none"" stroke-width=""1.5"" fill=""none"" />
    <circle cx=1001.26 cy=631.9676404030117 r=18.701920596066795 stroke=""none"" stroke-width=""1.5"" fill=""none"" />
    <circle cx=894.2923595969883 cy=525 r=18.701920596066795 stroke=""none"" stroke-width=""1.5"" fill=""none"" />
    <circle cx=1001.26 cy=418.0323595969883 r=18.701920596066795 stroke=""none"" stroke-width=""1.5"" fill=""none"" />
    <polygon points = ""1001.26,525 1006.5207567540706,506.29807940393323 995.9992432459294,506.29807940393323"" stroke=""none"" stroke-width=""3"" fill = ""none"" />
    
    </svg>
    </div>
        ","","","","","","","","","","","","get_response","false","oMWDYncip3E1svzk","","","false","true","false","224.26","6","424.004","106.96764040301176","2.85","1","0","","",""
"html-keyboard-response","55","231818","0.0-55.0","49","arrowup","","
    <div style="" display: block;  position: relative;"">
    
    <svg width=1680 height=1050>
    <circle cx=777 cy=525 r=13.091344417246756 stroke=""black"" stroke-width=""1"" fill=""black"" />
    <circle cx=1108.2276404030117 cy=525 r=18.701920596066795 stroke=""none"" stroke-width=""1.5"" fill=""none"" />
    <circle cx=1001.26 cy=631.9676404030117 r=18.701920596066795 stroke=""none"" stroke-width=""1.5"" fill=""none"" />
    <circle cx=894.2923595969883 cy=525 r=18.701920596066795 stroke=""none"" stroke-width=""1.5"" fill=""none"" />
    <circle cx=1001.26 cy=418.0323595969883 r=18.701920596066795 stroke=""none"" stroke-width=""1.5"" fill=""none"" />
    <polygon points = ""1001.26,525 1006.5207567540706,506.29807940393323 995.9992432459294,506.29807940393323"" stroke=""none"" stroke-width=""3"" fill = ""none"" />
    
    </svg>
    </div>
        ","","","","","","","","","","","","","","","","","","","","","","","","","","","","",""
"html-keyboard-response","56","231972","0.0-56.0","null","null","","
    <div style="" display: block;  position: relative;"">
    <svg width=1680 height=1050>
    
    <circle cx=777 cy=525 r=13.091344417246756 stroke=""black"" stroke-width=""1"" fill=""black"" />
    <circle cx=1001.26 cy=525 r=18.701920596066795 stroke=""black"" stroke-width=""1.5"" fill=""none"" />
    <circle cx=1140.3179325239153 cy=525 r=18.701920596066795 stroke=""black"" stroke-width=""1.5"" fill=""none"" />
    <circle cx=1001.26 cy=664.0579325239153 r=18.701920596066795 stroke=""black"" stroke-width=""1.5"" fill=""none"" />
    <circle cx=862.2020674760847 cy=525 r=18.701920596066795 stroke=""black"" stroke-width=""1.5"" fill=""none"" />
    <circle cx=1001.26 cy=385.94206747608473 r=18.701920596066795 stroke=""black"" stroke-width=""1.5"" fill=""none"" />
    <polygon points = ""1001.26,525 1006.5207567540706,506.29807940393323 995.9992432459294,506.29807940393323"" stroke=""white"" stroke-width=""3"" fill = ""white"" />
    
    </svg>
    </div>
        ","","","","","","","","","","","","stimulus","","","","","","","","","","","","","","","","",""
"html-keyboard-response","57","233057","0.0-57.0","1083.6000000014901","arrowup","","
    <div style="" display: block;  position: relative;"">
    
    <svg width=1680 height=1050>
    <circle cx=777 cy=525 r=13.091344417246756 stroke=""black"" stroke-width=""1"" fill=""black"" />
    <circle cx=1140.3179325239153 cy=525 r=18.701920596066795 stroke=""none"" stroke-width=""1.5"" fill=""none"" />
    <circle cx=1001.26 cy=664.0579325239153 r=18.701920596066795 stroke=""none"" stroke-width=""1.5"" fill=""none"" />
    <circle cx=862.2020674760847 cy=525 r=18.701920596066795 stroke=""none"" stroke-width=""1.5"" fill=""none"" />
    <circle cx=1001.26 cy=385.94206747608473 r=18.701920596066795 stroke=""none"" stroke-width=""1.5"" fill=""none"" />
    <polygon points = ""1001.26,525 1006.5207567540706,506.29807940393323 995.9992432459294,506.29807940393323"" stroke=""none"" stroke-width=""3"" fill = ""none"" />
    
    </svg>
    </div>
        ","","","","","","","","","","","","get_response","true","oMWDYncip3E1svzk","","","false","true","false","224.26","6","424.004","139.0579325239153","3.71","1","0","","",""
"html-keyboard-response","58","233562","0.0-58.0","null","null","","
    <div style="" display: block;  position: relative;"">
    
    <svg width=1680 height=1050>
    <circle cx=777 cy=525 r=13.091344417246756 stroke=""black"" stroke-width=""1"" fill=""black"" />
    <circle cx=1140.3179325239153 cy=525 r=18.701920596066795 stroke=""none"" stroke-width=""1.5"" fill=""none"" />
    <circle cx=1001.26 cy=664.0579325239153 r=18.701920596066795 stroke=""none"" stroke-width=""1.5"" fill=""none"" />
    <circle cx=862.2020674760847 cy=525 r=18.701920596066795 stroke=""none"" stroke-width=""1.5"" fill=""none"" />
    <circle cx=1001.26 cy=385.94206747608473 r=18.701920596066795 stroke=""none"" stroke-width=""1.5"" fill=""none"" />
    <polygon points = ""1001.26,525 1006.5207567540706,506.29807940393323 995.9992432459294,506.29807940393323"" stroke=""none"" stroke-width=""3"" fill = ""none"" />
    
    </svg>
    </div>
        ","","","","","","","","","","","","","","","","","","","","","","","","","","","","",""
"html-keyboard-response","59","233716","0.0-59.0","null","null","","
    <div style="" display: block;  position: relative;"">
    <svg width=1680 height=1050>
    
    <circle cx=777 cy=525 r=13.091344417246756 stroke=""black"" stroke-width=""1"" fill=""black"" />
    <circle cx=552.74 cy=525 r=18.701920596066795 stroke=""black"" stroke-width=""1.5"" fill=""none"" />
    <circle cx=691.7979325239153 cy=525 r=18.701920596066795 stroke=""black"" stroke-width=""1.5"" fill=""none"" />
    <circle cx=552.74 cy=664.0579325239153 r=18.701920596066795 stroke=""black"" stroke-width=""1.5"" fill=""none"" />
    <circle cx=413.68206747608474 cy=525 r=18.701920596066795 stroke=""black"" stroke-width=""1.5"" fill=""none"" />
    <circle cx=552.74 cy=385.94206747608473 r=18.701920596066795 stroke=""black"" stroke-width=""1.5"" fill=""none"" />
    <polygon points = ""552.74,525 558.0007567540706,543.7019205960668 547.4792432459294,543.7019205960668"" stroke=""white"" stroke-width=""3"" fill = ""white"" />
    
    </svg>
    </div>
        ","","","","","","","","","","","","stimulus","","","","","","","","","","","","","","","","",""
"html-keyboard-response","60","234080","0.0-60.0","362.30000000074506","arrowdown","","
    <div style="" display: block;  position: relative;"">
    
    <svg width=1680 height=1050>
    <circle cx=777 cy=525 r=13.091344417246756 stroke=""black"" stroke-width=""1"" fill=""black"" />
    <circle cx=691.7979325239153 cy=525 r=18.701920596066795 stroke=""none"" stroke-width=""1.5"" fill=""none"" />
    <circle cx=552.74 cy=664.0579325239153 r=18.701920596066795 stroke=""none"" stroke-width=""1.5"" fill=""none"" />
    <circle cx=413.68206747608474 cy=525 r=18.701920596066795 stroke=""none"" stroke-width=""1.5"" fill=""none"" />
    <circle cx=552.74 cy=385.94206747608473 r=18.701920596066795 stroke=""none"" stroke-width=""1.5"" fill=""none"" />
    <polygon points = ""552.74,525 558.0007567540706,543.7019205960668 547.4792432459294,543.7019205960668"" stroke=""none"" stroke-width=""3"" fill = ""none"" />
    
    </svg>
    </div>
        ","","","","","","","","","","","","get_response","true","oMWDYncip3E1svzk","","","true","false","false","224.26","6","424.004","139.0579325239153","3.71","1","0","","",""
"html-keyboard-response","61","234583","0.0-61.0","null","null","","
    <div style="" display: block;  position: relative;"">
    
    <svg width=1680 height=1050>
    <circle cx=777 cy=525 r=13.091344417246756 stroke=""black"" stroke-width=""1"" fill=""black"" />
    <circle cx=691.7979325239153 cy=525 r=18.701920596066795 stroke=""none"" stroke-width=""1.5"" fill=""none"" />
    <circle cx=552.74 cy=664.0579325239153 r=18.701920596066795 stroke=""none"" stroke-width=""1.5"" fill=""none"" />
    <circle cx=413.68206747608474 cy=525 r=18.701920596066795 stroke=""none"" stroke-width=""1.5"" fill=""none"" />
    <circle cx=552.74 cy=385.94206747608473 r=18.701920596066795 stroke=""none"" stroke-width=""1.5"" fill=""none"" />
    <polygon points = ""552.74,525 558.0007567540706,543.7019205960668 547.4792432459294,543.7019205960668"" stroke=""none"" stroke-width=""3"" fill = ""none"" />
    
    </svg>
    </div>
        ","","","","","","","","","","","","","","","","","","","","","","","","","","","","",""
"html-keyboard-response","62","234738","0.0-62.0","null","null","","
    <div style="" display: block;  position: relative;"">
    <svg width=1680 height=1050>
    
    <circle cx=777 cy=525 r=13.091344417246756 stroke=""black"" stroke-width=""1"" fill=""black"" />
    <circle cx=1001.26 cy=525 r=18.701920596066795 stroke=""black"" stroke-width=""1.5"" fill=""none"" />
    <circle cx=1140.3179325239153 cy=525 r=18.701920596066795 stroke=""black"" stroke-width=""1.5"" fill=""none"" />
    <circle cx=1001.26 cy=664.0579325239153 r=18.701920596066795 stroke=""black"" stroke-width=""1.5"" fill=""none"" />
    <circle cx=862.2020674760847 cy=525 r=18.701920596066795 stroke=""black"" stroke-width=""1.5"" fill=""none"" />
    <circle cx=1001.26 cy=385.94206747608473 r=18.701920596066795 stroke=""black"" stroke-width=""1.5"" fill=""none"" />
    <polygon points = ""1001.26,525 1006.5207567540706,543.7019205960668 995.9992432459294,543.7019205960668"" stroke=""white"" stroke-width=""3"" fill = ""white"" />
    
    </svg>
    </div>
        ","","","","","","","","","","","","stimulus","","","","","","","","","","","","","","","","",""
"html-keyboard-response","63","235239","0.0-63.0","500","arrowdown","","
    <div style="" display: block;  position: relative;"">
    
    <svg width=1680 height=1050>
    <circle cx=777 cy=525 r=13.091344417246756 stroke=""black"" stroke-width=""1"" fill=""black"" />
    <circle cx=1140.3179325239153 cy=525 r=18.701920596066795 stroke=""none"" stroke-width=""1.5"" fill=""none"" />
    <circle cx=1001.26 cy=664.0579325239153 r=18.701920596066795 stroke=""none"" stroke-width=""1.5"" fill=""none"" />
    <circle cx=862.2020674760847 cy=525 r=18.701920596066795 stroke=""none"" stroke-width=""1.5"" fill=""none"" />
    <circle cx=1001.26 cy=385.94206747608473 r=18.701920596066795 stroke=""none"" stroke-width=""1.5"" fill=""none"" />
    <polygon points = ""1001.26,525 1006.5207567540706,543.7019205960668 995.9992432459294,543.7019205960668"" stroke=""none"" stroke-width=""3"" fill = ""none"" />
    
    </svg>
    </div>
        ","","","","","","","","","","","","get_response","true","oMWDYncip3E1svzk","","","false","false","false","224.26","6","424.004","139.0579325239153","3.71","1","0","","",""
"html-keyboard-response","64","235743","0.0-64.0","null","null","","
    <div style="" display: block;  position: relative;"">
    
    <svg width=1680 height=1050>
    <circle cx=777 cy=525 r=13.091344417246756 stroke=""black"" stroke-width=""1"" fill=""black"" />
    <circle cx=1140.3179325239153 cy=525 r=18.701920596066795 stroke=""none"" stroke-width=""1.5"" fill=""none"" />
    <circle cx=1001.26 cy=664.0579325239153 r=18.701920596066795 stroke=""none"" stroke-width=""1.5"" fill=""none"" />
    <circle cx=862.2020674760847 cy=525 r=18.701920596066795 stroke=""none"" stroke-width=""1.5"" fill=""none"" />
    <circle cx=1001.26 cy=385.94206747608473 r=18.701920596066795 stroke=""none"" stroke-width=""1.5"" fill=""none"" />
    <polygon points = ""1001.26,525 1006.5207567540706,543.7019205960668 995.9992432459294,543.7019205960668"" stroke=""none"" stroke-width=""3"" fill = ""none"" />
    
    </svg>
    </div>
        ","","","","","","","","","","","","","","","","","","","","","","","","","","","","",""
"html-keyboard-response","65","235898","0.0-65.0","null","null","","
    <div style="" display: block;  position: relative;"">
    <svg width=1680 height=1050>
    
    <circle cx=777 cy=525 r=13.091344417246756 stroke=""black"" stroke-width=""1"" fill=""black"" />
    <circle cx=1001.26 cy=525 r=18.701920596066795 stroke=""black"" stroke-width=""1.5"" fill=""none"" />
    <circle cx=1127.6763022944683 cy=525 r=18.701920596066795 stroke=""black"" stroke-width=""1.5"" fill=""none"" />
    <circle cx=1001.26 cy=651.4163022944684 r=18.701920596066795 stroke=""black"" stroke-width=""1.5"" fill=""none"" />
    <circle cx=874.8436977055316 cy=525 r=18.701920596066795 stroke=""black"" stroke-width=""1.5"" fill=""none"" />
    <circle cx=1001.26 cy=398.58369770553156 r=18.701920596066795 stroke=""black"" stroke-width=""1.5"" fill=""none"" />
    <polygon points = ""1001.26,525 1006.5207567540706,506.29807940393323 995.9992432459294,506.29807940393323"" stroke=""white"" stroke-width=""3"" fill = ""white"" />
    
    </svg>
    </div>
        ","","","","","","","","","","","","stimulus","","","","","","","","","","","","","","","","",""
"html-keyboard-response","66","236258","0.0-66.0","359.0999999977648","arrowup","","
    <div style="" display: block;  position: relative;"">
    
    <svg width=1680 height=1050>
    <circle cx=777 cy=525 r=13.091344417246756 stroke=""black"" stroke-width=""1"" fill=""black"" />
    <circle cx=1127.6763022944683 cy=525 r=18.701920596066795 stroke=""none"" stroke-width=""1.5"" fill=""none"" />
    <circle cx=1001.26 cy=651.4163022944684 r=18.701920596066795 stroke=""none"" stroke-width=""1.5"" fill=""none"" />
    <circle cx=874.8436977055316 cy=525 r=18.701920596066795 stroke=""none"" stroke-width=""1.5"" fill=""none"" />
    <circle cx=1001.26 cy=398.58369770553156 r=18.701920596066795 stroke=""none"" stroke-width=""1.5"" fill=""none"" />
    <polygon points = ""1001.26,525 1006.5207567540706,506.29807940393323 995.9992432459294,506.29807940393323"" stroke=""none"" stroke-width=""3"" fill = ""none"" />
    
    </svg>
    </div>
        ","","","","","","","","","","","","get_response","true","oMWDYncip3E1svzk","","","false","true","false","224.26","6","424.004","126.41630229446844","3.37","1","0","","",""
"html-keyboard-response","67","236762","0.0-67.0","null","null","","
    <div style="" display: block;  position: relative;"">
    
    <svg width=1680 height=1050>
    <circle cx=777 cy=525 r=13.091344417246756 stroke=""black"" stroke-width=""1"" fill=""black"" />
    <circle cx=1127.6763022944683 cy=525 r=18.701920596066795 stroke=""none"" stroke-width=""1.5"" fill=""none"" />
    <circle cx=1001.26 cy=651.4163022944684 r=18.701920596066795 stroke=""none"" stroke-width=""1.5"" fill=""none"" />
    <circle cx=874.8436977055316 cy=525 r=18.701920596066795 stroke=""none"" stroke-width=""1.5"" fill=""none"" />
    <circle cx=1001.26 cy=398.58369770553156 r=18.701920596066795 stroke=""none"" stroke-width=""1.5"" fill=""none"" />
    <polygon points = ""1001.26,525 1006.5207567540706,506.29807940393323 995.9992432459294,506.29807940393323"" stroke=""none"" stroke-width=""3"" fill = ""none"" />
    
    </svg>
    </div>
        ","","","","","","","","","","","","","","","","","","","","","","","","","","","","",""
"html-keyboard-response","68","236917","0.0-68.0","null","null","","
    <div style="" display: block;  position: relative;"">
    <svg width=1680 height=1050>
    
    <circle cx=777 cy=525 r=13.091344417246756 stroke=""black"" stroke-width=""1"" fill=""black"" />
    <circle cx=1001.26 cy=525 r=18.701920596066795 stroke=""black"" stroke-width=""1.5"" fill=""none"" />
    <circle cx=1116.1839111767895 cy=525 r=18.701920596066795 stroke=""black"" stroke-width=""1.5"" fill=""none"" />
    <circle cx=1001.26 cy=639.9239111767895 r=18.701920596066795 stroke=""black"" stroke-width=""1.5"" fill=""none"" />
    <circle cx=886.3360888232105 cy=525 r=18.701920596066795 stroke=""black"" stroke-width=""1.5"" fill=""none"" />
    <circle cx=1001.26 cy=410.0760888232105 r=18.701920596066795 stroke=""black"" stroke-width=""1.5"" fill=""none"" />
    <polygon points = ""1001.26,525 1006.5207567540706,506.29807940393323 995.9992432459294,506.29807940393323"" stroke=""white"" stroke-width=""3"" fill = ""white"" />
    
    </svg>
    </div>
        ","","","","","","","","","","","","stimulus","","","","","","","","","","","","","","","","",""
"html-keyboard-response","69","237236","0.0-69.0","318.6000000014901","arrowup","","
    <div style="" display: block;  position: relative;"">
    
    <svg width=1680 height=1050>
    <circle cx=777 cy=525 r=13.091344417246756 stroke=""black"" stroke-width=""1"" fill=""black"" />
    <circle cx=1116.1839111767895 cy=525 r=18.701920596066795 stroke=""none"" stroke-width=""1.5"" fill=""none"" />
    <circle cx=1001.26 cy=639.9239111767895 r=18.701920596066795 stroke=""none"" stroke-width=""1.5"" fill=""none"" />
    <circle cx=886.3360888232105 cy=525 r=18.701920596066795 stroke=""none"" stroke-width=""1.5"" fill=""none"" />
    <circle cx=1001.26 cy=410.0760888232105 r=18.701920596066795 stroke=""none"" stroke-width=""1.5"" fill=""none"" />
    <polygon points = ""1001.26,525 1006.5207567540706,506.29807940393323 995.9992432459294,506.29807940393323"" stroke=""none"" stroke-width=""3"" fill = ""none"" />
    
    </svg>
    </div>
        ","","","","","","","","","","","","get_response","true","oMWDYncip3E1svzk","","","false","true","false","224.26","6","424.004","114.92391117678947","3.07","1","0","","",""
"html-keyboard-response","70","237741","0.0-70.0","null","null","","
    <div style="" display: block;  position: relative;"">
    
    <svg width=1680 height=1050>
    <circle cx=777 cy=525 r=13.091344417246756 stroke=""black"" stroke-width=""1"" fill=""black"" />
    <circle cx=1116.1839111767895 cy=525 r=18.701920596066795 stroke=""none"" stroke-width=""1.5"" fill=""none"" />
    <circle cx=1001.26 cy=639.9239111767895 r=18.701920596066795 stroke=""none"" stroke-width=""1.5"" fill=""none"" />
    <circle cx=886.3360888232105 cy=525 r=18.701920596066795 stroke=""none"" stroke-width=""1.5"" fill=""none"" />
    <circle cx=1001.26 cy=410.0760888232105 r=18.701920596066795 stroke=""none"" stroke-width=""1.5"" fill=""none"" />
    <polygon points = ""1001.26,525 1006.5207567540706,506.29807940393323 995.9992432459294,506.29807940393323"" stroke=""none"" stroke-width=""3"" fill = ""none"" />
    
    </svg>
    </div>
        ","","","","","","","","","","","","","","","","","","","","","","","","","","","","",""
"html-keyboard-response","71","237896","0.0-71.0","null","null","","
    <div style="" display: block;  position: relative;"">
    <svg width=1680 height=1050>
    
    <circle cx=777 cy=525 r=13.091344417246756 stroke=""black"" stroke-width=""1"" fill=""black"" />
    <circle cx=1001.26 cy=525 r=18.701920596066795 stroke=""black"" stroke-width=""1.5"" fill=""none"" />
    <circle cx=1105.7362828879905 cy=525 r=18.701920596066795 stroke=""black"" stroke-width=""1.5"" fill=""none"" />
    <circle cx=1001.26 cy=629.4762828879905 r=18.701920596066795 stroke=""black"" stroke-width=""1.5"" fill=""none"" />
    <circle cx=896.7837171120095 cy=525 r=18.701920596066795 stroke=""black"" stroke-width=""1.5"" fill=""none"" />
    <circle cx=1001.26 cy=420.5237171120096 r=18.701920596066795 stroke=""black"" stroke-width=""1.5"" fill=""none"" />
    <polygon points = ""1001.26,525 1006.5207567540706,543.7019205960668 995.9992432459294,543.7019205960668"" stroke=""white"" stroke-width=""3"" fill = ""white"" />
    
    </svg>
    </div>
        ","","","","","","","","","","","","stimulus","","","","","","","","","","","","","","","","",""
"html-keyboard-response","72","238279","0.0-72.0","382.5","arrowdown","","
    <div style="" display: block;  position: relative;"">
    
    <svg width=1680 height=1050>
    <circle cx=777 cy=525 r=13.091344417246756 stroke=""black"" stroke-width=""1"" fill=""black"" />
    <circle cx=1105.7362828879905 cy=525 r=18.701920596066795 stroke=""none"" stroke-width=""1.5"" fill=""none"" />
    <circle cx=1001.26 cy=629.4762828879905 r=18.701920596066795 stroke=""none"" stroke-width=""1.5"" fill=""none"" />
    <circle cx=896.7837171120095 cy=525 r=18.701920596066795 stroke=""none"" stroke-width=""1.5"" fill=""none"" />
    <circle cx=1001.26 cy=420.5237171120096 r=18.701920596066795 stroke=""none"" stroke-width=""1.5"" fill=""none"" />
    <polygon points = ""1001.26,525 1006.5207567540706,543.7019205960668 995.9992432459294,543.7019205960668"" stroke=""none"" stroke-width=""3"" fill = ""none"" />
    
    </svg>
    </div>
        ","","","","","","","","","","","","get_response","true","oMWDYncip3E1svzk","","","false","false","false","224.26","6","424.004","104.47628288799042","2.79","1","0","","",""
"html-keyboard-response","73","238783","0.0-73.0","null","null","","
    <div style="" display: block;  position: relative;"">
    
    <svg width=1680 height=1050>
    <circle cx=777 cy=525 r=13.091344417246756 stroke=""black"" stroke-width=""1"" fill=""black"" />
    <circle cx=1105.7362828879905 cy=525 r=18.701920596066795 stroke=""none"" stroke-width=""1.5"" fill=""none"" />
    <circle cx=1001.26 cy=629.4762828879905 r=18.701920596066795 stroke=""none"" stroke-width=""1.5"" fill=""none"" />
    <circle cx=896.7837171120095 cy=525 r=18.701920596066795 stroke=""none"" stroke-width=""1.5"" fill=""none"" />
    <circle cx=1001.26 cy=420.5237171120096 r=18.701920596066795 stroke=""none"" stroke-width=""1.5"" fill=""none"" />
    <polygon points = ""1001.26,525 1006.5207567540706,543.7019205960668 995.9992432459294,543.7019205960668"" stroke=""none"" stroke-width=""3"" fill = ""none"" />
    
    </svg>
    </div>
        ","","","","","","","","","","","","","","","","","","","","","","","","","","","","",""
"html-keyboard-response","74","238938","0.0-74.0","null","null","","
    <div style="" display: block;  position: relative;"">
    <svg width=1680 height=1050>
    
    <circle cx=777 cy=525 r=13.091344417246756 stroke=""black"" stroke-width=""1"" fill=""black"" />
    <circle cx=1001.26 cy=525 r=18.701920596066795 stroke=""black"" stroke-width=""1.5"" fill=""none"" />
    <circle cx=1096.2384389890822 cy=525 r=18.701920596066795 stroke=""black"" stroke-width=""1.5"" fill=""none"" />
    <circle cx=1001.26 cy=619.9784389890822 r=18.701920596066795 stroke=""black"" stroke-width=""1.5"" fill=""none"" />
    <circle cx=906.2815610109178 cy=525 r=18.701920596066795 stroke=""black"" stroke-width=""1.5"" fill=""none"" />
    <circle cx=1001.26 cy=430.0215610109178 r=18.701920596066795 stroke=""black"" stroke-width=""1.5"" fill=""none"" />
    <polygon points = ""1001.26,525 1006.5207567540706,506.29807940393323 995.9992432459294,506.29807940393323"" stroke=""white"" stroke-width=""3"" fill = ""white"" />
    
    </svg>
    </div>
        ","","","","","","","","","","","","stimulus","","","","","","","","","","","","","","","","",""
"html-keyboard-response","75","239564","0.0-75.0","625.3000000007451","arrowup","","
    <div style="" display: block;  position: relative;"">
    
    <svg width=1680 height=1050>
    <circle cx=777 cy=525 r=13.091344417246756 stroke=""black"" stroke-width=""1"" fill=""black"" />
    <circle cx=1096.2384389890822 cy=525 r=18.701920596066795 stroke=""none"" stroke-width=""1.5"" fill=""none"" />
    <circle cx=1001.26 cy=619.9784389890822 r=18.701920596066795 stroke=""none"" stroke-width=""1.5"" fill=""none"" />
    <circle cx=906.2815610109178 cy=525 r=18.701920596066795 stroke=""none"" stroke-width=""1.5"" fill=""none"" />
    <circle cx=1001.26 cy=430.0215610109178 r=18.701920596066795 stroke=""none"" stroke-width=""1.5"" fill=""none"" />
    <polygon points = ""1001.26,525 1006.5207567540706,506.29807940393323 995.9992432459294,506.29807940393323"" stroke=""none"" stroke-width=""3"" fill = ""none"" />
    
    </svg>
    </div>
        ","","","","","","","","","","","","get_response","true","oMWDYncip3E1svzk","","","false","true","false","224.26","6","424.004","94.97843898908219","2.53","1","0","","",""
"html-keyboard-response","76","240069","0.0-76.0","null","null","","
    <div style="" display: block;  position: relative;"">
    
    <svg width=1680 height=1050>
    <circle cx=777 cy=525 r=13.091344417246756 stroke=""black"" stroke-width=""1"" fill=""black"" />
    <circle cx=1096.2384389890822 cy=525 r=18.701920596066795 stroke=""none"" stroke-width=""1.5"" fill=""none"" />
    <circle cx=1001.26 cy=619.9784389890822 r=18.701920596066795 stroke=""none"" stroke-width=""1.5"" fill=""none"" />
    <circle cx=906.2815610109178 cy=525 r=18.701920596066795 stroke=""none"" stroke-width=""1.5"" fill=""none"" />
    <circle cx=1001.26 cy=430.0215610109178 r=18.701920596066795 stroke=""none"" stroke-width=""1.5"" fill=""none"" />
    <polygon points = ""1001.26,525 1006.5207567540706,506.29807940393323 995.9992432459294,506.29807940393323"" stroke=""none"" stroke-width=""3"" fill = ""none"" />
    
    </svg>
    </div>
        ","","","","","","","","","","","","","","","","","","","","","","","","","","","","",""
"html-keyboard-response","77","240223","0.0-77.0","null","null","","
    <div style="" display: block;  position: relative;"">
    <svg width=1680 height=1050>
    
    <circle cx=777 cy=525 r=13.091344417246756 stroke=""black"" stroke-width=""1"" fill=""black"" />
    <circle cx=1001.26 cy=525 r=18.701920596066795 stroke=""black"" stroke-width=""1.5"" fill=""none"" />
    <circle cx=1087.6040354446202 cy=525 r=18.701920596066795 stroke=""black"" stroke-width=""1.5"" fill=""none"" />
    <circle cx=1001.26 cy=611.3440354446202 r=18.701920596066795 stroke=""black"" stroke-width=""1.5"" fill=""none"" />
    <circle cx=914.9159645553798 cy=525 r=18.701920596066795 stroke=""black"" stroke-width=""1.5"" fill=""none"" />
    <circle cx=1001.26 cy=438.6559645553798 r=18.701920596066795 stroke=""black"" stroke-width=""1.5"" fill=""none"" />
    <polygon points = ""1001.26,525 1006.5207567540706,543.7019205960668 995.9992432459294,543.7019205960668"" stroke=""white"" stroke-width=""3"" fill = ""white"" />
    
    </svg>
    </div>
        ","","","","","","","","","","","","stimulus","","","","","","","","","","","","","","","","",""
"html-keyboard-response","78","240704","0.0-78.0","479.80000000074506","arrowdown","","
    <div style="" display: block;  position: relative;"">
    
    <svg width=1680 height=1050>
    <circle cx=777 cy=525 r=13.091344417246756 stroke=""black"" stroke-width=""1"" fill=""black"" />
    <circle cx=1087.6040354446202 cy=525 r=18.701920596066795 stroke=""none"" stroke-width=""1.5"" fill=""none"" />
    <circle cx=1001.26 cy=611.3440354446202 r=18.701920596066795 stroke=""none"" stroke-width=""1.5"" fill=""none"" />
    <circle cx=914.9159645553798 cy=525 r=18.701920596066795 stroke=""none"" stroke-width=""1.5"" fill=""none"" />
    <circle cx=1001.26 cy=438.6559645553798 r=18.701920596066795 stroke=""none"" stroke-width=""1.5"" fill=""none"" />
    <polygon points = ""1001.26,525 1006.5207567540706,543.7019205960668 995.9992432459294,543.7019205960668"" stroke=""none"" stroke-width=""3"" fill = ""none"" />
    
    </svg>
    </div>
        ","","","","","","","","","","","","get_response","true","oMWDYncip3E1svzk","","","false","false","false","224.26","6","424.004","86.34403544462018","2.3","1","0","","",""
"html-keyboard-response","79","241208","0.0-79.0","null","null","","
    <div style="" display: block;  position: relative;"">
    
    <svg width=1680 height=1050>
    <circle cx=777 cy=525 r=13.091344417246756 stroke=""black"" stroke-width=""1"" fill=""black"" />
    <circle cx=1087.6040354446202 cy=525 r=18.701920596066795 stroke=""none"" stroke-width=""1.5"" fill=""none"" />
    <circle cx=1001.26 cy=611.3440354446202 r=18.701920596066795 stroke=""none"" stroke-width=""1.5"" fill=""none"" />
    <circle cx=914.9159645553798 cy=525 r=18.701920596066795 stroke=""none"" stroke-width=""1.5"" fill=""none"" />
    <circle cx=1001.26 cy=438.6559645553798 r=18.701920596066795 stroke=""none"" stroke-width=""1.5"" fill=""none"" />
    <polygon points = ""1001.26,525 1006.5207567540706,543.7019205960668 995.9992432459294,543.7019205960668"" stroke=""none"" stroke-width=""3"" fill = ""none"" />
    
    </svg>
    </div>
        ","","","","","","","","","","","","","","","","","","","","","","","","","","","","",""
"html-keyboard-response","80","241362","0.0-80.0","null","null","","
    <div style="" display: block;  position: relative;"">
    <svg width=1680 height=1050>
    
    <circle cx=777 cy=525 r=13.091344417246756 stroke=""black"" stroke-width=""1"" fill=""black"" />
    <circle cx=552.74 cy=525 r=18.701920596066795 stroke=""black"" stroke-width=""1.5"" fill=""none"" />
    <circle cx=631.2345776769274 cy=525 r=18.701920596066795 stroke=""black"" stroke-width=""1.5"" fill=""none"" />
    <circle cx=552.74 cy=603.4945776769274 r=18.701920596066795 stroke=""black"" stroke-width=""1.5"" fill=""none"" />
    <circle cx=474.2454223230726 cy=525 r=18.701920596066795 stroke=""black"" stroke-width=""1.5"" fill=""none"" />
    <circle cx=552.74 cy=446.5054223230726 r=18.701920596066795 stroke=""black"" stroke-width=""1.5"" fill=""none"" />
    <polygon points = ""552.74,525 558.0007567540706,506.29807940393323 547.4792432459294,506.29807940393323"" stroke=""white"" stroke-width=""3"" fill = ""white"" />
    
    </svg>
    </div>
        ","","","","","","","","","","","","stimulus","","","","","","","","","","","","","","","","",""
"html-keyboard-response","81","242037","0.0-81.0","673.7999999970198","arrowup","","
    <div style="" display: block;  position: relative;"">
    
    <svg width=1680 height=1050>
    <circle cx=777 cy=525 r=13.091344417246756 stroke=""black"" stroke-width=""1"" fill=""black"" />
    <circle cx=631.2345776769274 cy=525 r=18.701920596066795 stroke=""none"" stroke-width=""1.5"" fill=""none"" />
    <circle cx=552.74 cy=603.4945776769274 r=18.701920596066795 stroke=""none"" stroke-width=""1.5"" fill=""none"" />
    <circle cx=474.2454223230726 cy=525 r=18.701920596066795 stroke=""none"" stroke-width=""1.5"" fill=""none"" />
    <circle cx=552.74 cy=446.5054223230726 r=18.701920596066795 stroke=""none"" stroke-width=""1.5"" fill=""none"" />
    <polygon points = ""552.74,525 558.0007567540706,506.29807940393323 547.4792432459294,506.29807940393323"" stroke=""none"" stroke-width=""3"" fill = ""none"" />
    
    </svg>
    </div>
        ","","","","","","","","","","","","get_response","true","oMWDYncip3E1svzk","","","true","true","false","224.26","6","424.004","78.49457767692742","2.09","1","0","","",""
"html-keyboard-response","82","242541","0.0-82.0","null","null","","
    <div style="" display: block;  position: relative;"">
    
    <svg width=1680 height=1050>
    <circle cx=777 cy=525 r=13.091344417246756 stroke=""black"" stroke-width=""1"" fill=""black"" />
    <circle cx=631.2345776769274 cy=525 r=18.701920596066795 stroke=""none"" stroke-width=""1.5"" fill=""none"" />
    <circle cx=552.74 cy=603.4945776769274 r=18.701920596066795 stroke=""none"" stroke-width=""1.5"" fill=""none"" />
    <circle cx=474.2454223230726 cy=525 r=18.701920596066795 stroke=""none"" stroke-width=""1.5"" fill=""none"" />
    <circle cx=552.74 cy=446.5054223230726 r=18.701920596066795 stroke=""none"" stroke-width=""1.5"" fill=""none"" />
    <polygon points = ""552.74,525 558.0007567540706,506.29807940393323 547.4792432459294,506.29807940393323"" stroke=""none"" stroke-width=""3"" fill = ""none"" />
    
    </svg>
    </div>
        ","","","","","","","","","","","","","","","","","","","","","","","","","","","","",""
"html-keyboard-response","83","242696","0.0-83.0","null","null","","
    <div style="" display: block;  position: relative;"">
    <svg width=1680 height=1050>
    
    <circle cx=777 cy=525 r=13.091344417246756 stroke=""black"" stroke-width=""1"" fill=""black"" />
    <circle cx=552.74 cy=525 r=18.701920596066795 stroke=""black"" stroke-width=""1.5"" fill=""none"" />
    <circle cx=624.0987069790249 cy=525 r=18.701920596066795 stroke=""black"" stroke-width=""1.5"" fill=""none"" />
    <circle cx=552.74 cy=596.3587069790249 r=18.701920596066795 stroke=""black"" stroke-width=""1.5"" fill=""none"" />
    <circle cx=481.3812930209751 cy=525 r=18.701920596066795 stroke=""black"" stroke-width=""1.5"" fill=""none"" />
    <circle cx=552.74 cy=453.64129302097507 r=18.701920596066795 stroke=""black"" stroke-width=""1.5"" fill=""none"" />
    <polygon points = ""552.74,525 558.0007567540706,543.7019205960668 547.4792432459294,543.7019205960668"" stroke=""white"" stroke-width=""3"" fill = ""white"" />
    
    </svg>
    </div>
        ","","","","","","","","","","","","stimulus","","","","","","","","","","","","","","","","",""
"html-keyboard-response","84","243068","0.0-84.0","371.4000000022352","arrowdown","","
    <div style="" display: block;  position: relative;"">
    
    <svg width=1680 height=1050>
    <circle cx=777 cy=525 r=13.091344417246756 stroke=""black"" stroke-width=""1"" fill=""black"" />
    <circle cx=624.0987069790249 cy=525 r=18.701920596066795 stroke=""none"" stroke-width=""1.5"" fill=""none"" />
    <circle cx=552.74 cy=596.3587069790249 r=18.701920596066795 stroke=""none"" stroke-width=""1.5"" fill=""none"" />
    <circle cx=481.3812930209751 cy=525 r=18.701920596066795 stroke=""none"" stroke-width=""1.5"" fill=""none"" />
    <circle cx=552.74 cy=453.64129302097507 r=18.701920596066795 stroke=""none"" stroke-width=""1.5"" fill=""none"" />
    <polygon points = ""552.74,525 558.0007567540706,543.7019205960668 547.4792432459294,543.7019205960668"" stroke=""none"" stroke-width=""3"" fill = ""none"" />
    
    </svg>
    </div>
        ","","","","","","","","","","","","get_response","true","oMWDYncip3E1svzk","","","true","false","false","224.26","6","424.004","71.35870697902492","1.9","1","0","","",""
"html-keyboard-response","85","243573","0.0-85.0","null","null","","
    <div style="" display: block;  position: relative;"">
    
    <svg width=1680 height=1050>
    <circle cx=777 cy=525 r=13.091344417246756 stroke=""black"" stroke-width=""1"" fill=""black"" />
    <circle cx=624.0987069790249 cy=525 r=18.701920596066795 stroke=""none"" stroke-width=""1.5"" fill=""none"" />
    <circle cx=552.74 cy=596.3587069790249 r=18.701920596066795 stroke=""none"" stroke-width=""1.5"" fill=""none"" />
    <circle cx=481.3812930209751 cy=525 r=18.701920596066795 stroke=""none"" stroke-width=""1.5"" fill=""none"" />
    <circle cx=552.74 cy=453.64129302097507 r=18.701920596066795 stroke=""none"" stroke-width=""1.5"" fill=""none"" />
    <polygon points = ""552.74,525 558.0007567540706,543.7019205960668 547.4792432459294,543.7019205960668"" stroke=""none"" stroke-width=""3"" fill = ""none"" />
    
    </svg>
    </div>
        ","","","","","","","","","","","","","","","","","","","","","","","","","","","","",""
"html-keyboard-response","86","243727","0.0-86.0","null","null","","
    <div style="" display: block;  position: relative;"">
    <svg width=1680 height=1050>
    
    <circle cx=777 cy=525 r=13.091344417246756 stroke=""black"" stroke-width=""1"" fill=""black"" />
    <circle cx=1001.26 cy=525 r=18.701920596066795 stroke=""black"" stroke-width=""1.5"" fill=""none"" />
    <circle cx=1066.1315517991136 cy=525 r=18.701920596066795 stroke=""black"" stroke-width=""1.5"" fill=""none"" />
    <circle cx=1001.26 cy=589.8715517991136 r=18.701920596066795 stroke=""black"" stroke-width=""1.5"" fill=""none"" />
    <circle cx=936.3884482008864 cy=525 r=18.701920596066795 stroke=""black"" stroke-width=""1.5"" fill=""none"" />
    <circle cx=1001.26 cy=460.12844820088645 r=18.701920596066795 stroke=""black"" stroke-width=""1.5"" fill=""none"" />
    <polygon points = ""1001.26,525 1006.5207567540706,506.29807940393323 995.9992432459294,506.29807940393323"" stroke=""white"" stroke-width=""3"" fill = ""white"" />
    
    </svg>
    </div>
        ","","","","","","","","","","","","stimulus","","","","","","","","","","","","","","","","",""
"html-keyboard-response","87","244102","0.0-87.0","373.69999999925494","arrowup","","
    <div style="" display: block;  position: relative;"">
    
    <svg width=1680 height=1050>
    <circle cx=777 cy=525 r=13.091344417246756 stroke=""black"" stroke-width=""1"" fill=""black"" />
    <circle cx=1066.1315517991136 cy=525 r=18.701920596066795 stroke=""none"" stroke-width=""1.5"" fill=""none"" />
    <circle cx=1001.26 cy=589.8715517991136 r=18.701920596066795 stroke=""none"" stroke-width=""1.5"" fill=""none"" />
    <circle cx=936.3884482008864 cy=525 r=18.701920596066795 stroke=""none"" stroke-width=""1.5"" fill=""none"" />
    <circle cx=1001.26 cy=460.12844820088645 r=18.701920596066795 stroke=""none"" stroke-width=""1.5"" fill=""none"" />
    <polygon points = ""1001.26,525 1006.5207567540706,506.29807940393323 995.9992432459294,506.29807940393323"" stroke=""none"" stroke-width=""3"" fill = ""none"" />
    
    </svg>
    </div>
        ","","","","","","","","","","","","get_response","true","oMWDYncip3E1svzk","","","false","true","false","224.26","6","424.004","64.87155179911356","1.73","1","0","","",""
"html-keyboard-response","88","244607","0.0-88.0","null","null","","
    <div style="" display: block;  position: relative;"">
    
    <svg width=1680 height=1050>
    <circle cx=777 cy=525 r=13.091344417246756 stroke=""black"" stroke-width=""1"" fill=""black"" />
    <circle cx=1066.1315517991136 cy=525 r=18.701920596066795 stroke=""none"" stroke-width=""1.5"" fill=""none"" />
    <circle cx=1001.26 cy=589.8715517991136 r=18.701920596066795 stroke=""none"" stroke-width=""1.5"" fill=""none"" />
    <circle cx=936.3884482008864 cy=525 r=18.701920596066795 stroke=""none"" stroke-width=""1.5"" fill=""none"" />
    <circle cx=1001.26 cy=460.12844820088645 r=18.701920596066795 stroke=""none"" stroke-width=""1.5"" fill=""none"" />
    <polygon points = ""1001.26,525 1006.5207567540706,506.29807940393323 995.9992432459294,506.29807940393323"" stroke=""none"" stroke-width=""3"" fill = ""none"" />
    
    </svg>
    </div>
        ","","","","","","","","","","","","","","","","","","","","","","","","","","","","",""
"html-keyboard-response","89","244762","0.0-89.0","null","null","","
    <div style="" display: block;  position: relative;"">
    <svg width=1680 height=1050>
    
    <circle cx=777 cy=525 r=13.091344417246756 stroke=""black"" stroke-width=""1"" fill=""black"" />
    <circle cx=552.74 cy=525 r=18.701920596066795 stroke=""black"" stroke-width=""1.5"" fill=""none"" />
    <circle cx=611.7141379991941 cy=525 r=18.701920596066795 stroke=""black"" stroke-width=""1.5"" fill=""none"" />
    <circle cx=552.74 cy=583.9741379991941 r=18.701920596066795 stroke=""black"" stroke-width=""1.5"" fill=""none"" />
    <circle cx=493.7658620008059 cy=525 r=18.701920596066795 stroke=""black"" stroke-width=""1.5"" fill=""none"" />
    <circle cx=552.74 cy=466.0258620008059 r=18.701920596066795 stroke=""black"" stroke-width=""1.5"" fill=""none"" />
    <polygon points = ""552.74,525 558.0007567540706,543.7019205960668 547.4792432459294,543.7019205960668"" stroke=""white"" stroke-width=""3"" fill = ""white"" />
    
    </svg>
    </div>
        ","","","","","","","","","","","","stimulus","","","","","","","","","","","","","","","","",""
"html-keyboard-response","90","245157","0.0-90.0","393.8999999985099","arrowdown","","
    <div style="" display: block;  position: relative;"">
    
    <svg width=1680 height=1050>
    <circle cx=777 cy=525 r=13.091344417246756 stroke=""black"" stroke-width=""1"" fill=""black"" />
    <circle cx=611.7141379991941 cy=525 r=18.701920596066795 stroke=""none"" stroke-width=""1.5"" fill=""none"" />
    <circle cx=552.74 cy=583.9741379991941 r=18.701920596066795 stroke=""none"" stroke-width=""1.5"" fill=""none"" />
    <circle cx=493.7658620008059 cy=525 r=18.701920596066795 stroke=""none"" stroke-width=""1.5"" fill=""none"" />
    <circle cx=552.74 cy=466.0258620008059 r=18.701920596066795 stroke=""none"" stroke-width=""1.5"" fill=""none"" />
    <polygon points = ""552.74,525 558.0007567540706,543.7019205960668 547.4792432459294,543.7019205960668"" stroke=""none"" stroke-width=""3"" fill = ""none"" />
    
    </svg>
    </div>
        ","","","","","","","","","","","","get_response","true","oMWDYncip3E1svzk","","","true","false","false","224.26","6","424.004","58.97413799919414","1.57","1","0","","",""
"html-keyboard-response","91","245661","0.0-91.0","null","null","","
    <div style="" display: block;  position: relative;"">
    
    <svg width=1680 height=1050>
    <circle cx=777 cy=525 r=13.091344417246756 stroke=""black"" stroke-width=""1"" fill=""black"" />
    <circle cx=611.7141379991941 cy=525 r=18.701920596066795 stroke=""none"" stroke-width=""1.5"" fill=""none"" />
    <circle cx=552.74 cy=583.9741379991941 r=18.701920596066795 stroke=""none"" stroke-width=""1.5"" fill=""none"" />
    <circle cx=493.7658620008059 cy=525 r=18.701920596066795 stroke=""none"" stroke-width=""1.5"" fill=""none"" />
    <circle cx=552.74 cy=466.0258620008059 r=18.701920596066795 stroke=""none"" stroke-width=""1.5"" fill=""none"" />
    <polygon points = ""552.74,525 558.0007567540706,543.7019205960668 547.4792432459294,543.7019205960668"" stroke=""none"" stroke-width=""3"" fill = ""none"" />
    
    </svg>
    </div>
        ","","","","","","","","","","","","","","","","","","","","","","","","","","","","",""
"html-keyboard-response","92","245816","0.0-92.0","null","null","","
    <div style="" display: block;  position: relative;"">
    <svg width=1680 height=1050>
    
    <circle cx=777 cy=525 r=13.091344417246756 stroke=""black"" stroke-width=""1"" fill=""black"" />
    <circle cx=552.74 cy=525 r=18.701920596066795 stroke=""black"" stroke-width=""1.5"" fill=""none"" />
    <circle cx=606.3528527265402 cy=525 r=18.701920596066795 stroke=""black"" stroke-width=""1.5"" fill=""none"" />
    <circle cx=552.74 cy=578.6128527265402 r=18.701920596066795 stroke=""black"" stroke-width=""1.5"" fill=""none"" />
    <circle cx=499.12714727345985 cy=525 r=18.701920596066795 stroke=""black"" stroke-width=""1.5"" fill=""none"" />
    <circle cx=552.74 cy=471.38714727345985 r=18.701920596066795 stroke=""black"" stroke-width=""1.5"" fill=""none"" />
    <polygon points = ""552.74,525 558.0007567540706,506.29807940393323 547.4792432459294,506.29807940393323"" stroke=""white"" stroke-width=""3"" fill = ""white"" />
    
    </svg>
    </div>
        ","","","","","","","","","","","","stimulus","","","","","","","","","","","","","","","","",""
"html-keyboard-response","93","246451","0.0-93.0","634.5","arrowdown","","
    <div style="" display: block;  position: relative;"">
    
    <svg width=1680 height=1050>
    <circle cx=777 cy=525 r=13.091344417246756 stroke=""black"" stroke-width=""1"" fill=""black"" />
    <circle cx=606.3528527265402 cy=525 r=18.701920596066795 stroke=""none"" stroke-width=""1.5"" fill=""none"" />
    <circle cx=552.74 cy=578.6128527265402 r=18.701920596066795 stroke=""none"" stroke-width=""1.5"" fill=""none"" />
    <circle cx=499.12714727345985 cy=525 r=18.701920596066795 stroke=""none"" stroke-width=""1.5"" fill=""none"" />
    <circle cx=552.74 cy=471.38714727345985 r=18.701920596066795 stroke=""none"" stroke-width=""1.5"" fill=""none"" />
    <polygon points = ""552.74,525 558.0007567540706,506.29807940393323 547.4792432459294,506.29807940393323"" stroke=""none"" stroke-width=""3"" fill = ""none"" />
    
    </svg>
    </div>
        ","","","","","","","","","","","","get_response","false","oMWDYncip3E1svzk","","","true","true","false","224.26","6","424.004","53.612852726540126","1.43","1","0","","",""
"html-keyboard-response","94","246954","0.0-94.0","null","null","","
    <div style="" display: block;  position: relative;"">
    
    <svg width=1680 height=1050>
    <circle cx=777 cy=525 r=13.091344417246756 stroke=""black"" stroke-width=""1"" fill=""black"" />
    <circle cx=606.3528527265402 cy=525 r=18.701920596066795 stroke=""none"" stroke-width=""1.5"" fill=""none"" />
    <circle cx=552.74 cy=578.6128527265402 r=18.701920596066795 stroke=""none"" stroke-width=""1.5"" fill=""none"" />
    <circle cx=499.12714727345985 cy=525 r=18.701920596066795 stroke=""none"" stroke-width=""1.5"" fill=""none"" />
    <circle cx=552.74 cy=471.38714727345985 r=18.701920596066795 stroke=""none"" stroke-width=""1.5"" fill=""none"" />
    <polygon points = ""552.74,525 558.0007567540706,506.29807940393323 547.4792432459294,506.29807940393323"" stroke=""none"" stroke-width=""3"" fill = ""none"" />
    
    </svg>
    </div>
        ","","","","","","","","","","","","","","","","","","","","","","","","","","","","",""
"html-keyboard-response","95","247109","0.0-95.0","null","null","","
    <div style="" display: block;  position: relative;"">
    <svg width=1680 height=1050>
    
    <circle cx=777 cy=525 r=13.091344417246756 stroke=""black"" stroke-width=""1"" fill=""black"" />
    <circle cx=1001.26 cy=525 r=18.701920596066795 stroke=""black"" stroke-width=""1.5"" fill=""none"" />
    <circle cx=1070.9567085445021 cy=525 r=18.701920596066795 stroke=""black"" stroke-width=""1.5"" fill=""none"" />
    <circle cx=1001.26 cy=594.6967085445021 r=18.701920596066795 stroke=""black"" stroke-width=""1.5"" fill=""none"" />
    <circle cx=931.5632914554978 cy=525 r=18.701920596066795 stroke=""black"" stroke-width=""1.5"" fill=""none"" />
    <circle cx=1001.26 cy=455.30329145549786 r=18.701920596066795 stroke=""black"" stroke-width=""1.5"" fill=""none"" />
    <polygon points = ""1001.26,525 1006.5207567540706,506.29807940393323 995.9992432459294,506.29807940393323"" stroke=""white"" stroke-width=""3"" fill = ""white"" />
    
    </svg>
    </div>
        ","","","","","","","","","","","","stimulus","","","","","","","","","","","","","","","","",""
"html-keyboard-response","96","247419","0.0-96.0","309.30000000074506","arrowup","","
    <div style="" display: block;  position: relative;"">
    
    <svg width=1680 height=1050>
    <circle cx=777 cy=525 r=13.091344417246756 stroke=""black"" stroke-width=""1"" fill=""black"" />
    <circle cx=1070.9567085445021 cy=525 r=18.701920596066795 stroke=""none"" stroke-width=""1.5"" fill=""none"" />
    <circle cx=1001.26 cy=594.6967085445021 r=18.701920596066795 stroke=""none"" stroke-width=""1.5"" fill=""none"" />
    <circle cx=931.5632914554978 cy=525 r=18.701920596066795 stroke=""none"" stroke-width=""1.5"" fill=""none"" />
    <circle cx=1001.26 cy=455.30329145549786 r=18.701920596066795 stroke=""none"" stroke-width=""1.5"" fill=""none"" />
    <polygon points = ""1001.26,525 1006.5207567540706,506.29807940393323 995.9992432459294,506.29807940393323"" stroke=""none"" stroke-width=""3"" fill = ""none"" />
    
    </svg>
    </div>
