"trial_type","trial_index","time_elapsed","internal_node_id","rt","response","success","stimulus","start_time","start_time_unix","item_width_mm","item_height_mm","item_width_px","px2mm","view_dist_mm","item_width_deg","px2deg","win_width_deg","win_height_deg","trialType","correct","participantID","criticalSpacing","criticalSpacing_deg","isLeft","isUp","isEccen4","eccentricity","eccentricity_deg","viewingDistanceMean","critical_spacing","critical_spacing_deg","crowding_session","correctRate","viewDistance_1","viewDistance_2","viewDistance_3"
"pavlovia","0","2","0.0-0.0","","","","","","","","","","","","","","","","","","","","","","","","","","","","","","","","",""
"survey-text","1","242545","0.0-1.0","242530.69999999925","{""Q0"":""""}","","","","","","","","","","","","","","","","","","","","","","","","","","","","","","",""
"fullscreen","2","245512","0.0-2.0","","","true","","","","","","","","","","","","","","","","","","","","","","","","","","","","","",""
"html-keyboard-response","3","247128","0.0-3.0","1614.2999999988824","enter","","<h1>Consent Form</h1>
       <p>By answering the following questions, you are participating in a study being performed by cognitive scientists in the Stanford Department of Psychology. If you have questions about this research, please contact us at stanfordpsych251@gmail.com. You must be at least 18 years old to participate. Your participation in this research is voluntary. You may decline to answer any or all of the following questions. You may decline further participation by closing the window, at any time, without adverse consequences. Your anonymity is assured; the researchers who have requested your participation will not receive any personal information about you.</p>
       <p>Press <b>any key</b> to start the experiment!</p>","","","","","","","","","","","","","","","","","","","","","","","","","","","","",""
"html-keyboard-response","4","249135","0.0-4.0","2006.7999999988824","enter","","<h1>Welcome to the Visual Crowding Experiment!</h1>
       <p>This test will take <b>10-12</b> minutes to complete.</p>
       <p>Press any key to start the experiment!</p>","01/12/2021, 06:05:33","1638338733623","","","","","","","","","","","","","","","","","","","","","","","","","","",""
"html-keyboard-response","5","271192","0.0-5.0","22055.599999999627","arrowdown","","<div> 
<p> Before you begin this study, let&#39;s quickly test how far away you are sitting. You might know that vision tests at a doctor&#39;s practice often involve chinrests, the doctor basically asks you to sit away from a screen in a specific distance. We do this here with a <b>virtual chinrest</b>. </p>
<p> Please press the <b>down</b> arrow to continue.
</p>
</div>","","","","","","","","","","","","","","","","","","","","","","","","","","","","",""
"virtual-chinrest","6","334048","0.0-6.0","62855.5","","","","","","85.6","53.98","270","3.15","619.64","7.902558215083145","34.16615134636616","56.195969529480145","31.610232860332584","","","","","","","","","","","","","","","","","",""
"html-keyboard-response","7","363000","0.0-7.0","28950.400000000373","arrowdown","","
	<h2 class=""bolded-blue"">Now, you will take a peripheral vision test!</h2>
<p> 
	<b>
		<font size=""140%"">1. </font>
	</b>
	<em><b>Please use both eyes for the following task.</b></em> First, you will see a screen (like the one in the image below) showing a <b>black dot</b> in the middle of the screen, with a group of circles displayed on either the <span class=""bolded-blue"">left</span> or <span class=""bolded-blue"">right</span> of the black dot for 150 ms. <span class=""bolded-blue"">Please make sure to focus on the black dot all the time!</span>

	<div>
		<img src=""example.png"" alt=""example"" style=""border: 2px solid black"" width=""600""/> 
	</div>
	
	<b>
		<font size=""140%"">2. </font>
	</b>
	Your task is to identify whether the opening of the <b class=""bolded-blue"">center circle</b> is upward by pressing UP or downward by pressing DOWN on your keyboard. The opening of the circle will only be upward or downward, not towards left or right.

	<div>
		<img src=""arrow_keys+.png"" alt=""arrows"" style=""border: 2px solid black"" width=""600""/>
	</div>
	<br>

<p>Please press the <b>down</b> arrow key to start the <span class=""bolded-blue"">practice task</span> (this first practice task will not count toward your final results).</p>
</p>
","","","","","","","","","","","","","","","","","","","","","","","","","","","","",""
"html-keyboard-response","8","363509","0.0-8.0","null","null","","
    <div style="" display: block;  position: relative;"">
    
    <svg width=1920 height=1080>
    <circle cx=897 cy=540 r=12.011560580443106 stroke=""black"" stroke-width=""1"" fill=""black"" />
    <circle cx=NaN cy=540 r=17.159372257775868 stroke=""none"" stroke-width=""1.5"" fill=""none"" />
    <circle cx=759.55 cy=NaN r=17.159372257775868 stroke=""none"" stroke-width=""1.5"" fill=""none"" />
    <circle cx=NaN cy=540 r=17.159372257775868 stroke=""none"" stroke-width=""1.5"" fill=""none"" />
    <circle cx=759.55 cy=NaN r=17.159372257775868 stroke=""none"" stroke-width=""1.5"" fill=""none"" />
    <polygon points = ""759.55,540 764.3768456192511,557.1593722577759 754.7231543807488,557.1593722577759"" stroke=""none"" stroke-width=""3"" fill = ""none"" />
    
    </svg>
    </div>
        ","","","","","","","","","","","","","","","","","","","","","","","","","","","","",""
"html-keyboard-response","9","363667","0.0-9.0","null","null","","
    <div style="" display: block;  position: relative;"">
    <svg width=1920 height=1080>
    
    <circle cx=897 cy=540 r=12.011560580443106 stroke=""black"" stroke-width=""1"" fill=""black"" />
    <circle cx=1034.45 cy=540 r=17.159372257775868 stroke=""black"" stroke-width=""1.5"" fill=""none"" />
    <circle cx=1123.7925 cy=540 r=17.159372257775868 stroke=""black"" stroke-width=""1.5"" fill=""none"" />
    <circle cx=1034.45 cy=629.3425 r=17.159372257775868 stroke=""black"" stroke-width=""1.5"" fill=""none"" />
    <circle cx=945.1075000000001 cy=540 r=17.159372257775868 stroke=""black"" stroke-width=""1.5"" fill=""none"" />
    <circle cx=1034.45 cy=450.6575 r=17.159372257775868 stroke=""black"" stroke-width=""1.5"" fill=""none"" />
    <polygon points = ""1034.45,540 1039.2768456192512,557.1593722577759 1029.623154380749,557.1593722577759"" stroke=""white"" stroke-width=""3"" fill = ""white"" />
    
    </svg>
    </div>
        ","","","","","","","","","","","","stimulus","","","","","","","","","","","","","","","","",""
"html-keyboard-response","10","365272","0.0-10.0","1604.5999999996275","arrowdown","","
    <div style="" display: block;  position: relative;"">
    
    <svg width=1920 height=1080>
    <circle cx=897 cy=540 r=12.011560580443106 stroke=""black"" stroke-width=""1"" fill=""black"" />
    <circle cx=1123.7925 cy=540 r=17.159372257775868 stroke=""none"" stroke-width=""1.5"" fill=""none"" />
    <circle cx=1034.45 cy=629.3425 r=17.159372257775868 stroke=""none"" stroke-width=""1.5"" fill=""none"" />
    <circle cx=945.1075000000001 cy=540 r=17.159372257775868 stroke=""none"" stroke-width=""1.5"" fill=""none"" />
    <circle cx=1034.45 cy=450.6575 r=17.159372257775868 stroke=""none"" stroke-width=""1.5"" fill=""none"" />
    <polygon points = ""1034.45,540 1039.2768456192512,557.1593722577759 1029.623154380749,557.1593722577759"" stroke=""none"" stroke-width=""3"" fill = ""none"" />
    
    </svg>
    </div>
        ","","","","","","","","","","","","practice_get_response","true","n9L7oQJYn3Efl4fX","89.3425","2.6","false","false","true","137.45","4","626.156","","","","","","",""
"html-keyboard-response","11","365786","0.0-11.0","null","null","","
    <div style="" display: block;  position: relative;"">
    
    <svg width=1920 height=1080>
    <circle cx=897 cy=540 r=12.011560580443106 stroke=""black"" stroke-width=""1"" fill=""black"" />
    <circle cx=1123.7925 cy=540 r=17.159372257775868 stroke=""none"" stroke-width=""1.5"" fill=""none"" />
    <circle cx=1034.45 cy=629.3425 r=17.159372257775868 stroke=""none"" stroke-width=""1.5"" fill=""none"" />
    <circle cx=945.1075000000001 cy=540 r=17.159372257775868 stroke=""none"" stroke-width=""1.5"" fill=""none"" />
    <circle cx=1034.45 cy=450.6575 r=17.159372257775868 stroke=""none"" stroke-width=""1.5"" fill=""none"" />
    <polygon points = ""1034.45,540 1039.2768456192512,557.1593722577759 1029.623154380749,557.1593722577759"" stroke=""none"" stroke-width=""3"" fill = ""none"" />
    
    </svg>
    </div>
        ","","","","","","","","","","","","","","","","","","","","","","","","","","","","",""
"html-keyboard-response","12","365946","0.0-12.0","null","null","","
    <div style="" display: block;  position: relative;"">
    <svg width=1920 height=1080>
    
    <circle cx=897 cy=540 r=12.011560580443106 stroke=""black"" stroke-width=""1"" fill=""black"" />
    <circle cx=759.55 cy=540 r=17.159372257775868 stroke=""black"" stroke-width=""1.5"" fill=""none"" />
    <circle cx=848.8924999999999 cy=540 r=17.159372257775868 stroke=""black"" stroke-width=""1.5"" fill=""none"" />
    <circle cx=759.55 cy=629.3425 r=17.159372257775868 stroke=""black"" stroke-width=""1.5"" fill=""none"" />
    <circle cx=670.2075 cy=540 r=17.159372257775868 stroke=""black"" stroke-width=""1.5"" fill=""none"" />
    <circle cx=759.55 cy=450.6575 r=17.159372257775868 stroke=""black"" stroke-width=""1.5"" fill=""none"" />
    <polygon points = ""759.55,540 764.3768456192511,522.8406277422241 754.7231543807488,522.8406277422241"" stroke=""white"" stroke-width=""3"" fill = ""white"" />
    
    </svg>
    </div>
        ","","","","","","","","","","","","stimulus","","","","","","","","","","","","","","","","",""
"html-keyboard-response","13","366576","0.0-13.0","629.5999999996275","arrowup","","
    <div style="" display: block;  position: relative;"">
    
    <svg width=1920 height=1080>
    <circle cx=897 cy=540 r=12.011560580443106 stroke=""black"" stroke-width=""1"" fill=""black"" />
    <circle cx=848.8924999999999 cy=540 r=17.159372257775868 stroke=""none"" stroke-width=""1.5"" fill=""none"" />
    <circle cx=759.55 cy=629.3425 r=17.159372257775868 stroke=""none"" stroke-width=""1.5"" fill=""none"" />
    <circle cx=670.2075 cy=540 r=17.159372257775868 stroke=""none"" stroke-width=""1.5"" fill=""none"" />
    <circle cx=759.55 cy=450.6575 r=17.159372257775868 stroke=""none"" stroke-width=""1.5"" fill=""none"" />
    <polygon points = ""759.55,540 764.3768456192511,522.8406277422241 754.7231543807488,522.8406277422241"" stroke=""none"" stroke-width=""3"" fill = ""none"" />
    
    </svg>
    </div>
        ","","","","","","","","","","","","practice_get_response","true","n9L7oQJYn3Efl4fX","89.3425","2.6","true","true","true","137.45","4","626.156","","","","","","",""
"html-keyboard-response","14","367088","0.0-14.0","null","null","","
    <div style="" display: block;  position: relative;"">
    
    <svg width=1920 height=1080>
    <circle cx=897 cy=540 r=12.011560580443106 stroke=""black"" stroke-width=""1"" fill=""black"" />
    <circle cx=848.8924999999999 cy=540 r=17.159372257775868 stroke=""none"" stroke-width=""1.5"" fill=""none"" />
    <circle cx=759.55 cy=629.3425 r=17.159372257775868 stroke=""none"" stroke-width=""1.5"" fill=""none"" />
    <circle cx=670.2075 cy=540 r=17.159372257775868 stroke=""none"" stroke-width=""1.5"" fill=""none"" />
    <circle cx=759.55 cy=450.6575 r=17.159372257775868 stroke=""none"" stroke-width=""1.5"" fill=""none"" />
    <polygon points = ""759.55,540 764.3768456192511,522.8406277422241 754.7231543807488,522.8406277422241"" stroke=""none"" stroke-width=""3"" fill = ""none"" />
    
    </svg>
    </div>
        ","","","","","","","","","","","","","","","","","","","","","","","","","","","","",""
"html-keyboard-response","15","367247","0.0-15.0","null","null","","
    <div style="" display: block;  position: relative;"">
    <svg width=1920 height=1080>
    
    <circle cx=897 cy=540 r=12.011560580443106 stroke=""black"" stroke-width=""1"" fill=""black"" />
    <circle cx=1034.45 cy=540 r=17.159372257775868 stroke=""black"" stroke-width=""1.5"" fill=""none"" />
    <circle cx=1123.7925 cy=540 r=17.159372257775868 stroke=""black"" stroke-width=""1.5"" fill=""none"" />
    <circle cx=1034.45 cy=629.3425 r=17.159372257775868 stroke=""black"" stroke-width=""1.5"" fill=""none"" />
    <circle cx=945.1075000000001 cy=540 r=17.159372257775868 stroke=""black"" stroke-width=""1.5"" fill=""none"" />
    <circle cx=1034.45 cy=450.6575 r=17.159372257775868 stroke=""black"" stroke-width=""1.5"" fill=""none"" />
    <polygon points = ""1034.45,540 1039.2768456192512,557.1593722577759 1029.623154380749,557.1593722577759"" stroke=""white"" stroke-width=""3"" fill = ""white"" />
    
    </svg>
    </div>
        ","","","","","","","","","","","","stimulus","","","","","","","","","","","","","","","","",""
"html-keyboard-response","16","367808","0.0-16.0","559.5999999996275","arrowdown","","
    <div style="" display: block;  position: relative;"">
    
    <svg width=1920 height=1080>
    <circle cx=897 cy=540 r=12.011560580443106 stroke=""black"" stroke-width=""1"" fill=""black"" />
    <circle cx=1123.7925 cy=540 r=17.159372257775868 stroke=""none"" stroke-width=""1.5"" fill=""none"" />
    <circle cx=1034.45 cy=629.3425 r=17.159372257775868 stroke=""none"" stroke-width=""1.5"" fill=""none"" />
    <circle cx=945.1075000000001 cy=540 r=17.159372257775868 stroke=""none"" stroke-width=""1.5"" fill=""none"" />
    <circle cx=1034.45 cy=450.6575 r=17.159372257775868 stroke=""none"" stroke-width=""1.5"" fill=""none"" />
    <polygon points = ""1034.45,540 1039.2768456192512,557.1593722577759 1029.623154380749,557.1593722577759"" stroke=""none"" stroke-width=""3"" fill = ""none"" />
    
    </svg>
    </div>
        ","","","","","","","","","","","","practice_get_response","true","n9L7oQJYn3Efl4fX","89.3425","2.6","false","false","true","137.45","4","626.156","","","","","","",""
"html-keyboard-response","17","368323","0.0-17.0","null","null","","
    <div style="" display: block;  position: relative;"">
    
    <svg width=1920 height=1080>
    <circle cx=897 cy=540 r=12.011560580443106 stroke=""black"" stroke-width=""1"" fill=""black"" />
    <circle cx=1123.7925 cy=540 r=17.159372257775868 stroke=""none"" stroke-width=""1.5"" fill=""none"" />
    <circle cx=1034.45 cy=629.3425 r=17.159372257775868 stroke=""none"" stroke-width=""1.5"" fill=""none"" />
    <circle cx=945.1075000000001 cy=540 r=17.159372257775868 stroke=""none"" stroke-width=""1.5"" fill=""none"" />
    <circle cx=1034.45 cy=450.6575 r=17.159372257775868 stroke=""none"" stroke-width=""1.5"" fill=""none"" />
    <polygon points = ""1034.45,540 1039.2768456192512,557.1593722577759 1029.623154380749,557.1593722577759"" stroke=""none"" stroke-width=""3"" fill = ""none"" />
    
    </svg>
    </div>
        ","","","","","","","","","","","","","","","","","","","","","","","","","","","","",""
"html-keyboard-response","18","368480","0.0-18.0","null","null","","
    <div style="" display: block;  position: relative;"">
    <svg width=1920 height=1080>
    
    <circle cx=897 cy=540 r=12.011560580443106 stroke=""black"" stroke-width=""1"" fill=""black"" />
    <circle cx=1034.45 cy=540 r=17.159372257775868 stroke=""black"" stroke-width=""1.5"" fill=""none"" />
    <circle cx=1115.6704545454545 cy=540 r=17.159372257775868 stroke=""black"" stroke-width=""1.5"" fill=""none"" />
    <circle cx=1034.45 cy=621.2204545454546 r=17.159372257775868 stroke=""black"" stroke-width=""1.5"" fill=""none"" />
    <circle cx=953.2295454545455 cy=540 r=17.159372257775868 stroke=""black"" stroke-width=""1.5"" fill=""none"" />
    <circle cx=1034.45 cy=458.7795454545454 r=17.159372257775868 stroke=""black"" stroke-width=""1.5"" fill=""none"" />
    <polygon points = ""1034.45,540 1039.2768456192512,557.1593722577759 1029.623154380749,557.1593722577759"" stroke=""white"" stroke-width=""3"" fill = ""white"" />
    
    </svg>
    </div>
        ","","","","","","","","","","","","stimulus","","","","","","","","","","","","","","","","",""
"html-keyboard-response","19","368928","0.0-19.0","447.5","arrowdown","","
    <div style="" display: block;  position: relative;"">
    
    <svg width=1920 height=1080>
    <circle cx=897 cy=540 r=12.011560580443106 stroke=""black"" stroke-width=""1"" fill=""black"" />
    <circle cx=1115.6704545454545 cy=540 r=17.159372257775868 stroke=""none"" stroke-width=""1.5"" fill=""none"" />
    <circle cx=1034.45 cy=621.2204545454546 r=17.159372257775868 stroke=""none"" stroke-width=""1.5"" fill=""none"" />
    <circle cx=953.2295454545455 cy=540 r=17.159372257775868 stroke=""none"" stroke-width=""1.5"" fill=""none"" />
    <circle cx=1034.45 cy=458.7795454545454 r=17.159372257775868 stroke=""none"" stroke-width=""1.5"" fill=""none"" />
    <polygon points = ""1034.45,540 1039.2768456192512,557.1593722577759 1029.623154380749,557.1593722577759"" stroke=""none"" stroke-width=""3"" fill = ""none"" />
    
    </svg>
    </div>
        ","","","","","","","","","","","","practice_get_response","true","n9L7oQJYn3Efl4fX","81.22045454545454","2.36","false","false","true","137.45","4","626.156","","","","","","",""
"html-keyboard-response","20","369434","0.0-20.0","null","null","","
    <div style="" display: block;  position: relative;"">
    
    <svg width=1920 height=1080>
    <circle cx=897 cy=540 r=12.011560580443106 stroke=""black"" stroke-width=""1"" fill=""black"" />
    <circle cx=1115.6704545454545 cy=540 r=17.159372257775868 stroke=""none"" stroke-width=""1.5"" fill=""none"" />
    <circle cx=1034.45 cy=621.2204545454546 r=17.159372257775868 stroke=""none"" stroke-width=""1.5"" fill=""none"" />
    <circle cx=953.2295454545455 cy=540 r=17.159372257775868 stroke=""none"" stroke-width=""1.5"" fill=""none"" />
    <circle cx=1034.45 cy=458.7795454545454 r=17.159372257775868 stroke=""none"" stroke-width=""1.5"" fill=""none"" />
    <polygon points = ""1034.45,540 1039.2768456192512,557.1593722577759 1029.623154380749,557.1593722577759"" stroke=""none"" stroke-width=""3"" fill = ""none"" />
    
    </svg>
    </div>
        ","","","","","","","","","","","","","","","","","","","","","","","","","","","","",""
"html-keyboard-response","21","369593","0.0-21.0","null","null","","
    <div style="" display: block;  position: relative;"">
    <svg width=1920 height=1080>
    
    <circle cx=897 cy=540 r=12.011560580443106 stroke=""black"" stroke-width=""1"" fill=""black"" />
    <circle cx=1034.45 cy=540 r=17.159372257775868 stroke=""black"" stroke-width=""1.5"" fill=""none"" />
    <circle cx=1108.2867768595042 cy=540 r=17.159372257775868 stroke=""black"" stroke-width=""1.5"" fill=""none"" />
    <circle cx=1034.45 cy=613.8367768595041 r=17.159372257775868 stroke=""black"" stroke-width=""1.5"" fill=""none"" />
    <circle cx=960.613223140496 cy=540 r=17.159372257775868 stroke=""black"" stroke-width=""1.5"" fill=""none"" />
    <circle cx=1034.45 cy=466.16322314049586 r=17.159372257775868 stroke=""black"" stroke-width=""1.5"" fill=""none"" />
    <polygon points = ""1034.45,540 1039.2768456192512,557.1593722577759 1029.623154380749,557.1593722577759"" stroke=""white"" stroke-width=""3"" fill = ""white"" />
    
    </svg>
    </div>
        ","","","","","","","","","","","","stimulus","","","","","","","","","","","","","","","","",""
"html-keyboard-response","22","370256","0.0-22.0","662.5999999996275","arrowdown","","
    <div style="" display: block;  position: relative;"">
    
    <svg width=1920 height=1080>
    <circle cx=897 cy=540 r=12.011560580443106 stroke=""black"" stroke-width=""1"" fill=""black"" />
    <circle cx=1108.2867768595042 cy=540 r=17.159372257775868 stroke=""none"" stroke-width=""1.5"" fill=""none"" />
    <circle cx=1034.45 cy=613.8367768595041 r=17.159372257775868 stroke=""none"" stroke-width=""1.5"" fill=""none"" />
    <circle cx=960.613223140496 cy=540 r=17.159372257775868 stroke=""none"" stroke-width=""1.5"" fill=""none"" />
    <circle cx=1034.45 cy=466.16322314049586 r=17.159372257775868 stroke=""none"" stroke-width=""1.5"" fill=""none"" />
    <polygon points = ""1034.45,540 1039.2768456192512,557.1593722577759 1029.623154380749,557.1593722577759"" stroke=""none"" stroke-width=""3"" fill = ""none"" />
    
    </svg>
    </div>
        ","","","","","","","","","","","","practice_get_response","true","n9L7oQJYn3Efl4fX","73.83677685950413","2.15","false","false","true","137.45","4","626.156","","","","","","",""
"html-keyboard-response","23","375176","0.0-23.0","4919.700000001118","arrowdown","","<div> 
<h2 class=""bolded-blue"">Well done!</h2>
<p> Now that you have the hang of it, we&#39;ll start the study. This session has 25 trials and takes about 2 minute to complete. </p> 
<p>If you are ready for the real deal, please press the <b>down</b> arrow to continue.
</p>
</div>","","","","","","","","","","","","","","","","","","","","","","","","","","","","",""
"html-keyboard-response","24","382008","0.0-24.0","6830.9000000003725","arrowdown","","<div id=""continue""> 
<p>Again, please keep the <b>full screen</b> mode for the best experience.</p>
<p>Please do not move around and keep your eye on the black dot. Click <b>up</b> or <b>down</b> key on your keyboard to indicate the opening of the center circle. Make your best guess!</p>
<p>Please press the <b>down</b> arrow key to start the session 1. </p>
</div>","","","","","","","","","","","","","","","","","","","","","","","","","","","","",""
"html-keyboard-response","25","382513","0.0-25.0","null","null","","
    <div style="" display: block;  position: relative;"">
    
    <svg width=1920 height=1080>
    <circle cx=897 cy=540 r=12.011560580443106 stroke=""black"" stroke-width=""1"" fill=""black"" />
    <circle cx=833.386776859504 cy=540 r=17.159372257775868 stroke=""none"" stroke-width=""1.5"" fill=""none"" />
    <circle cx=759.55 cy=613.8367768595041 r=17.159372257775868 stroke=""none"" stroke-width=""1.5"" fill=""none"" />
    <circle cx=685.7132231404959 cy=540 r=17.159372257775868 stroke=""none"" stroke-width=""1.5"" fill=""none"" />
    <circle cx=759.55 cy=466.16322314049586 r=17.159372257775868 stroke=""none"" stroke-width=""1.5"" fill=""none"" />
    <polygon points = ""759.55,540 764.3768456192511,557.1593722577759 754.7231543807488,557.1593722577759"" stroke=""none"" stroke-width=""3"" fill = ""none"" />
    
    </svg>
    </div>
        ","","","","","","","","","","","","","","","","","","","","","","","","","","","","",""
"html-keyboard-response","26","382671","0.0-26.0","null","null","","
    <div style="" display: block;  position: relative;"">
    <svg width=1920 height=1080>
    
    <circle cx=897 cy=540 r=12.011560580443106 stroke=""black"" stroke-width=""1"" fill=""black"" />
    <circle cx=1034.45 cy=540 r=17.159372257775868 stroke=""black"" stroke-width=""1.5"" fill=""none"" />
    <circle cx=1123.7925 cy=540 r=17.159372257775868 stroke=""black"" stroke-width=""1.5"" fill=""none"" />
    <circle cx=1034.45 cy=629.3425 r=17.159372257775868 stroke=""black"" stroke-width=""1.5"" fill=""none"" />
    <circle cx=945.1075000000001 cy=540 r=17.159372257775868 stroke=""black"" stroke-width=""1.5"" fill=""none"" />
    <circle cx=1034.45 cy=450.6575 r=17.159372257775868 stroke=""black"" stroke-width=""1.5"" fill=""none"" />
    <polygon points = ""1034.45,540 1039.2768456192512,557.1593722577759 1029.623154380749,557.1593722577759"" stroke=""white"" stroke-width=""3"" fill = ""white"" />
    
    </svg>
    </div>
        ","","","","","","","","","","","","stimulus","","","","","","","","","","","","","","","","",""
"html-keyboard-response","27","383272","0.0-27.0","600.5","arrowdown","","
    <div style="" display: block;  position: relative;"">
    
    <svg width=1920 height=1080>
    <circle cx=897 cy=540 r=12.011560580443106 stroke=""black"" stroke-width=""1"" fill=""black"" />
    <circle cx=1123.7925 cy=540 r=17.159372257775868 stroke=""none"" stroke-width=""1.5"" fill=""none"" />
    <circle cx=1034.45 cy=629.3425 r=17.159372257775868 stroke=""none"" stroke-width=""1.5"" fill=""none"" />
    <circle cx=945.1075000000001 cy=540 r=17.159372257775868 stroke=""none"" stroke-width=""1.5"" fill=""none"" />
    <circle cx=1034.45 cy=450.6575 r=17.159372257775868 stroke=""none"" stroke-width=""1.5"" fill=""none"" />
    <polygon points = ""1034.45,540 1039.2768456192512,557.1593722577759 1029.623154380749,557.1593722577759"" stroke=""none"" stroke-width=""3"" fill = ""none"" />
    
    </svg>
    </div>
        ","","","","","","","","","","","","get_response","true","n9L7oQJYn3Efl4fX","","","false","false","true","137.45","4","626.156","89.3425","2.6","1","0","","",""
"html-keyboard-response","28","383776","0.0-28.0","null","null","","
    <div style="" display: block;  position: relative;"">
    
    <svg width=1920 height=1080>
    <circle cx=897 cy=540 r=12.011560580443106 stroke=""black"" stroke-width=""1"" fill=""black"" />
    <circle cx=1123.7925 cy=540 r=17.159372257775868 stroke=""none"" stroke-width=""1.5"" fill=""none"" />
    <circle cx=1034.45 cy=629.3425 r=17.159372257775868 stroke=""none"" stroke-width=""1.5"" fill=""none"" />
    <circle cx=945.1075000000001 cy=540 r=17.159372257775868 stroke=""none"" stroke-width=""1.5"" fill=""none"" />
    <circle cx=1034.45 cy=450.6575 r=17.159372257775868 stroke=""none"" stroke-width=""1.5"" fill=""none"" />
    <polygon points = ""1034.45,540 1039.2768456192512,557.1593722577759 1029.623154380749,557.1593722577759"" stroke=""none"" stroke-width=""3"" fill = ""none"" />
    
    </svg>
    </div>
        ","","","","","","","","","","","","","","","","","","","","","","","","","","","","",""
"html-keyboard-response","29","383933","0.0-29.0","null","null","","
    <div style="" display: block;  position: relative;"">
    <svg width=1920 height=1080>
    
    <circle cx=897 cy=540 r=12.011560580443106 stroke=""black"" stroke-width=""1"" fill=""black"" />
    <circle cx=759.55 cy=540 r=17.159372257775868 stroke=""black"" stroke-width=""1.5"" fill=""none"" />
    <circle cx=848.8924999999999 cy=540 r=17.159372257775868 stroke=""black"" stroke-width=""1.5"" fill=""none"" />
    <circle cx=759.55 cy=629.3425 r=17.159372257775868 stroke=""black"" stroke-width=""1.5"" fill=""none"" />
    <circle cx=670.2075 cy=540 r=17.159372257775868 stroke=""black"" stroke-width=""1.5"" fill=""none"" />
    <circle cx=759.55 cy=450.6575 r=17.159372257775868 stroke=""black"" stroke-width=""1.5"" fill=""none"" />
    <polygon points = ""759.55,540 764.3768456192511,557.1593722577759 754.7231543807488,557.1593722577759"" stroke=""white"" stroke-width=""3"" fill = ""white"" />
    
    </svg>
    </div>
        ","","","","","","","","","","","","stimulus","","","","","","","","","","","","","","","","",""
"html-keyboard-response","30","384592","0.0-30.0","658.2000000011176","arrowup","","
    <div style="" display: block;  position: relative;"">
    
    <svg width=1920 height=1080>
    <circle cx=897 cy=540 r=12.011560580443106 stroke=""black"" stroke-width=""1"" fill=""black"" />
    <circle cx=848.8924999999999 cy=540 r=17.159372257775868 stroke=""none"" stroke-width=""1.5"" fill=""none"" />
    <circle cx=759.55 cy=629.3425 r=17.159372257775868 stroke=""none"" stroke-width=""1.5"" fill=""none"" />
    <circle cx=670.2075 cy=540 r=17.159372257775868 stroke=""none"" stroke-width=""1.5"" fill=""none"" />
    <circle cx=759.55 cy=450.6575 r=17.159372257775868 stroke=""none"" stroke-width=""1.5"" fill=""none"" />
    <polygon points = ""759.55,540 764.3768456192511,557.1593722577759 754.7231543807488,557.1593722577759"" stroke=""none"" stroke-width=""3"" fill = ""none"" />
    
    </svg>
    </div>
        ","","","","","","","","","","","","get_response","false","n9L7oQJYn3Efl4fX","","","true","false","true","137.45","4","626.156","89.3425","2.6","1","0","","",""
"html-keyboard-response","31","385104","0.0-31.0","null","null","","
    <div style="" display: block;  position: relative;"">
    
    <svg width=1920 height=1080>
    <circle cx=897 cy=540 r=12.011560580443106 stroke=""black"" stroke-width=""1"" fill=""black"" />
    <circle cx=848.8924999999999 cy=540 r=17.159372257775868 stroke=""none"" stroke-width=""1.5"" fill=""none"" />
    <circle cx=759.55 cy=629.3425 r=17.159372257775868 stroke=""none"" stroke-width=""1.5"" fill=""none"" />
    <circle cx=670.2075 cy=540 r=17.159372257775868 stroke=""none"" stroke-width=""1.5"" fill=""none"" />
    <circle cx=759.55 cy=450.6575 r=17.159372257775868 stroke=""none"" stroke-width=""1.5"" fill=""none"" />
    <polygon points = ""759.55,540 764.3768456192511,557.1593722577759 754.7231543807488,557.1593722577759"" stroke=""none"" stroke-width=""3"" fill = ""none"" />
    
    </svg>
    </div>
        ","","","","","","","","","","","","","","","","","","","","","","","","","","","","",""
"html-keyboard-response","32","385264","0.0-32.0","null","null","","
    <div style="" display: block;  position: relative;"">
    <svg width=1920 height=1080>
    
    <circle cx=897 cy=540 r=12.011560580443106 stroke=""black"" stroke-width=""1"" fill=""black"" />
    <circle cx=1034.45 cy=540 r=17.159372257775868 stroke=""black"" stroke-width=""1.5"" fill=""none"" />
    <circle cx=1137.5812554844483 cy=540 r=17.159372257775868 stroke=""black"" stroke-width=""1.5"" fill=""none"" />
    <circle cx=1034.45 cy=643.1312554844483 r=17.159372257775868 stroke=""black"" stroke-width=""1.5"" fill=""none"" />
    <circle cx=931.3187445155518 cy=540 r=17.159372257775868 stroke=""black"" stroke-width=""1.5"" fill=""none"" />
    <circle cx=1034.45 cy=436.8687445155517 r=17.159372257775868 stroke=""black"" stroke-width=""1.5"" fill=""none"" />
    <polygon points = ""1034.45,540 1039.2768456192512,522.8406277422241 1029.623154380749,522.8406277422241"" stroke=""white"" stroke-width=""3"" fill = ""white"" />
    
    </svg>
    </div>
        ","","","","","","","","","","","","stimulus","","","","","","","","","","","","","","","","",""
"html-keyboard-response","33","385576","0.0-33.0","312","arrowup","","
    <div style="" display: block;  position: relative;"">
    
    <svg width=1920 height=1080>
    <circle cx=897 cy=540 r=12.011560580443106 stroke=""black"" stroke-width=""1"" fill=""black"" />
    <circle cx=1137.5812554844483 cy=540 r=17.159372257775868 stroke=""none"" stroke-width=""1.5"" fill=""none"" />
    <circle cx=1034.45 cy=643.1312554844483 r=17.159372257775868 stroke=""none"" stroke-width=""1.5"" fill=""none"" />
    <circle cx=931.3187445155518 cy=540 r=17.159372257775868 stroke=""none"" stroke-width=""1.5"" fill=""none"" />
    <circle cx=1034.45 cy=436.8687445155517 r=17.159372257775868 stroke=""none"" stroke-width=""1.5"" fill=""none"" />
    <polygon points = ""1034.45,540 1039.2768456192512,522.8406277422241 1029.623154380749,522.8406277422241"" stroke=""none"" stroke-width=""3"" fill = ""none"" />
    
    </svg>
    </div>
        ","","","","","","","","","","","","get_response","true","n9L7oQJYn3Efl4fX","","","false","true","true","137.45","4","626.156","103.13125548444825","3","1","0","","",""
"html-keyboard-response","34","386089","0.0-34.0","null","null","","
    <div style="" display: block;  position: relative;"">
    
    <svg width=1920 height=1080>
    <circle cx=897 cy=540 r=12.011560580443106 stroke=""black"" stroke-width=""1"" fill=""black"" />
    <circle cx=1137.5812554844483 cy=540 r=17.159372257775868 stroke=""none"" stroke-width=""1.5"" fill=""none"" />
    <circle cx=1034.45 cy=643.1312554844483 r=17.159372257775868 stroke=""none"" stroke-width=""1.5"" fill=""none"" />
    <circle cx=931.3187445155518 cy=540 r=17.159372257775868 stroke=""none"" stroke-width=""1.5"" fill=""none"" />
    <circle cx=1034.45 cy=436.8687445155517 r=17.159372257775868 stroke=""none"" stroke-width=""1.5"" fill=""none"" />
    <polygon points = ""1034.45,540 1039.2768456192512,522.8406277422241 1029.623154380749,522.8406277422241"" stroke=""none"" stroke-width=""3"" fill = ""none"" />
    
    </svg>
    </div>
        ","","","","","","","","","","","","","","","","","","","","","","","","","","","","",""
"html-keyboard-response","35","386248","0.0-35.0","null","null","","
    <div style="" display: block;  position: relative;"">
    <svg width=1920 height=1080>
    
    <circle cx=897 cy=540 r=12.011560580443106 stroke=""black"" stroke-width=""1"" fill=""black"" />
    <circle cx=1034.45 cy=540 r=17.159372257775868 stroke=""black"" stroke-width=""1.5"" fill=""none"" />
    <circle cx=1137.5812554844483 cy=540 r=17.159372257775868 stroke=""black"" stroke-width=""1.5"" fill=""none"" />
    <circle cx=1034.45 cy=643.1312554844483 r=17.159372257775868 stroke=""black"" stroke-width=""1.5"" fill=""none"" />
    <circle cx=931.3187445155518 cy=540 r=17.159372257775868 stroke=""black"" stroke-width=""1.5"" fill=""none"" />
    <circle cx=1034.45 cy=436.8687445155517 r=17.159372257775868 stroke=""black"" stroke-width=""1.5"" fill=""none"" />
    <polygon points = ""1034.45,540 1039.2768456192512,522.8406277422241 1029.623154380749,522.8406277422241"" stroke=""white"" stroke-width=""3"" fill = ""white"" />
    
    </svg>
    </div>
        ","","","","","","","","","","","","stimulus","","","","","","","","","","","","","","","","",""
"html-keyboard-response","36","386600","0.0-36.0","351.5","arrowup","","
    <div style="" display: block;  position: relative;"">
    
    <svg width=1920 height=1080>
    <circle cx=897 cy=540 r=12.011560580443106 stroke=""black"" stroke-width=""1"" fill=""black"" />
    <circle cx=1137.5812554844483 cy=540 r=17.159372257775868 stroke=""none"" stroke-width=""1.5"" fill=""none"" />
    <circle cx=1034.45 cy=643.1312554844483 r=17.159372257775868 stroke=""none"" stroke-width=""1.5"" fill=""none"" />
    <circle cx=931.3187445155518 cy=540 r=17.159372257775868 stroke=""none"" stroke-width=""1.5"" fill=""none"" />
    <circle cx=1034.45 cy=436.8687445155517 r=17.159372257775868 stroke=""none"" stroke-width=""1.5"" fill=""none"" />
    <polygon points = ""1034.45,540 1039.2768456192512,522.8406277422241 1029.623154380749,522.8406277422241"" stroke=""none"" stroke-width=""3"" fill = ""none"" />
    
    </svg>
    </div>
        ","","","","","","","","","","","","get_response","true","n9L7oQJYn3Efl4fX","","","false","true","true","137.45","4","626.156","103.13125548444825","3","1","0","","",""
"html-keyboard-response","37","387101","0.0-37.0","null","null","","
    <div style="" display: block;  position: relative;"">
    
    <svg width=1920 height=1080>
    <circle cx=897 cy=540 r=12.011560580443106 stroke=""black"" stroke-width=""1"" fill=""black"" />
    <circle cx=1137.5812554844483 cy=540 r=17.159372257775868 stroke=""none"" stroke-width=""1.5"" fill=""none"" />
    <circle cx=1034.45 cy=643.1312554844483 r=17.159372257775868 stroke=""none"" stroke-width=""1.5"" fill=""none"" />
    <circle cx=931.3187445155518 cy=540 r=17.159372257775868 stroke=""none"" stroke-width=""1.5"" fill=""none"" />
    <circle cx=1034.45 cy=436.8687445155517 r=17.159372257775868 stroke=""none"" stroke-width=""1.5"" fill=""none"" />
    <polygon points = ""1034.45,540 1039.2768456192512,522.8406277422241 1029.623154380749,522.8406277422241"" stroke=""none"" stroke-width=""3"" fill = ""none"" />
    
    </svg>
    </div>
        ","","","","","","","","","","","","","","","","","","","","","","","","","","","","",""
"html-keyboard-response","38","387261","0.0-38.0","null","null","","
    <div style="" display: block;  position: relative;"">
    <svg width=1920 height=1080>
    
    <circle cx=897 cy=540 r=12.011560580443106 stroke=""black"" stroke-width=""1"" fill=""black"" />
    <circle cx=759.55 cy=540 r=17.159372257775868 stroke=""black"" stroke-width=""1.5"" fill=""none"" />
    <circle cx=862.6812554844482 cy=540 r=17.159372257775868 stroke=""black"" stroke-width=""1.5"" fill=""none"" />
    <circle cx=759.55 cy=643.1312554844483 r=17.159372257775868 stroke=""black"" stroke-width=""1.5"" fill=""none"" />
    <circle cx=656.4187445155517 cy=540 r=17.159372257775868 stroke=""black"" stroke-width=""1.5"" fill=""none"" />
    <circle cx=759.55 cy=436.8687445155517 r=17.159372257775868 stroke=""black"" stroke-width=""1.5"" fill=""none"" />
    <polygon points = ""759.55,540 764.3768456192511,557.1593722577759 754.7231543807488,557.1593722577759"" stroke=""white"" stroke-width=""3"" fill = ""white"" />
    
    </svg>
    </div>
        ","","","","","","","","","","","","stimulus","","","","","","","","","","","","","","","","",""
"html-keyboard-response","39","387800","0.0-39.0","538.3000000007451","arrowdown","","
    <div style="" display: block;  position: relative;"">
    
    <svg width=1920 height=1080>
    <circle cx=897 cy=540 r=12.011560580443106 stroke=""black"" stroke-width=""1"" fill=""black"" />
    <circle cx=862.6812554844482 cy=540 r=17.159372257775868 stroke=""none"" stroke-width=""1.5"" fill=""none"" />
    <circle cx=759.55 cy=643.1312554844483 r=17.159372257775868 stroke=""none"" stroke-width=""1.5"" fill=""none"" />
    <circle cx=656.4187445155517 cy=540 r=17.159372257775868 stroke=""none"" stroke-width=""1.5"" fill=""none"" />
    <circle cx=759.55 cy=436.8687445155517 r=17.159372257775868 stroke=""none"" stroke-width=""1.5"" fill=""none"" />
    <polygon points = ""759.55,540 764.3768456192511,557.1593722577759 754.7231543807488,557.1593722577759"" stroke=""none"" stroke-width=""3"" fill = ""none"" />
    
    </svg>
    </div>
        ","","","","","","","","","","","","get_response","true","n9L7oQJYn3Efl4fX","","","true","false","true","137.45","4","626.156","103.13125548444825","3","1","0","","",""
"html-keyboard-response","40","388305","0.0-40.0","null","null","","
    <div style="" display: block;  position: relative;"">
    
    <svg width=1920 height=1080>
    <circle cx=897 cy=540 r=12.011560580443106 stroke=""black"" stroke-width=""1"" fill=""black"" />
    <circle cx=862.6812554844482 cy=540 r=17.159372257775868 stroke=""none"" stroke-width=""1.5"" fill=""none"" />
    <circle cx=759.55 cy=643.1312554844483 r=17.159372257775868 stroke=""none"" stroke-width=""1.5"" fill=""none"" />
    <circle cx=656.4187445155517 cy=540 r=17.159372257775868 stroke=""none"" stroke-width=""1.5"" fill=""none"" />
    <circle cx=759.55 cy=436.8687445155517 r=17.159372257775868 stroke=""none"" stroke-width=""1.5"" fill=""none"" />
    <polygon points = ""759.55,540 764.3768456192511,557.1593722577759 754.7231543807488,557.1593722577759"" stroke=""none"" stroke-width=""3"" fill = ""none"" />
    
    </svg>
    </div>
        ","","","","","","","","","","","","","","","","","","","","","","","","","","","","",""
"html-keyboard-response","41","388464","0.0-41.0","null","null","","
    <div style="" display: block;  position: relative;"">
    <svg width=1920 height=1080>
    
    <circle cx=897 cy=540 r=12.011560580443106 stroke=""black"" stroke-width=""1"" fill=""black"" />
    <circle cx=759.55 cy=540 r=17.159372257775868 stroke=""black"" stroke-width=""1.5"" fill=""none"" />
    <circle cx=853.3056868040438 cy=540 r=17.159372257775868 stroke=""black"" stroke-width=""1.5"" fill=""none"" />
    <circle cx=759.55 cy=633.7556868040439 r=17.159372257775868 stroke=""black"" stroke-width=""1.5"" fill=""none"" />
    <circle cx=665.7943131959561 cy=540 r=17.159372257775868 stroke=""black"" stroke-width=""1.5"" fill=""none"" />
    <circle cx=759.55 cy=446.2443131959561 r=17.159372257775868 stroke=""black"" stroke-width=""1.5"" fill=""none"" />
    <polygon points = ""759.55,540 764.3768456192511,557.1593722577759 754.7231543807488,557.1593722577759"" stroke=""white"" stroke-width=""3"" fill = ""white"" />
    
    </svg>
    </div>
        ","","","","","","","","","","","","stimulus","","","","","","","","","","","","","","","","",""
"html-keyboard-response","42","388968","0.0-42.0","503.5","arrowdown","","
    <div style="" display: block;  position: relative;"">
    
    <svg width=1920 height=1080>
    <circle cx=897 cy=540 r=12.011560580443106 stroke=""black"" stroke-width=""1"" fill=""black"" />
    <circle cx=853.3056868040438 cy=540 r=17.159372257775868 stroke=""none"" stroke-width=""1.5"" fill=""none"" />
    <circle cx=759.55 cy=633.7556868040439 r=17.159372257775868 stroke=""none"" stroke-width=""1.5"" fill=""none"" />
    <circle cx=665.7943131959561 cy=540 r=17.159372257775868 stroke=""none"" stroke-width=""1.5"" fill=""none"" />
    <circle cx=759.55 cy=446.2443131959561 r=17.159372257775868 stroke=""none"" stroke-width=""1.5"" fill=""none"" />
    <polygon points = ""759.55,540 764.3768456192511,557.1593722577759 754.7231543807488,557.1593722577759"" stroke=""none"" stroke-width=""3"" fill = ""none"" />
    
    </svg>
    </div>
        ","","","","","","","","","","","","get_response","true","n9L7oQJYn3Efl4fX","","","true","false","true","137.45","4","626.156","93.75568680404385","2.73","1","0","","",""
"html-keyboard-response","43","389478","0.0-43.0","null","null","","
    <div style="" display: block;  position: relative;"">
    
    <svg width=1920 height=1080>
    <circle cx=897 cy=540 r=12.011560580443106 stroke=""black"" stroke-width=""1"" fill=""black"" />
    <circle cx=853.3056868040438 cy=540 r=17.159372257775868 stroke=""none"" stroke-width=""1.5"" fill=""none"" />
    <circle cx=759.55 cy=633.7556868040439 r=17.159372257775868 stroke=""none"" stroke-width=""1.5"" fill=""none"" />
    <circle cx=665.7943131959561 cy=540 r=17.159372257775868 stroke=""none"" stroke-width=""1.5"" fill=""none"" />
    <circle cx=759.55 cy=446.2443131959561 r=17.159372257775868 stroke=""none"" stroke-width=""1.5"" fill=""none"" />
    <polygon points = ""759.55,540 764.3768456192511,557.1593722577759 754.7231543807488,557.1593722577759"" stroke=""none"" stroke-width=""3"" fill = ""none"" />
    
    </svg>
    </div>
        ","","","","","","","","","","","","","","","","","","","","","","","","","","","","",""
"html-keyboard-response","44","389637","0.0-44.0","null","null","","
    <div style="" display: block;  position: relative;"">
    <svg width=1920 height=1080>
    
    <circle cx=897 cy=540 r=12.011560580443106 stroke=""black"" stroke-width=""1"" fill=""black"" />
    <circle cx=1034.45 cy=540 r=17.159372257775868 stroke=""black"" stroke-width=""1.5"" fill=""none"" />
    <circle cx=1119.6824425491309 cy=540 r=17.159372257775868 stroke=""black"" stroke-width=""1.5"" fill=""none"" />
    <circle cx=1034.45 cy=625.2324425491307 r=17.159372257775868 stroke=""black"" stroke-width=""1.5"" fill=""none"" />
    <circle cx=949.2175574508693 cy=540 r=17.159372257775868 stroke=""black"" stroke-width=""1.5"" fill=""none"" />
    <circle cx=1034.45 cy=454.7675574508692 r=17.159372257775868 stroke=""black"" stroke-width=""1.5"" fill=""none"" />
    <polygon points = ""1034.45,540 1039.2768456192512,557.1593722577759 1029.623154380749,557.1593722577759"" stroke=""white"" stroke-width=""3"" fill = ""white"" />
    
    </svg>
    </div>
        ","","","","","","","","","","","","stimulus","","","","","","","","","","","","","","","","",""
"html-keyboard-response","45","390400","0.0-45.0","762","arrowdown","","
    <div style="" display: block;  position: relative;"">
    
    <svg width=1920 height=1080>
    <circle cx=897 cy=540 r=12.011560580443106 stroke=""black"" stroke-width=""1"" fill=""black"" />
    <circle cx=1119.6824425491309 cy=540 r=17.159372257775868 stroke=""none"" stroke-width=""1.5"" fill=""none"" />
    <circle cx=1034.45 cy=625.2324425491307 r=17.159372257775868 stroke=""none"" stroke-width=""1.5"" fill=""none"" />
    <circle cx=949.2175574508693 cy=540 r=17.159372257775868 stroke=""none"" stroke-width=""1.5"" fill=""none"" />
    <circle cx=1034.45 cy=454.7675574508692 r=17.159372257775868 stroke=""none"" stroke-width=""1.5"" fill=""none"" />
    <polygon points = ""1034.45,540 1039.2768456192512,557.1593722577759 1029.623154380749,557.1593722577759"" stroke=""none"" stroke-width=""3"" fill = ""none"" />
    
    </svg>
    </div>
        ","","","","","","","","","","","","get_response","true","n9L7oQJYn3Efl4fX","","","false","false","true","137.45","4","626.156","85.23244254913077","2.48","1","0","","",""
"html-keyboard-response","46","390906","0.0-46.0","null","null","","
    <div style="" display: block;  position: relative;"">
    
    <svg width=1920 height=1080>
    <circle cx=897 cy=540 r=12.011560580443106 stroke=""black"" stroke-width=""1"" fill=""black"" />
    <circle cx=1119.6824425491309 cy=540 r=17.159372257775868 stroke=""none"" stroke-width=""1.5"" fill=""none"" />
    <circle cx=1034.45 cy=625.2324425491307 r=17.159372257775868 stroke=""none"" stroke-width=""1.5"" fill=""none"" />
    <circle cx=949.2175574508693 cy=540 r=17.159372257775868 stroke=""none"" stroke-width=""1.5"" fill=""none"" />
    <circle cx=1034.45 cy=454.7675574508692 r=17.159372257775868 stroke=""none"" stroke-width=""1.5"" fill=""none"" />
    <polygon points = ""1034.45,540 1039.2768456192512,557.1593722577759 1029.623154380749,557.1593722577759"" stroke=""none"" stroke-width=""3"" fill = ""none"" />
    
    </svg>
    </div>
        ","","","","","","","","","","","","","","","","","","","","","","","","","","","","",""
"html-keyboard-response","47","391065","0.0-47.0","null","null","","
    <div style="" display: block;  position: relative;"">
    <svg width=1920 height=1080>
    
    <circle cx=897 cy=540 r=12.011560580443106 stroke=""black"" stroke-width=""1"" fill=""black"" />
    <circle cx=759.55 cy=540 r=17.159372257775868 stroke=""black"" stroke-width=""1.5"" fill=""none"" />
    <circle cx=837.0340386810279 cy=540 r=17.159372257775868 stroke=""black"" stroke-width=""1.5"" fill=""none"" />
    <circle cx=759.55 cy=617.484038681028 r=17.159372257775868 stroke=""black"" stroke-width=""1.5"" fill=""none"" />
    <circle cx=682.065961318972 cy=540 r=17.159372257775868 stroke=""black"" stroke-width=""1.5"" fill=""none"" />
    <circle cx=759.55 cy=462.515961318972 r=17.159372257775868 stroke=""black"" stroke-width=""1.5"" fill=""none"" />
    <polygon points = ""759.55,540 764.3768456192511,522.8406277422241 754.7231543807488,522.8406277422241"" stroke=""white"" stroke-width=""3"" fill = ""white"" />
    
    </svg>
    </div>
        ","","","","","","","","","","","","stimulus","","","","","","","","","","","","","","","","",""
"html-keyboard-response","48","391672","0.0-48.0","606.5","arrowup","","
    <div style="" display: block;  position: relative;"">
    
    <svg width=1920 height=1080>
    <circle cx=897 cy=540 r=12.011560580443106 stroke=""black"" stroke-width=""1"" fill=""black"" />
    <circle cx=837.0340386810279 cy=540 r=17.159372257775868 stroke=""none"" stroke-width=""1.5"" fill=""none"" />
    <circle cx=759.55 cy=617.484038681028 r=17.159372257775868 stroke=""none"" stroke-width=""1.5"" fill=""none"" />
    <circle cx=682.065961318972 cy=540 r=17.159372257775868 stroke=""none"" stroke-width=""1.5"" fill=""none"" />
    <circle cx=759.55 cy=462.515961318972 r=17.159372257775868 stroke=""none"" stroke-width=""1.5"" fill=""none"" />
    <polygon points = ""759.55,540 764.3768456192511,522.8406277422241 754.7231543807488,522.8406277422241"" stroke=""none"" stroke-width=""3"" fill = ""none"" />
    
    </svg>
    </div>
        ","","","","","","","","","","","","get_response","true","n9L7oQJYn3Efl4fX","","","true","true","true","137.45","4","626.156","77.48403868102797","2.25","1","0","","",""
"html-keyboard-response","49","392179","0.0-49.0","null","null","","
    <div style="" display: block;  position: relative;"">
    
    <svg width=1920 height=1080>
    <circle cx=897 cy=540 r=12.011560580443106 stroke=""black"" stroke-width=""1"" fill=""black"" />
    <circle cx=837.0340386810279 cy=540 r=17.159372257775868 stroke=""none"" stroke-width=""1.5"" fill=""none"" />
    <circle cx=759.55 cy=617.484038681028 r=17.159372257775868 stroke=""none"" stroke-width=""1.5"" fill=""none"" />
    <circle cx=682.065961318972 cy=540 r=17.159372257775868 stroke=""none"" stroke-width=""1.5"" fill=""none"" />
    <circle cx=759.55 cy=462.515961318972 r=17.159372257775868 stroke=""none"" stroke-width=""1.5"" fill=""none"" />
    <polygon points = ""759.55,540 764.3768456192511,522.8406277422241 754.7231543807488,522.8406277422241"" stroke=""none"" stroke-width=""3"" fill = ""none"" />
    
    </svg>
    </div>
        ","","","","","","","","","","","","","","","","","","","","","","","","","","","","",""
"html-keyboard-response","50","392337","0.0-50.0","null","null","","
    <div style="" display: block;  position: relative;"">
    <svg width=1920 height=1080>
    
    <circle cx=897 cy=540 r=12.011560580443106 stroke=""black"" stroke-width=""1"" fill=""black"" />
    <circle cx=1034.45 cy=540 r=17.159372257775868 stroke=""black"" stroke-width=""1.5"" fill=""none"" />
    <circle cx=1104.890035164571 cy=540 r=17.159372257775868 stroke=""black"" stroke-width=""1.5"" fill=""none"" />
    <circle cx=1034.45 cy=610.4400351645709 r=17.159372257775868 stroke=""black"" stroke-width=""1.5"" fill=""none"" />
    <circle cx=964.0099648354292 cy=540 r=17.159372257775868 stroke=""black"" stroke-width=""1.5"" fill=""none"" />
    <circle cx=1034.45 cy=469.5599648354291 r=17.159372257775868 stroke=""black"" stroke-width=""1.5"" fill=""none"" />
    <polygon points = ""1034.45,540 1039.2768456192512,522.8406277422241 1029.623154380749,522.8406277422241"" stroke=""white"" stroke-width=""3"" fill = ""white"" />
    
    </svg>
    </div>
        ","","","","","","","","","","","","stimulus","","","","","","","","","","","","","","","","",""
"html-keyboard-response","51","392728","0.0-51.0","390","arrowup","","
    <div style="" display: block;  position: relative;"">
    
    <svg width=1920 height=1080>
    <circle cx=897 cy=540 r=12.011560580443106 stroke=""black"" stroke-width=""1"" fill=""black"" />
    <circle cx=1104.890035164571 cy=540 r=17.159372257775868 stroke=""none"" stroke-width=""1.5"" fill=""none"" />
    <circle cx=1034.45 cy=610.4400351645709 r=17.159372257775868 stroke=""none"" stroke-width=""1.5"" fill=""none"" />
    <circle cx=964.0099648354292 cy=540 r=17.159372257775868 stroke=""none"" stroke-width=""1.5"" fill=""none"" />
    <circle cx=1034.45 cy=469.5599648354291 r=17.159372257775868 stroke=""none"" stroke-width=""1.5"" fill=""none"" />
    <polygon points = ""1034.45,540 1039.2768456192512,522.8406277422241 1029.623154380749,522.8406277422241"" stroke=""none"" stroke-width=""3"" fill = ""none"" />
    
    </svg>
    </div>
        ","","","","","","","","","","","","get_response","true","n9L7oQJYn3Efl4fX","","","false","true","true","137.45","4","626.156","70.44003516457087","2.05","1","0","","",""
"html-keyboard-response","52","393238","0.0-52.0","null","null","","
    <div style="" display: block;  position: relative;"">
    
    <svg width=1920 height=1080>
    <circle cx=897 cy=540 r=12.011560580443106 stroke=""black"" stroke-width=""1"" fill=""black"" />
    <circle cx=1104.890035164571 cy=540 r=17.159372257775868 stroke=""none"" stroke-width=""1.5"" fill=""none"" />
    <circle cx=1034.45 cy=610.4400351645709 r=17.159372257775868 stroke=""none"" stroke-width=""1.5"" fill=""none"" />
    <circle cx=964.0099648354292 cy=540 r=17.159372257775868 stroke=""none"" stroke-width=""1.5"" fill=""none"" />
    <circle cx=1034.45 cy=469.5599648354291 r=17.159372257775868 stroke=""none"" stroke-width=""1.5"" fill=""none"" />
    <polygon points = ""1034.45,540 1039.2768456192512,522.8406277422241 1029.623154380749,522.8406277422241"" stroke=""none"" stroke-width=""3"" fill = ""none"" />
    
    </svg>
    </div>
        ","","","","","","","","","","","","","","","","","","","","","","","","","","","","",""
"html-keyboard-response","53","393395","0.0-53.0","null","null","","
    <div style="" display: block;  position: relative;"">
    <svg width=1920 height=1080>
    
    <circle cx=897 cy=540 r=12.011560580443106 stroke=""black"" stroke-width=""1"" fill=""black"" />
    <circle cx=759.55 cy=540 r=17.159372257775868 stroke=""black"" stroke-width=""1.5"" fill=""none"" />
    <circle cx=823.5863956041553 cy=540 r=17.159372257775868 stroke=""black"" stroke-width=""1.5"" fill=""none"" />
    <circle cx=759.55 cy=604.0363956041554 r=17.159372257775868 stroke=""black"" stroke-width=""1.5"" fill=""none"" />
    <circle cx=695.5136043958446 cy=540 r=17.159372257775868 stroke=""black"" stroke-width=""1.5"" fill=""none"" />
    <circle cx=759.55 cy=475.96360439584464 r=17.159372257775868 stroke=""black"" stroke-width=""1.5"" fill=""none"" />
    <polygon points = ""759.55,540 764.3768456192511,557.1593722577759 754.7231543807488,557.1593722577759"" stroke=""white"" stroke-width=""3"" fill = ""white"" />
    
    </svg>
    </div>
        ","","","","","","","","","","","","stimulus","","","","","","","","","","","","","","","","",""
"html-keyboard-response","54","393856","0.0-54.0","459.80000000074506","arrowdown","","
    <div style="" display: block;  position: relative;"">
    
    <svg width=1920 height=1080>
    <circle cx=897 cy=540 r=12.011560580443106 stroke=""black"" stroke-width=""1"" fill=""black"" />
    <circle cx=823.5863956041553 cy=540 r=17.159372257775868 stroke=""none"" stroke-width=""1.5"" fill=""none"" />
    <circle cx=759.55 cy=604.0363956041554 r=17.159372257775868 stroke=""none"" stroke-width=""1.5"" fill=""none"" />
    <circle cx=695.5136043958446 cy=540 r=17.159372257775868 stroke=""none"" stroke-width=""1.5"" fill=""none"" />
    <circle cx=759.55 cy=475.96360439584464 r=17.159372257775868 stroke=""none"" stroke-width=""1.5"" fill=""none"" />
    <polygon points = ""759.55,540 764.3768456192511,557.1593722577759 754.7231543807488,557.1593722577759"" stroke=""none"" stroke-width=""3"" fill = ""none"" />
    
    </svg>
    </div>
        ","","","","","","","","","","","","get_response","true","n9L7oQJYn3Efl4fX","","","true","false","true","137.45","4","626.156","64.03639560415533","1.86","1","0","","",""
"html-keyboard-response","55","394368","0.0-55.0","null","null","","
    <div style="" display: block;  position: relative;"">
    
    <svg width=1920 height=1080>
    <circle cx=897 cy=540 r=12.011560580443106 stroke=""black"" stroke-width=""1"" fill=""black"" />
    <circle cx=823.5863956041553 cy=540 r=17.159372257775868 stroke=""none"" stroke-width=""1.5"" fill=""none"" />
    <circle cx=759.55 cy=604.0363956041554 r=17.159372257775868 stroke=""none"" stroke-width=""1.5"" fill=""none"" />
    <circle cx=695.5136043958446 cy=540 r=17.159372257775868 stroke=""none"" stroke-width=""1.5"" fill=""none"" />
    <circle cx=759.55 cy=475.96360439584464 r=17.159372257775868 stroke=""none"" stroke-width=""1.5"" fill=""none"" />
    <polygon points = ""759.55,540 764.3768456192511,557.1593722577759 754.7231543807488,557.1593722577759"" stroke=""none"" stroke-width=""3"" fill = ""none"" />
    
    </svg>
    </div>
        ","","","","","","","","","","","","","","","","","","","","","","","","","","","","",""
"html-keyboard-response","56","394528","0.0-56.0","null","null","","
    <div style="" display: block;  position: relative;"">
    <svg width=1920 height=1080>
    
    <circle cx=897 cy=540 r=12.011560580443106 stroke=""black"" stroke-width=""1"" fill=""black"" />
    <circle cx=1034.45 cy=540 r=17.159372257775868 stroke=""black"" stroke-width=""1.5"" fill=""none"" />
    <circle cx=1092.6649050946867 cy=540 r=17.159372257775868 stroke=""black"" stroke-width=""1.5"" fill=""none"" />
    <circle cx=1034.45 cy=598.2149050946866 r=17.159372257775868 stroke=""black"" stroke-width=""1.5"" fill=""none"" />
    <circle cx=976.2350949053134 cy=540 r=17.159372257775868 stroke=""black"" stroke-width=""1.5"" fill=""none"" />
    <circle cx=1034.45 cy=481.7850949053134 r=17.159372257775868 stroke=""black"" stroke-width=""1.5"" fill=""none"" />
    <polygon points = ""1034.45,540 1039.2768456192512,557.1593722577759 1029.623154380749,557.1593722577759"" stroke=""white"" stroke-width=""3"" fill = ""white"" />
    
    </svg>
    </div>
        ","","","","","","","","","","","","stimulus","","","","","","","","","","","","","","","","",""
"html-keyboard-response","57","394920","0.0-57.0","391.5","arrowdown","","
    <div style="" display: block;  position: relative;"">
    
    <svg width=1920 height=1080>
    <circle cx=897 cy=540 r=12.011560580443106 stroke=""black"" stroke-width=""1"" fill=""black"" />
    <circle cx=1092.6649050946867 cy=540 r=17.159372257775868 stroke=""none"" stroke-width=""1.5"" fill=""none"" />
    <circle cx=1034.45 cy=598.2149050946866 r=17.159372257775868 stroke=""none"" stroke-width=""1.5"" fill=""none"" />
    <circle cx=976.2350949053134 cy=540 r=17.159372257775868 stroke=""none"" stroke-width=""1.5"" fill=""none"" />
    <circle cx=1034.45 cy=481.7850949053134 r=17.159372257775868 stroke=""none"" stroke-width=""1.5"" fill=""none"" />
    <polygon points = ""1034.45,540 1039.2768456192512,557.1593722577759 1029.623154380749,557.1593722577759"" stroke=""none"" stroke-width=""3"" fill = ""none"" />
    
    </svg>
    </div>
        ","","","","","","","","","","","","get_response","true","n9L7oQJYn3Efl4fX","","","false","false","true","137.45","4","626.156","58.21490509468666","1.69","1","0","","",""
"html-keyboard-response","58","395433","0.0-58.0","null","null","","
    <div style="" display: block;  position: relative;"">
    
    <svg width=1920 height=1080>
    <circle cx=897 cy=540 r=12.011560580443106 stroke=""black"" stroke-width=""1"" fill=""black"" />
    <circle cx=1092.6649050946867 cy=540 r=17.159372257775868 stroke=""none"" stroke-width=""1.5"" fill=""none"" />
    <circle cx=1034.45 cy=598.2149050946866 r=17.159372257775868 stroke=""none"" stroke-width=""1.5"" fill=""none"" />
    <circle cx=976.2350949053134 cy=540 r=17.159372257775868 stroke=""none"" stroke-width=""1.5"" fill=""none"" />
    <circle cx=1034.45 cy=481.7850949053134 r=17.159372257775868 stroke=""none"" stroke-width=""1.5"" fill=""none"" />
    <polygon points = ""1034.45,540 1039.2768456192512,557.1593722577759 1029.623154380749,557.1593722577759"" stroke=""none"" stroke-width=""3"" fill = ""none"" />
    
    </svg>
    </div>
        ","","","","","","","","","","","","","","","","","","","","","","","","","","","","",""
"html-keyboard-response","59","395590","0.0-59.0","null","null","","
    <div style="" display: block;  position: relative;"">
    <svg width=1920 height=1080>
    
    <circle cx=897 cy=540 r=12.011560580443106 stroke=""black"" stroke-width=""1"" fill=""black"" />
    <circle cx=1034.45 cy=540 r=17.159372257775868 stroke=""black"" stroke-width=""1.5"" fill=""none"" />
    <circle cx=1087.3726409951698 cy=540 r=17.159372257775868 stroke=""black"" stroke-width=""1.5"" fill=""none"" />
    <circle cx=1034.45 cy=592.9226409951697 r=17.159372257775868 stroke=""black"" stroke-width=""1.5"" fill=""none"" />
    <circle cx=981.5273590048304 cy=540 r=17.159372257775868 stroke=""black"" stroke-width=""1.5"" fill=""none"" />
    <circle cx=1034.45 cy=487.0773590048303 r=17.159372257775868 stroke=""black"" stroke-width=""1.5"" fill=""none"" />
    <polygon points = ""1034.45,540 1039.2768456192512,522.8406277422241 1029.623154380749,522.8406277422241"" stroke=""white"" stroke-width=""3"" fill = ""white"" />
    
    </svg>
    </div>
        ","","","","","","","","","","","","stimulus","","","","","","","","","","","","","","","","",""
"html-keyboard-response","60","396072","0.0-60.0","481.8999999985099","arrowup","","
    <div style="" display: block;  position: relative;"">
    
    <svg width=1920 height=1080>
    <circle cx=897 cy=540 r=12.011560580443106 stroke=""black"" stroke-width=""1"" fill=""black"" />
    <circle cx=1087.3726409951698 cy=540 r=17.159372257775868 stroke=""none"" stroke-width=""1.5"" fill=""none"" />
    <circle cx=1034.45 cy=592.9226409951697 r=17.159372257775868 stroke=""none"" stroke-width=""1.5"" fill=""none"" />
    <circle cx=981.5273590048304 cy=540 r=17.159372257775868 stroke=""none"" stroke-width=""1.5"" fill=""none"" />
    <circle cx=1034.45 cy=487.0773590048303 r=17.159372257775868 stroke=""none"" stroke-width=""1.5"" fill=""none"" />
    <polygon points = ""1034.45,540 1039.2768456192512,522.8406277422241 1029.623154380749,522.8406277422241"" stroke=""none"" stroke-width=""3"" fill = ""none"" />
    
    </svg>
    </div>
        ","","","","","","","","","","","","get_response","true","n9L7oQJYn3Efl4fX","","","false","true","true","137.45","4","626.156","52.92264099516969","1.54","1","0","","",""
"html-keyboard-response","61","396575","0.0-61.0","null","null","","
    <div style="" display: block;  position: relative;"">
    
    <svg width=1920 height=1080>
    <circle cx=897 cy=540 r=12.011560580443106 stroke=""black"" stroke-width=""1"" fill=""black"" />
    <circle cx=1087.3726409951698 cy=540 r=17.159372257775868 stroke=""none"" stroke-width=""1.5"" fill=""none"" />
    <circle cx=1034.45 cy=592.9226409951697 r=17.159372257775868 stroke=""none"" stroke-width=""1.5"" fill=""none"" />
    <circle cx=981.5273590048304 cy=540 r=17.159372257775868 stroke=""none"" stroke-width=""1.5"" fill=""none"" />
    <circle cx=1034.45 cy=487.0773590048303 r=17.159372257775868 stroke=""none"" stroke-width=""1.5"" fill=""none"" />
    <polygon points = ""1034.45,540 1039.2768456192512,522.8406277422241 1029.623154380749,522.8406277422241"" stroke=""none"" stroke-width=""3"" fill = ""none"" />
    
    </svg>
    </div>
        ","","","","","","","","","","","","","","","","","","","","","","","","","","","","",""
"html-keyboard-response","62","396734","0.0-62.0","null","null","","
    <div style="" display: block;  position: relative;"">
    <svg width=1920 height=1080>
    
    <circle cx=897 cy=540 r=12.011560580443106 stroke=""black"" stroke-width=""1"" fill=""black"" />
    <circle cx=1034.45 cy=540 r=17.159372257775868 stroke=""black"" stroke-width=""1.5"" fill=""none"" />
    <circle cx=1082.5614918137908 cy=540 r=17.159372257775868 stroke=""black"" stroke-width=""1.5"" fill=""none"" />
    <circle cx=1034.45 cy=588.1114918137906 r=17.159372257775868 stroke=""black"" stroke-width=""1.5"" fill=""none"" />
    <circle cx=986.3385081862094 cy=540 r=17.159372257775868 stroke=""black"" stroke-width=""1.5"" fill=""none"" />
    <circle cx=1034.45 cy=491.8885081862094 r=17.159372257775868 stroke=""black"" stroke-width=""1.5"" fill=""none"" />
    <polygon points = ""1034.45,540 1039.2768456192512,522.8406277422241 1029.623154380749,522.8406277422241"" stroke=""white"" stroke-width=""3"" fill = ""white"" />
    
    </svg>
    </div>
        ","","","","","","","","","","","","stimulus","","","","","","","","","","","","","","","","",""
"html-keyboard-response","63","397296","0.0-63.0","561.3000000007451","arrowup","","
    <div style="" display: block;  position: relative;"">
    
    <svg width=1920 height=1080>
    <circle cx=897 cy=540 r=12.011560580443106 stroke=""black"" stroke-width=""1"" fill=""black"" />
    <circle cx=1082.5614918137908 cy=540 r=17.159372257775868 stroke=""none"" stroke-width=""1.5"" fill=""none"" />
    <circle cx=1034.45 cy=588.1114918137906 r=17.159372257775868 stroke=""none"" stroke-width=""1.5"" fill=""none"" />
    <circle cx=986.3385081862094 cy=540 r=17.159372257775868 stroke=""none"" stroke-width=""1.5"" fill=""none"" />
    <circle cx=1034.45 cy=491.8885081862094 r=17.159372257775868 stroke=""none"" stroke-width=""1.5"" fill=""none"" />
    <polygon points = ""1034.45,540 1039.2768456192512,522.8406277422241 1029.623154380749,522.8406277422241"" stroke=""none"" stroke-width=""3"" fill = ""none"" />
    
    </svg>
    </div>
        ","","","","","","","","","","","","get_response","true","n9L7oQJYn3Efl4fX","","","false","true","true","137.45","4","626.156","48.11149181379062","1.4","1","0","","",""
"html-keyboard-response","64","397811","0.0-64.0","null","null","","
    <div style="" display: block;  position: relative;"">
    
    <svg width=1920 height=1080>
    <circle cx=897 cy=540 r=12.011560580443106 stroke=""black"" stroke-width=""1"" fill=""black"" />
    <circle cx=1082.5614918137908 cy=540 r=17.159372257775868 stroke=""none"" stroke-width=""1.5"" fill=""none"" />
    <circle cx=1034.45 cy=588.1114918137906 r=17.159372257775868 stroke=""none"" stroke-width=""1.5"" fill=""none"" />
    <circle cx=986.3385081862094 cy=540 r=17.159372257775868 stroke=""none"" stroke-width=""1.5"" fill=""none"" />
    <circle cx=1034.45 cy=491.8885081862094 r=17.159372257775868 stroke=""none"" stroke-width=""1.5"" fill=""none"" />
    <polygon points = ""1034.45,540 1039.2768456192512,522.8406277422241 1029.623154380749,522.8406277422241"" stroke=""none"" stroke-width=""3"" fill = ""none"" />
    
    </svg>
    </div>
        ","","","","","","","","","","","","","","","","","","","","","","","","","","","","",""
"html-keyboard-response","65","397970","0.0-65.0","null","null","","
    <div style="" display: block;  position: relative;"">
    <svg width=1920 height=1080>
    
    <circle cx=897 cy=540 r=12.011560580443106 stroke=""black"" stroke-width=""1"" fill=""black"" />
    <circle cx=759.55 cy=540 r=17.159372257775868 stroke=""black"" stroke-width=""1.5"" fill=""none"" />
    <circle cx=803.2877198307187 cy=540 r=17.159372257775868 stroke=""black"" stroke-width=""1.5"" fill=""none"" />
    <circle cx=759.55 cy=583.7377198307188 r=17.159372257775868 stroke=""black"" stroke-width=""1.5"" fill=""none"" />
    <circle cx=715.8122801692812 cy=540 r=17.159372257775868 stroke=""black"" stroke-width=""1.5"" fill=""none"" />
    <circle cx=759.55 cy=496.26228016928127 r=17.159372257775868 stroke=""black"" stroke-width=""1.5"" fill=""none"" />
    <polygon points = ""759.55,540 764.3768456192511,522.8406277422241 754.7231543807488,522.8406277422241"" stroke=""white"" stroke-width=""3"" fill = ""white"" />
    
    </svg>
    </div>
        ","","","","","","","","","","","","stimulus","","","","","","","","","","","","","","","","",""
"html-keyboard-response","66","398856","0.0-66.0","885.7000000011176","arrowdown","","
    <div style="" display: block;  position: relative;"">
    
    <svg width=1920 height=1080>
    <circle cx=897 cy=540 r=12.011560580443106 stroke=""black"" stroke-width=""1"" fill=""black"" />
    <circle cx=803.2877198307187 cy=540 r=17.159372257775868 stroke=""none"" stroke-width=""1.5"" fill=""none"" />
    <circle cx=759.55 cy=583.7377198307188 r=17.159372257775868 stroke=""none"" stroke-width=""1.5"" fill=""none"" />
    <circle cx=715.8122801692812 cy=540 r=17.159372257775868 stroke=""none"" stroke-width=""1.5"" fill=""none"" />
    <circle cx=759.55 cy=496.26228016928127 r=17.159372257775868 stroke=""none"" stroke-width=""1.5"" fill=""none"" />
    <polygon points = ""759.55,540 764.3768456192511,522.8406277422241 754.7231543807488,522.8406277422241"" stroke=""none"" stroke-width=""3"" fill = ""none"" />
    
    </svg>
    </div>
        ","","","","","","","","","","","","get_response","false","n9L7oQJYn3Efl4fX","","","true","true","true","137.45","4","626.156","43.737719830718746","1.27","1","0","","",""
"html-keyboard-response","67","399370","0.0-67.0","null","null","","
    <div style="" display: block;  position: relative;"">
    
    <svg width=1920 height=1080>
    <circle cx=897 cy=540 r=12.011560580443106 stroke=""black"" stroke-width=""1"" fill=""black"" />
    <circle cx=803.2877198307187 cy=540 r=17.159372257775868 stroke=""none"" stroke-width=""1.5"" fill=""none"" />
    <circle cx=759.55 cy=583.7377198307188 r=17.159372257775868 stroke=""none"" stroke-width=""1.5"" fill=""none"" />
    <circle cx=715.8122801692812 cy=540 r=17.159372257775868 stroke=""none"" stroke-width=""1.5"" fill=""none"" />
    <circle cx=759.55 cy=496.26228016928127 r=17.159372257775868 stroke=""none"" stroke-width=""1.5"" fill=""none"" />
    <polygon points = ""759.55,540 764.3768456192511,522.8406277422241 754.7231543807488,522.8406277422241"" stroke=""none"" stroke-width=""3"" fill = ""none"" />
    
    </svg>
    </div>
        ","","","","","","","","","","","","","","","","","","","","","","","","","","","","",""
"html-keyboard-response","68","399529","0.0-68.0","null","null","","
    <div style="" display: block;  position: relative;"">
    <svg width=1920 height=1080>
    
    <circle cx=897 cy=540 r=12.011560580443106 stroke=""black"" stroke-width=""1"" fill=""black"" />
    <circle cx=1034.45 cy=540 r=17.159372257775868 stroke=""black"" stroke-width=""1.5"" fill=""none"" />
    <circle cx=1091.3090357799344 cy=540 r=17.159372257775868 stroke=""black"" stroke-width=""1.5"" fill=""none"" />
    <circle cx=1034.45 cy=596.8590357799344 r=17.159372257775868 stroke=""black"" stroke-width=""1.5"" fill=""none"" />
    <circle cx=977.5909642200656 cy=540 r=17.159372257775868 stroke=""black"" stroke-width=""1.5"" fill=""none"" />
    <circle cx=1034.45 cy=483.1409642200656 r=17.159372257775868 stroke=""black"" stroke-width=""1.5"" fill=""none"" />
    <polygon points = ""1034.45,540 1039.2768456192512,522.8406277422241 1029.623154380749,522.8406277422241"" stroke=""white"" stroke-width=""3"" fill = ""white"" />
    
    </svg>
    </div>
        ","","","","","","","","","","","","stimulus","","","","","","","","","","","","","","","","",""
"html-keyboard-response","69","399944","0.0-69.0","413.90000000037253","arrowup","","
    <div style="" display: block;  position: relative;"">
    
    <svg width=1920 height=1080>
    <circle cx=897 cy=540 r=12.011560580443106 stroke=""black"" stroke-width=""1"" fill=""black"" />
    <circle cx=1091.3090357799344 cy=540 r=17.159372257775868 stroke=""none"" stroke-width=""1.5"" fill=""none"" />
    <circle cx=1034.45 cy=596.8590357799344 r=17.159372257775868 stroke=""none"" stroke-width=""1.5"" fill=""none"" />
    <circle cx=977.5909642200656 cy=540 r=17.159372257775868 stroke=""none"" stroke-width=""1.5"" fill=""none"" />
    <circle cx=1034.45 cy=483.1409642200656 r=17.159372257775868 stroke=""none"" stroke-width=""1.5"" fill=""none"" />
    <polygon points = ""1034.45,540 1039.2768456192512,522.8406277422241 1029.623154380749,522.8406277422241"" stroke=""none"" stroke-width=""3"" fill = ""none"" />
    
    </svg>
    </div>
        ","","","","","","","","","","","","get_response","true","n9L7oQJYn3Efl4fX","","","false","true","true","137.45","4","626.156","56.85903577993437","1.65","1","0","","",""
"html-keyboard-response","70","400448","0.0-70.0","null","null","","
    <div style="" display: block;  position: relative;"">
    
    <svg width=1920 height=1080>
    <circle cx=897 cy=540 r=12.011560580443106 stroke=""black"" stroke-width=""1"" fill=""black"" />
    <circle cx=1091.3090357799344 cy=540 r=17.159372257775868 stroke=""none"" stroke-width=""1.5"" fill=""none"" />
    <circle cx=1034.45 cy=596.8590357799344 r=17.159372257775868 stroke=""none"" stroke-width=""1.5"" fill=""none"" />
    <circle cx=977.5909642200656 cy=540 r=17.159372257775868 stroke=""none"" stroke-width=""1.5"" fill=""none"" />
    <circle cx=1034.45 cy=483.1409642200656 r=17.159372257775868 stroke=""none"" stroke-width=""1.5"" fill=""none"" />
    <polygon points = ""1034.45,540 1039.2768456192512,522.8406277422241 1029.623154380749,522.8406277422241"" stroke=""none"" stroke-width=""3"" fill = ""none"" />
    
    </svg>
    </div>
        ","","","","","","","","","","","","","","","","","","","","","","","","","","","","",""
"html-keyboard-response","71","400607","0.0-71.0","null","null","","
    <div style="" display: block;  position: relative;"">
    <svg width=1920 height=1080>
    
    <circle cx=897 cy=540 r=12.011560580443106 stroke=""black"" stroke-width=""1"" fill=""black"" />
    <circle cx=1034.45 cy=540 r=17.159372257775868 stroke=""black"" stroke-width=""1.5"" fill=""none"" />
    <circle cx=1091.3090357799344 cy=540 r=17.159372257775868 stroke=""black"" stroke-width=""1.5"" fill=""none"" />
    <circle cx=1034.45 cy=596.8590357799344 r=17.159372257775868 stroke=""black"" stroke-width=""1.5"" fill=""none"" />
    <circle cx=977.5909642200656 cy=540 r=17.159372257775868 stroke=""black"" stroke-width=""1.5"" fill=""none"" />
    <circle cx=1034.45 cy=483.1409642200656 r=17.159372257775868 stroke=""black"" stroke-width=""1.5"" fill=""none"" />
    <polygon points = ""1034.45,540 1039.2768456192512,522.8406277422241 1029.623154380749,522.8406277422241"" stroke=""white"" stroke-width=""3"" fill = ""white"" />
    
    </svg>
    </div>
        ","","","","","","","","","","","","stimulus","","","","","","","","","","","","","","","","",""
"html-keyboard-response","72","401272","0.0-72.0","664.6999999992549","arrowdown","","
    <div style="" display: block;  position: relative;"">
    
    <svg width=1920 height=1080>
    <circle cx=897 cy=540 r=12.011560580443106 stroke=""black"" stroke-width=""1"" fill=""black"" />
    <circle cx=1091.3090357799344 cy=540 r=17.159372257775868 stroke=""none"" stroke-width=""1.5"" fill=""none"" />
    <circle cx=1034.45 cy=596.8590357799344 r=17.159372257775868 stroke=""none"" stroke-width=""1.5"" fill=""none"" />
    <circle cx=977.5909642200656 cy=540 r=17.159372257775868 stroke=""none"" stroke-width=""1.5"" fill=""none"" />
    <circle cx=1034.45 cy=483.1409642200656 r=17.159372257775868 stroke=""none"" stroke-width=""1.5"" fill=""none"" />
    <polygon points = ""1034.45,540 1039.2768456192512,522.8406277422241 1029.623154380749,522.8406277422241"" stroke=""none"" stroke-width=""3"" fill = ""none"" />
    
    </svg>
    </div>
        ","","","","","","","","","","","","get_response","false","n9L7oQJYn3Efl4fX","","","false","true","true","137.45","4","626.156","56.85903577993437","1.65","1","0","","",""
"html-keyboard-response","73","401783","0.0-73.0","null","null","","
    <div style="" display: block;  position: relative;"">
    
    <svg width=1920 height=1080>
    <circle cx=897 cy=540 r=12.011560580443106 stroke=""black"" stroke-width=""1"" fill=""black"" />
    <circle cx=1091.3090357799344 cy=540 r=17.159372257775868 stroke=""none"" stroke-width=""1.5"" fill=""none"" />
    <circle cx=1034.45 cy=596.8590357799344 r=17.159372257775868 stroke=""none"" stroke-width=""1.5"" fill=""none"" />
    <circle cx=977.5909642200656 cy=540 r=17.159372257775868 stroke=""none"" stroke-width=""1.5"" fill=""none"" />
    <circle cx=1034.45 cy=483.1409642200656 r=17.159372257775868 stroke=""none"" stroke-width=""1.5"" fill=""none"" />
    <polygon points = ""1034.45,540 1039.2768456192512,522.8406277422241 1029.623154380749,522.8406277422241"" stroke=""none"" stroke-width=""3"" fill = ""none"" />
    
    </svg>
    </div>
        ","","","","","","","","","","","","","","","","","","","","","","","","","","","","",""
"html-keyboard-response","74","401941","0.0-74.0","null","null","","
    <div style="" display: block;  position: relative;"">
    <svg width=1920 height=1080>
    
    <circle cx=897 cy=540 r=12.011560580443106 stroke=""black"" stroke-width=""1"" fill=""black"" />
    <circle cx=1034.45 cy=540 r=17.159372257775868 stroke=""black"" stroke-width=""1.5"" fill=""none"" />
    <circle cx=1108.3667465139147 cy=540 r=17.159372257775868 stroke=""black"" stroke-width=""1.5"" fill=""none"" />
    <circle cx=1034.45 cy=613.9167465139146 r=17.159372257775868 stroke=""black"" stroke-width=""1.5"" fill=""none"" />
    <circle cx=960.5332534860854 cy=540 r=17.159372257775868 stroke=""black"" stroke-width=""1.5"" fill=""none"" />
    <circle cx=1034.45 cy=466.0832534860853 r=17.159372257775868 stroke=""black"" stroke-width=""1.5"" fill=""none"" />
    <polygon points = ""1034.45,540 1039.2768456192512,522.8406277422241 1029.623154380749,522.8406277422241"" stroke=""white"" stroke-width=""3"" fill = ""white"" />
    
    </svg>
    </div>
        ","","","","","","","","","","","","stimulus","","","","","","","","","","","","","","","","",""
"html-keyboard-response","75","402952","0.0-75.0","1009.8000000007451","arrowup","","
    <div style="" display: block;  position: relative;"">
    
    <svg width=1920 height=1080>
    <circle cx=897 cy=540 r=12.011560580443106 stroke=""black"" stroke-width=""1"" fill=""black"" />
    <circle cx=1108.3667465139147 cy=540 r=17.159372257775868 stroke=""none"" stroke-width=""1.5"" fill=""none"" />
    <circle cx=1034.45 cy=613.9167465139146 r=17.159372257775868 stroke=""none"" stroke-width=""1.5"" fill=""none"" />
    <circle cx=960.5332534860854 cy=540 r=17.159372257775868 stroke=""none"" stroke-width=""1.5"" fill=""none"" />
    <circle cx=1034.45 cy=466.0832534860853 r=17.159372257775868 stroke=""none"" stroke-width=""1.5"" fill=""none"" />
    <polygon points = ""1034.45,540 1039.2768456192512,522.8406277422241 1029.623154380749,522.8406277422241"" stroke=""none"" stroke-width=""3"" fill = ""none"" />
    
    </svg>
    </div>
        ","","","","","","","","","","","","get_response","true","n9L7oQJYn3Efl4fX","","","false","true","true","137.45","4","626.156","73.91674651391469","2.15","1","0","","",""
"html-keyboard-response","76","403464","0.0-76.0","null","null","","
    <div style="" display: block;  position: relative;"">
    
    <svg width=1920 height=1080>
    <circle cx=897 cy=540 r=12.011560580443106 stroke=""black"" stroke-width=""1"" fill=""black"" />
    <circle cx=1108.3667465139147 cy=540 r=17.159372257775868 stroke=""none"" stroke-width=""1.5"" fill=""none"" />
    <circle cx=1034.45 cy=613.9167465139146 r=17.159372257775868 stroke=""none"" stroke-width=""1.5"" fill=""none"" />
    <circle cx=960.5332534860854 cy=540 r=17.159372257775868 stroke=""none"" stroke-width=""1.5"" fill=""none"" />
    <circle cx=1034.45 cy=466.0832534860853 r=17.159372257775868 stroke=""none"" stroke-width=""1.5"" fill=""none"" />
    <polygon points = ""1034.45,540 1039.2768456192512,522.8406277422241 1029.623154380749,522.8406277422241"" stroke=""none"" stroke-width=""3"" fill = ""none"" />
    
    </svg>
    </div>
        ","","","","","","","","","","","","","","","","","","","","","","","","","","","","",""
"html-keyboard-response","77","403624","0.0-77.0","null","null","","
    <div style="" display: block;  position: relative;"">
    <svg width=1920 height=1080>
    
    <circle cx=897 cy=540 r=12.011560580443106 stroke=""black"" stroke-width=""1"" fill=""black"" />
    <circle cx=1034.45 cy=540 r=17.159372257775868 stroke=""black"" stroke-width=""1.5"" fill=""none"" />
    <circle cx=1108.3667465139147 cy=540 r=17.159372257775868 stroke=""black"" stroke-width=""1.5"" fill=""none"" />
    <circle cx=1034.45 cy=613.9167465139146 r=17.159372257775868 stroke=""black"" stroke-width=""1.5"" fill=""none"" />
    <circle cx=960.5332534860854 cy=540 r=17.159372257775868 stroke=""black"" stroke-width=""1.5"" fill=""none"" />
    <circle cx=1034.45 cy=466.0832534860853 r=17.159372257775868 stroke=""black"" stroke-width=""1.5"" fill=""none"" />
    <polygon points = ""1034.45,540 1039.2768456192512,522.8406277422241 1029.623154380749,522.8406277422241"" stroke=""white"" stroke-width=""3"" fill = ""white"" />
    
    </svg>
    </div>
        ","","","","","","","","","","","","stimulus","","","","","","","","","","","","","","","","",""
"html-keyboard-response","78","404025","0.0-78.0","400.2999999988824","arrowup","","
    <div style="" display: block;  position: relative;"">
    
    <svg width=1920 height=1080>
    <circle cx=897 cy=540 r=12.011560580443106 stroke=""black"" stroke-width=""1"" fill=""black"" />
    <circle cx=1108.3667465139147 cy=540 r=17.159372257775868 stroke=""none"" stroke-width=""1.5"" fill=""none"" />
    <circle cx=1034.45 cy=613.9167465139146 r=17.159372257775868 stroke=""none"" stroke-width=""1.5"" fill=""none"" />
    <circle cx=960.5332534860854 cy=540 r=17.159372257775868 stroke=""none"" stroke-width=""1.5"" fill=""none"" />
    <circle cx=1034.45 cy=466.0832534860853 r=17.159372257775868 stroke=""none"" stroke-width=""1.5"" fill=""none"" />
    <polygon points = ""1034.45,540 1039.2768456192512,522.8406277422241 1029.623154380749,522.8406277422241"" stroke=""none"" stroke-width=""3"" fill = ""none"" />
    
    </svg>
    </div>
        ","","","","","","","","","","","","get_response","true","n9L7oQJYn3Efl4fX","","","false","true","true","137.45","4","626.156","73.91674651391469","2.15","1","0","","",""
"html-keyboard-response","79","404538","0.0-79.0","null","null","","
    <div style="" display: block;  position: relative;"">
    
    <svg width=1920 height=1080>
    <circle cx=897 cy=540 r=12.011560580443106 stroke=""black"" stroke-width=""1"" fill=""black"" />
    <circle cx=1108.3667465139147 cy=540 r=17.159372257775868 stroke=""none"" stroke-width=""1.5"" fill=""none"" />
    <circle cx=1034.45 cy=613.9167465139146 r=17.159372257775868 stroke=""none"" stroke-width=""1.5"" fill=""none"" />
    <circle cx=960.5332534860854 cy=540 r=17.159372257775868 stroke=""none"" stroke-width=""1.5"" fill=""none"" />
    <circle cx=1034.45 cy=466.0832534860853 r=17.159372257775868 stroke=""none"" stroke-width=""1.5"" fill=""none"" />
    <polygon points = ""1034.45,540 1039.2768456192512,522.8406277422241 1029.623154380749,522.8406277422241"" stroke=""none"" stroke-width=""3"" fill = ""none"" />
    
    </svg>
    </div>
        ","","","","","","","","","","","","","","","","","","","","","","","","","","","","",""
"html-keyboard-response","80","404696","0.0-80.0","null","null","","
    <div style="" display: block;  position: relative;"">
    <svg width=1920 height=1080>
    
    <circle cx=897 cy=540 r=12.011560580443106 stroke=""black"" stroke-width=""1"" fill=""black"" />
    <circle cx=759.55 cy=540 r=17.159372257775868 stroke=""black"" stroke-width=""1.5"" fill=""none"" />
    <circle cx=833.4667465139146 cy=540 r=17.159372257775868 stroke=""black"" stroke-width=""1.5"" fill=""none"" />
    <circle cx=759.55 cy=613.9167465139146 r=17.159372257775868 stroke=""black"" stroke-width=""1.5"" fill=""none"" />
    <circle cx=685.6332534860853 cy=540 r=17.159372257775868 stroke=""black"" stroke-width=""1.5"" fill=""none"" />
    <circle cx=759.55 cy=466.0832534860853 r=17.159372257775868 stroke=""black"" stroke-width=""1.5"" fill=""none"" />
    <polygon points = ""759.55,540 764.3768456192511,557.1593722577759 754.7231543807488,557.1593722577759"" stroke=""white"" stroke-width=""3"" fill = ""white"" />
    
    </svg>
    </div>
        ","","","","","","","","","","","","stimulus","","","","","","","","","","","","","","","","",""
"html-keyboard-response","81","405080","0.0-81.0","383.59999999962747","arrowdown","","
    <div style="" display: block;  position: relative;"">
    
    <svg width=1920 height=1080>
    <circle cx=897 cy=540 r=12.011560580443106 stroke=""black"" stroke-width=""1"" fill=""black"" />
    <circle cx=833.4667465139146 cy=540 r=17.159372257775868 stroke=""none"" stroke-width=""1.5"" fill=""none"" />
    <circle cx=759.55 cy=613.9167465139146 r=17.159372257775868 stroke=""none"" stroke-width=""1.5"" fill=""none"" />
    <circle cx=685.6332534860853 cy=540 r=17.159372257775868 stroke=""none"" stroke-width=""1.5"" fill=""none"" />
    <circle cx=759.55 cy=466.0832534860853 r=17.159372257775868 stroke=""none"" stroke-width=""1.5"" fill=""none"" />
    <polygon points = ""759.55,540 764.3768456192511,557.1593722577759 754.7231543807488,557.1593722577759"" stroke=""none"" stroke-width=""3"" fill = ""none"" />
    
    </svg>
    </div>
        ","","","","","","","","","","","","get_response","true","n9L7oQJYn3Efl4fX","","","true","false","true","137.45","4","626.156","73.91674651391469","2.15","1","0","","",""
"html-keyboard-response","82","405584","0.0-82.0","null","null","","
    <div style="" display: block;  position: relative;"">
    
    <svg width=1920 height=1080>
    <circle cx=897 cy=540 r=12.011560580443106 stroke=""black"" stroke-width=""1"" fill=""black"" />
    <circle cx=833.4667465139146 cy=540 r=17.159372257775868 stroke=""none"" stroke-width=""1.5"" fill=""none"" />
    <circle cx=759.55 cy=613.9167465139146 r=17.159372257775868 stroke=""none"" stroke-width=""1.5"" fill=""none"" />
    <circle cx=685.6332534860853 cy=540 r=17.159372257775868 stroke=""none"" stroke-width=""1.5"" fill=""none"" />
    <circle cx=759.55 cy=466.0832534860853 r=17.159372257775868 stroke=""none"" stroke-width=""1.5"" fill=""none"" />
    <polygon points = ""759.55,540 764.3768456192511,557.1593722577759 754.7231543807488,557.1593722577759"" stroke=""none"" stroke-width=""3"" fill = ""none"" />
    
    </svg>
    </div>
        ","","","","","","","","","","","","","","","","","","","","","","","","","","","","",""
"html-keyboard-response","83","405743","0.0-83.0","null","null","","
    <div style="" display: block;  position: relative;"">
    <svg width=1920 height=1080>
    
    <circle cx=897 cy=540 r=12.011560580443106 stroke=""black"" stroke-width=""1"" fill=""black"" />
    <circle cx=759.55 cy=540 r=17.159372257775868 stroke=""black"" stroke-width=""1.5"" fill=""none"" />
    <circle cx=826.7470422853769 cy=540 r=17.159372257775868 stroke=""black"" stroke-width=""1.5"" fill=""none"" />
    <circle cx=759.55 cy=607.1970422853769 r=17.159372257775868 stroke=""black"" stroke-width=""1.5"" fill=""none"" />
    <circle cx=692.352957714623 cy=540 r=17.159372257775868 stroke=""black"" stroke-width=""1.5"" fill=""none"" />
    <circle cx=759.55 cy=472.802957714623 r=17.159372257775868 stroke=""black"" stroke-width=""1.5"" fill=""none"" />
    <polygon points = ""759.55,540 764.3768456192511,557.1593722577759 754.7231543807488,557.1593722577759"" stroke=""white"" stroke-width=""3"" fill = ""white"" />
    
    </svg>
    </div>
        ","","","","","","","","","","","","stimulus","","","","","","","","","","","","","","","","",""
"html-keyboard-response","84","406056","0.0-84.0","311.59999999962747","arrowdown","","
    <div style="" display: block;  position: relative;"">
    
    <svg width=1920 height=1080>
    <circle cx=897 cy=540 r=12.011560580443106 stroke=""black"" stroke-width=""1"" fill=""black"" />
    <circle cx=826.7470422853769 cy=540 r=17.159372257775868 stroke=""none"" stroke-width=""1.5"" fill=""none"" />
    <circle cx=759.55 cy=607.1970422853769 r=17.159372257775868 stroke=""none"" stroke-width=""1.5"" fill=""none"" />
    <circle cx=692.352957714623 cy=540 r=17.159372257775868 stroke=""none"" stroke-width=""1.5"" fill=""none"" />
    <circle cx=759.55 cy=472.802957714623 r=17.159372257775868 stroke=""none"" stroke-width=""1.5"" fill=""none"" />
    <polygon points = ""759.55,540 764.3768456192511,557.1593722577759 754.7231543807488,557.1593722577759"" stroke=""none"" stroke-width=""3"" fill = ""none"" />
    
    </svg>
    </div>
        ","","","","","","","","","","","","get_response","true","n9L7oQJYn3Efl4fX","","","true","false","true","137.45","4","626.156","67.19704228537698","1.95","1","0","","",""
"html-keyboard-response","85","406564","0.0-85.0","null","null","","
    <div style="" display: block;  position: relative;"">
    
    <svg width=1920 height=1080>
    <circle cx=897 cy=540 r=12.011560580443106 stroke=""black"" stroke-width=""1"" fill=""black"" />
    <circle cx=826.7470422853769 cy=540 r=17.159372257775868 stroke=""none"" stroke-width=""1.5"" fill=""none"" />
    <circle cx=759.55 cy=607.1970422853769 r=17.159372257775868 stroke=""none"" stroke-width=""1.5"" fill=""none"" />
    <circle cx=692.352957714623 cy=540 r=17.159372257775868 stroke=""none"" stroke-width=""1.5"" fill=""none"" />
    <circle cx=759.55 cy=472.802957714623 r=17.159372257775868 stroke=""none"" stroke-width=""1.5"" fill=""none"" />
    <polygon points = ""759.55,540 764.3768456192511,557.1593722577759 754.7231543807488,557.1593722577759"" stroke=""none"" stroke-width=""3"" fill = ""none"" />
    
    </svg>
    </div>
        ","","","","","","","","","","","","","","","","","","","","","","","","","","","","",""
"html-keyboard-response","86","406723","0.0-86.0","null","null","","
    <div style="" display: block;  position: relative;"">
    <svg width=1920 height=1080>
    
    <circle cx=897 cy=540 r=12.011560580443106 stroke=""black"" stroke-width=""1"" fill=""black"" />
    <circle cx=759.55 cy=540 r=17.159372257775868 stroke=""black"" stroke-width=""1.5"" fill=""none"" />
    <circle cx=820.6382202594335 cy=540 r=17.159372257775868 stroke=""black"" stroke-width=""1.5"" fill=""none"" />
    <circle cx=759.55 cy=601.0882202594336 r=17.159372257775868 stroke=""black"" stroke-width=""1.5"" fill=""none"" />
    <circle cx=698.4617797405664 cy=540 r=17.159372257775868 stroke=""black"" stroke-width=""1.5"" fill=""none"" />
    <circle cx=759.55 cy=478.9117797405664 r=17.159372257775868 stroke=""black"" stroke-width=""1.5"" fill=""none"" />
    <polygon points = ""759.55,540 764.3768456192511,557.1593722577759 754.7231543807488,557.1593722577759"" stroke=""white"" stroke-width=""3"" fill = ""white"" />
    
    </svg>
    </div>
        ","","","","","","","","","","","","stimulus","","","","","","","","","","","","","","","","",""
"html-keyboard-response","87","407104","0.0-87.0","381","arrowdown","","
    <div style="" display: block;  position: relative;"">
    
    <svg width=1920 height=1080>
    <circle cx=897 cy=540 r=12.011560580443106 stroke=""black"" stroke-width=""1"" fill=""black"" />
    <circle cx=820.6382202594335 cy=540 r=17.159372257775868 stroke=""none"" stroke-width=""1.5"" fill=""none"" />
    <circle cx=759.55 cy=601.0882202594336 r=17.159372257775868 stroke=""none"" stroke-width=""1.5"" fill=""none"" />
    <circle cx=698.4617797405664 cy=540 r=17.159372257775868 stroke=""none"" stroke-width=""1.5"" fill=""none"" />
    <circle cx=759.55 cy=478.9117797405664 r=17.159372257775868 stroke=""none"" stroke-width=""1.5"" fill=""none"" />
    <polygon points = ""759.55,540 764.3768456192511,557.1593722577759 754.7231543807488,557.1593722577759"" stroke=""none"" stroke-width=""3"" fill = ""none"" />
    
    </svg>
    </div>
        ","","","","","","","","","","","","get_response","true","n9L7oQJYn3Efl4fX","","","true","false","true","137.45","4","626.156","61.08822025943361","1.78","1","0","","",""
"html-keyboard-response","88","407608","0.0-88.0","null","null","","
    <div style="" display: block;  position: relative;"">
    
    <svg width=1920 height=1080>
    <circle cx=897 cy=540 r=12.011560580443106 stroke=""black"" stroke-width=""1"" fill=""black"" />
    <circle cx=820.6382202594335 cy=540 r=17.159372257775868 stroke=""none"" stroke-width=""1.5"" fill=""none"" />
    <circle cx=759.55 cy=601.0882202594336 r=17.159372257775868 stroke=""none"" stroke-width=""1.5"" fill=""none"" />
    <circle cx=698.4617797405664 cy=540 r=17.159372257775868 stroke=""none"" stroke-width=""1.5"" fill=""none"" />
    <circle cx=759.55 cy=478.9117797405664 r=17.159372257775868 stroke=""none"" stroke-width=""1.5"" fill=""none"" />
    <polygon points = ""759.55,540 764.3768456192511,557.1593722577759 754.7231543807488,557.1593722577759"" stroke=""none"" stroke-width=""3"" fill = ""none"" />
    
    </svg>
    </div>
        ","","","","","","","","","","","","","","","","","","","","","","","","","","","","",""
"html-keyboard-response","89","407768","0.0-89.0","null","null","","
    <div style="" display: block;  position: relative;"">
    <svg width=1920 height=1080>
    
    <circle cx=897 cy=540 r=12.011560580443106 stroke=""black"" stroke-width=""1"" fill=""black"" />
    <circle cx=1034.45 cy=540 r=17.159372257775868 stroke=""black"" stroke-width=""1.5"" fill=""none"" />
    <circle cx=1089.9847456903942 cy=540 r=17.159372257775868 stroke=""black"" stroke-width=""1.5"" fill=""none"" />
    <circle cx=1034.45 cy=595.5347456903942 r=17.159372257775868 stroke=""black"" stroke-width=""1.5"" fill=""none"" />
    <circle cx=978.9152543096059 cy=540 r=17.159372257775868 stroke=""black"" stroke-width=""1.5"" fill=""none"" />
    <circle cx=1034.45 cy=484.4652543096058 r=17.159372257775868 stroke=""black"" stroke-width=""1.5"" fill=""none"" />
    <polygon points = ""1034.45,540 1039.2768456192512,522.8406277422241 1029.623154380749,522.8406277422241"" stroke=""white"" stroke-width=""3"" fill = ""white"" />
    
    </svg>
    </div>
        ","","","","","","","","","","","","stimulus","","","","","","","","","","","","","","","","",""
"html-keyboard-response","90","408072","0.0-90.0","303.40000000037253","arrowup","","
    <div style="" display: block;  position: relative;"">
    
    <svg width=1920 height=1080>
    <circle cx=897 cy=540 r=12.011560580443106 stroke=""black"" stroke-width=""1"" fill=""black"" />
    <circle cx=1089.9847456903942 cy=540 r=17.159372257775868 stroke=""none"" stroke-width=""1.5"" fill=""none"" />
    <circle cx=1034.45 cy=595.5347456903942 r=17.159372257775868 stroke=""none"" stroke-width=""1.5"" fill=""none"" />
    <circle cx=978.9152543096059 cy=540 r=17.159372257775868 stroke=""none"" stroke-width=""1.5"" fill=""none"" />
    <circle cx=1034.45 cy=484.4652543096058 r=17.159372257775868 stroke=""none"" stroke-width=""1.5"" fill=""none"" />
    <polygon points = ""1034.45,540 1039.2768456192512,522.8406277422241 1029.623154380749,522.8406277422241"" stroke=""none"" stroke-width=""3"" fill = ""none"" />
    
    </svg>
    </div>
        ","","","","","","","","","","","","get_response","true","n9L7oQJYn3Efl4fX","","","false","true","true","137.45","4","626.156","55.53474569039419","1.61","1","0","","",""
"html-keyboard-response","91","408575","0.0-91.0","null","null","","
    <div style="" display: block;  position: relative;"">
    
    <svg width=1920 height=1080>
    <circle cx=897 cy=540 r=12.011560580443106 stroke=""black"" stroke-width=""1"" fill=""black"" />
    <circle cx=1089.9847456903942 cy=540 r=17.159372257775868 stroke=""none"" stroke-width=""1.5"" fill=""none"" />
    <circle cx=1034.45 cy=595.5347456903942 r=17.159372257775868 stroke=""none"" stroke-width=""1.5"" fill=""none"" />
    <circle cx=978.9152543096059 cy=540 r=17.159372257775868 stroke=""none"" stroke-width=""1.5"" fill=""none"" />
    <circle cx=1034.45 cy=484.4652543096058 r=17.159372257775868 stroke=""none"" stroke-width=""1.5"" fill=""none"" />
    <polygon points = ""1034.45,540 1039.2768456192512,522.8406277422241 1029.623154380749,522.8406277422241"" stroke=""none"" stroke-width=""3"" fill = ""none"" />
    
    </svg>
    </div>
        ","","","","","","","","","","","","","","","","","","","","","","","","","","","","",""
"html-keyboard-response","92","408733","0.0-92.0","null","null","","
    <div style="" display: block;  position: relative;"">
    <svg width=1920 height=1080>
    
    <circle cx=897 cy=540 r=12.011560580443106 stroke=""black"" stroke-width=""1"" fill=""black"" />
    <circle cx=1034.45 cy=540 r=17.159372257775868 stroke=""black"" stroke-width=""1.5"" fill=""none"" />
    <circle cx=1084.936132445813 cy=540 r=17.159372257775868 stroke=""black"" stroke-width=""1.5"" fill=""none"" />
    <circle cx=1034.45 cy=590.4861324458129 r=17.159372257775868 stroke=""black"" stroke-width=""1.5"" fill=""none"" />
    <circle cx=983.9638675541871 cy=540 r=17.159372257775868 stroke=""black"" stroke-width=""1.5"" fill=""none"" />
    <circle cx=1034.45 cy=489.51386755418713 r=17.159372257775868 stroke=""black"" stroke-width=""1.5"" fill=""none"" />
    <polygon points = ""1034.45,540 1039.2768456192512,522.8406277422241 1029.623154380749,522.8406277422241"" stroke=""white"" stroke-width=""3"" fill = ""white"" />
    
    </svg>
    </div>
        ","","","","","","","","","","","","stimulus","","","","","","","","","","","","","","","","",""
"html-keyboard-response","93","409008","0.0-93.0","274","arrowup","","
    <div style="" display: block;  position: relative;"">
    
    <svg width=1920 height=1080>
    <circle cx=897 cy=540 r=12.011560580443106 stroke=""black"" stroke-width=""1"" fill=""black"" />
    <circle cx=1084.936132445813 cy=540 r=17.159372257775868 stroke=""none"" stroke-width=""1.5"" fill=""none"" />
    <circle cx=1034.45 cy=590.4861324458129 r=17.159372257775868 stroke=""none"" stroke-width=""1.5"" fill=""none"" />
    <circle cx=983.9638675541871 cy=540 r=17.159372257775868 stroke=""none"" stroke-width=""1.5"" fill=""none"" />
    <circle cx=1034.45 cy=489.51386755418713 r=17.159372257775868 stroke=""none"" stroke-width=""1.5"" fill=""none"" />
    <polygon points = ""1034.45,540 1039.2768456192512,522.8406277422241 1029.623154380749,522.8406277422241"" stroke=""none"" stroke-width=""3"" fill = ""none"" />
    
    </svg>
    </div>
        ","","","","","","","","","","","","get_response","true","n9L7oQJYn3Efl4fX","","","false","true","true","137.45","4","626.156","50.48613244581289","1.47","1","0","","",""
"html-keyboard-response","94","409511","0.0-94.0","null","null","","
    <div style="" display: block;  position: relative;"">
    
    <svg width=1920 height=1080>
    <circle cx=897 cy=540 r=12.011560580443106 stroke=""black"" stroke-width=""1"" fill=""black"" />
    <circle cx=1084.936132445813 cy=540 r=17.159372257775868 stroke=""none"" stroke-width=""1.5"" fill=""none"" />
    <circle cx=1034.45 cy=590.4861324458129 r=17.159372257775868 stroke=""none"" stroke-width=""1.5"" fill=""none"" />
    <circle cx=983.9638675541871 cy=540 r=17.159372257775868 stroke=""none"" stroke-width=""1.5"" fill=""none"" />
    <circle cx=1034.45 cy=489.51386755418713 r=17.159372257775868 stroke=""none"" stroke-width=""1.5"" fill=""none"" />
    <polygon points = ""1034.45,540 1039.2768456192512,522.8406277422241 1029.623154380749,522.8406277422241"" stroke=""none"" stroke-width=""3"" fill = ""none"" />
    
    </svg>
    </div>
        ","","","","","","","","","","","","","","","","","","","","","","","","","","","","",""
"html-keyboard-response","95","409669","0.0-95.0","null","null","","
    <div style="" display: block;  position: relative;"">
    <svg width=1920 height=1080>
    
    <circle cx=897 cy=540 r=12.011560580443106 stroke=""black"" stroke-width=""1"" fill=""black"" />
    <circle cx=1034.45 cy=540 r=17.159372257775868 stroke=""black"" stroke-width=""1.5"" fill=""none"" />
    <circle cx=1080.3464840416482 cy=540 r=17.159372257775868 stroke=""black"" stroke-width=""1.5"" fill=""none"" />
    <circle cx=1034.45 cy=585.8964840416481 r=17.159372257775868 stroke=""black"" stroke-width=""1.5"" fill=""none"" />
    <circle cx=988.5535159583519 cy=540 r=17.159372257775868 stroke=""black"" stroke-width=""1.5"" fill=""none"" />
    <circle cx=1034.45 cy=494.1035159583519 r=17.159372257775868 stroke=""black"" stroke-width=""1.5"" fill=""none"" />
    <polygon points = ""1034.45,540 1039.2768456192512,522.8406277422241 1029.623154380749,522.8406277422241"" stroke=""white"" stroke-width=""3"" fill = ""white"" />
    
    </svg>
    </div>
        ","","","","","","","","","","","","stimulus","","","","","","","","","","","","","","","","",""
"html-keyboard-response","96","410024","0.0-96.0","354.19999999925494","arrowup","","
    <div style="" display: block;  position: relative;"">
    
    <svg width=1920 height=1080>
    <circle cx=897 cy=540 r=12.011560580443106 stroke=""black"" stroke-width=""1"" fill=""black"" />
    <circle cx=1080.3464840416482 cy=540 r=17.159372257775868 stroke=""none"" stroke-width=""1.5"" fill=""none"" />
    <circle cx=1034.45 cy=585.8964840416481 r=17.159372257775868 stroke=""none"" stroke-width=""1.5"" fill=""none"" />
    <circle cx=988.5535159583519 cy=540 r=17.159372257775868 stroke=""none"" stroke-width=""1.5"" fill=""none"" />
    <circle cx=1034.45 cy=494.1035159583519 r=17.159372257775868 stroke=""none"" stroke-width=""1.5"" fill=""none"" />
