,trial_type,trial_index,time_elapsed,internal_node_id,rt,response,success,stimulus,start_time,start_time_unix,item_width_mm,item_height_mm,item_width_px,px2mm,view_dist_mm,item_width_deg,px2deg,win_width_deg,win_height_deg,trialType,correct,participantID,criticalSpacing,criticalSpacing_deg,isLeft,isUp,isEccen4,eccentricity,eccentricity_deg,viewingDistanceMean,critical_spacing,critical_spacing_deg,crowding_session,correctRate,viewDistance_1,viewDistance_2,viewDistance_3,age
0,pavlovia,0,4,0.0-0.0,,,,,,,,,,,,,,,,,,,,,,,,,,,,,,,,,,19
2,fullscreen,2,6192,0.0-2.0,,,True,,,,,,,,,,,,,,,,,,,,,,,,,,,,,,,19
3,html-keyboard-response,3,10157,0.0-3.0,3963.599999904633,s,,"<h1>Consent Form</h1>
       <p>By answering the following questions, you are participating in a study being performed by cognitive scientists in the Stanford Department of Psychology. If you have questions about this research, please contact us at stanfordpsych251@gmail.com. You must be at least 18 years old to participate. Your participation in this research is voluntary. You may decline to answer any or all of the following questions. You may decline further participation by closing the window, at any time, without adverse consequences. Your anonymity is assured; the researchers who have requested your participation will not receive any personal information about you.</p>
       <p>Press <b>any key</b> to start the experiment!</p>",,,,,,,,,,,,,,,,,,,,,,,,,,,,,,19
4,html-keyboard-response,4,13234,0.0-4.0,3076.100000023842,s,,"<h1>Welcome to the Visual Crowding Experiment!</h1>
       <p>This test will take <b>10-12</b> minutes to complete.</p>
       <p>Press any key to start the experiment!</p>","12/1/2021, 12:57:47 AM",1638338267431.0,,,,,,,,,,,,,,,,,,,,,,,,,,,,19
5,html-keyboard-response,5,21357,0.0-5.0,8122.200000047684,arrowdown,,"<div> 
<p> Before you begin this study, let&#39;s quickly test how far away you are sitting. You might know that vision tests at a doctor&#39;s practice often involve chinrests, the doctor basically asks you to sit away from a screen in a specific distance. We do this here with a <b>virtual chinrest</b>. </p>
<p> Please press the <b>down</b> arrow to continue.
</p>
</div>",,,,,,,,,,,,,,,,,,,,,,,,,,,,,,19
6,virtual-chinrest,6,112011,0.0-6.0,90655.79999995232,,,,,,85.6,53.98,276.0,3.22,500.6,9.773512798746284,28.23959058358264,50.99224068911105,31.87015043069441,,,,,,,,,,,,,,,,,,,19
7,html-keyboard-response,7,137648,0.0-7.0,25634.29999995232,arrowdown,,"
	<h2 class=""bolded-blue"">Now, you will take a peripheral vision test!</h2>
<p> 
	<b>
		<font size=""140%"">1. </font>
	</b>
	<em><b>Please use both eyes for the following task.</b></em> First, you will see a screen (like the one in the image below) showing a <b>black dot</b> in the middle of the screen, with a group of circles displayed on either the <span class=""bolded-blue"">left</span> or <span class=""bolded-blue"">right</span> of the black dot for 150 ms. <span class=""bolded-blue"">Please make sure to focus on the black dot all the time!</span>

	<div>
		<img src=""example.png"" alt=""example"" style=""border: 2px solid black"" width=""600""/> 
	</div>
	
	<b>
		<font size=""140%"">2. </font>
	</b>
	Your task is to identify whether the opening of the <b class=""bolded-blue"">center circle</b> is upward by pressing UP or downward by pressing DOWN on your keyboard. The opening of the circle will only be upward or downward, not towards left or right.

	<div>
		<img src=""arrow_keys+.png"" alt=""arrows"" style=""border: 2px solid black"" width=""600""/>
	</div>
	<br>

<p>Please press the <b>down</b> arrow key to start the <span class=""bolded-blue"">practice task</span> (this first practice task will not count toward your final results).</p>
</p>
",,,,,,,,,,,,,,,,,,,,,,,,,,,,,,19
8,html-keyboard-response,8,138151,0.0-8.0,,,,"
    <div style="" display: block;  position: relative;"">
    
    <svg width=1440 height=900>
    <circle cx=657 cy=450 r=9.56938018901077 stroke=""black"" stroke-width=""1"" fill=""black"" />
    <circle cx=NaN cy=450 r=13.670543127158245 stroke=""none"" stroke-width=""1.5"" fill=""none"" />
    <circle cx=547.5 cy=NaN r=13.670543127158245 stroke=""none"" stroke-width=""1.5"" fill=""none"" />
    <circle cx=NaN cy=450 r=13.670543127158245 stroke=""none"" stroke-width=""1.5"" fill=""none"" />
    <circle cx=547.5 cy=NaN r=13.670543127158245 stroke=""none"" stroke-width=""1.5"" fill=""none"" />
    <polygon points = ""547.5,450 551.345455428954,463.6705431271582 543.654544571046,463.6705431271582"" stroke=""none"" stroke-width=""3"" fill = ""none"" />
    
    </svg>
    </div>
        ",,,,,,,,,,,,,,,,,,,,,,,,,,,,,,19
9,html-keyboard-response,9,138306,0.0-9.0,,,,"
    <div style="" display: block;  position: relative;"">
    <svg width=1440 height=900>
    
    <circle cx=657 cy=450 r=9.56938018901077 stroke=""black"" stroke-width=""1"" fill=""black"" />
    <circle cx=547.5 cy=450 r=13.670543127158245 stroke=""black"" stroke-width=""1.5"" fill=""none"" />
    <circle cx=618.675 cy=450 r=13.670543127158245 stroke=""black"" stroke-width=""1.5"" fill=""none"" />
    <circle cx=547.5 cy=521.175 r=13.670543127158245 stroke=""black"" stroke-width=""1.5"" fill=""none"" />
    <circle cx=476.325 cy=450 r=13.670543127158245 stroke=""black"" stroke-width=""1.5"" fill=""none"" />
    <circle cx=547.5 cy=378.825 r=13.670543127158245 stroke=""black"" stroke-width=""1.5"" fill=""none"" />
    <polygon points = ""547.5,450 551.345455428954,463.6705431271582 543.654544571046,463.6705431271582"" stroke=""white"" stroke-width=""3"" fill = ""white"" />
    
    </svg>
    </div>
        ",,,,,,,,,,,,stimulus,,,,,,,,,,,,,,,,,,19
10,html-keyboard-response,10,138918,0.0-10.0,610.3999999761581,arrowdown,,"
    <div style="" display: block;  position: relative;"">
    
    <svg width=1440 height=900>
    <circle cx=657 cy=450 r=9.56938018901077 stroke=""black"" stroke-width=""1"" fill=""black"" />
    <circle cx=618.675 cy=450 r=13.670543127158245 stroke=""none"" stroke-width=""1.5"" fill=""none"" />
    <circle cx=547.5 cy=521.175 r=13.670543127158245 stroke=""none"" stroke-width=""1.5"" fill=""none"" />
    <circle cx=476.325 cy=450 r=13.670543127158245 stroke=""none"" stroke-width=""1.5"" fill=""none"" />
    <circle cx=547.5 cy=378.825 r=13.670543127158245 stroke=""none"" stroke-width=""1.5"" fill=""none"" />
    <polygon points = ""547.5,450 551.345455428954,463.6705431271582 543.654544571046,463.6705431271582"" stroke=""none"" stroke-width=""3"" fill = ""none"" />
    
    </svg>
    </div>
        ",,,,,,,,,,,,practice_get_response,True,p17gKbbNI6EjdyaI,71.175,2.6,True,False,True,109.5,4.0,488.002,,,,,,,,19
11,html-keyboard-response,11,139422,0.0-11.0,,,,"
    <div style="" display: block;  position: relative;"">
    
    <svg width=1440 height=900>
    <circle cx=657 cy=450 r=9.56938018901077 stroke=""black"" stroke-width=""1"" fill=""black"" />
    <circle cx=618.675 cy=450 r=13.670543127158245 stroke=""none"" stroke-width=""1.5"" fill=""none"" />
    <circle cx=547.5 cy=521.175 r=13.670543127158245 stroke=""none"" stroke-width=""1.5"" fill=""none"" />
    <circle cx=476.325 cy=450 r=13.670543127158245 stroke=""none"" stroke-width=""1.5"" fill=""none"" />
    <circle cx=547.5 cy=378.825 r=13.670543127158245 stroke=""none"" stroke-width=""1.5"" fill=""none"" />
    <polygon points = ""547.5,450 551.345455428954,463.6705431271582 543.654544571046,463.6705431271582"" stroke=""none"" stroke-width=""3"" fill = ""none"" />
    
    </svg>
    </div>
        ",,,,,,,,,,,,,,,,,,,,,,,,,,,,,,19
12,html-keyboard-response,12,139576,0.0-12.0,,,,"
    <div style="" display: block;  position: relative;"">
    <svg width=1440 height=900>
    
    <circle cx=657 cy=450 r=9.56938018901077 stroke=""black"" stroke-width=""1"" fill=""black"" />
    <circle cx=547.5 cy=450 r=13.670543127158245 stroke=""black"" stroke-width=""1.5"" fill=""none"" />
    <circle cx=618.675 cy=450 r=13.670543127158245 stroke=""black"" stroke-width=""1.5"" fill=""none"" />
    <circle cx=547.5 cy=521.175 r=13.670543127158245 stroke=""black"" stroke-width=""1.5"" fill=""none"" />
    <circle cx=476.325 cy=450 r=13.670543127158245 stroke=""black"" stroke-width=""1.5"" fill=""none"" />
    <circle cx=547.5 cy=378.825 r=13.670543127158245 stroke=""black"" stroke-width=""1.5"" fill=""none"" />
    <polygon points = ""547.5,450 551.345455428954,463.6705431271582 543.654544571046,463.6705431271582"" stroke=""white"" stroke-width=""3"" fill = ""white"" />
    
    </svg>
    </div>
        ",,,,,,,,,,,,stimulus,,,,,,,,,,,,,,,,,,19
13,html-keyboard-response,13,140078,0.0-13.0,501.10000002384186,arrowdown,,"
    <div style="" display: block;  position: relative;"">
    
    <svg width=1440 height=900>
    <circle cx=657 cy=450 r=9.56938018901077 stroke=""black"" stroke-width=""1"" fill=""black"" />
    <circle cx=618.675 cy=450 r=13.670543127158245 stroke=""none"" stroke-width=""1.5"" fill=""none"" />
    <circle cx=547.5 cy=521.175 r=13.670543127158245 stroke=""none"" stroke-width=""1.5"" fill=""none"" />
    <circle cx=476.325 cy=450 r=13.670543127158245 stroke=""none"" stroke-width=""1.5"" fill=""none"" />
    <circle cx=547.5 cy=378.825 r=13.670543127158245 stroke=""none"" stroke-width=""1.5"" fill=""none"" />
    <polygon points = ""547.5,450 551.345455428954,463.6705431271582 543.654544571046,463.6705431271582"" stroke=""none"" stroke-width=""3"" fill = ""none"" />
    
    </svg>
    </div>
        ",,,,,,,,,,,,practice_get_response,True,p17gKbbNI6EjdyaI,71.175,2.6,True,False,True,109.5,4.0,488.002,,,,,,,,19
14,html-keyboard-response,14,140580,0.0-14.0,,,,"
    <div style="" display: block;  position: relative;"">
    
    <svg width=1440 height=900>
    <circle cx=657 cy=450 r=9.56938018901077 stroke=""black"" stroke-width=""1"" fill=""black"" />
    <circle cx=618.675 cy=450 r=13.670543127158245 stroke=""none"" stroke-width=""1.5"" fill=""none"" />
    <circle cx=547.5 cy=521.175 r=13.670543127158245 stroke=""none"" stroke-width=""1.5"" fill=""none"" />
    <circle cx=476.325 cy=450 r=13.670543127158245 stroke=""none"" stroke-width=""1.5"" fill=""none"" />
    <circle cx=547.5 cy=378.825 r=13.670543127158245 stroke=""none"" stroke-width=""1.5"" fill=""none"" />
    <polygon points = ""547.5,450 551.345455428954,463.6705431271582 543.654544571046,463.6705431271582"" stroke=""none"" stroke-width=""3"" fill = ""none"" />
    
    </svg>
    </div>
        ",,,,,,,,,,,,,,,,,,,,,,,,,,,,,,19
15,html-keyboard-response,15,140733,0.0-15.0,,,,"
    <div style="" display: block;  position: relative;"">
    <svg width=1440 height=900>
    
    <circle cx=657 cy=450 r=9.56938018901077 stroke=""black"" stroke-width=""1"" fill=""black"" />
    <circle cx=766.5 cy=450 r=13.670543127158245 stroke=""black"" stroke-width=""1.5"" fill=""none"" />
    <circle cx=837.675 cy=450 r=13.670543127158245 stroke=""black"" stroke-width=""1.5"" fill=""none"" />
    <circle cx=766.5 cy=521.175 r=13.670543127158245 stroke=""black"" stroke-width=""1.5"" fill=""none"" />
    <circle cx=695.325 cy=450 r=13.670543127158245 stroke=""black"" stroke-width=""1.5"" fill=""none"" />
    <circle cx=766.5 cy=378.825 r=13.670543127158245 stroke=""black"" stroke-width=""1.5"" fill=""none"" />
    <polygon points = ""766.5,450 770.345455428954,436.3294568728418 762.654544571046,436.3294568728418"" stroke=""white"" stroke-width=""3"" fill = ""white"" />
    
    </svg>
    </div>
        ",,,,,,,,,,,,stimulus,,,,,,,,,,,,,,,,,,19
16,html-keyboard-response,16,141142,0.0-16.0,407.7000000476837,arrowup,,"
    <div style="" display: block;  position: relative;"">
    
    <svg width=1440 height=900>
    <circle cx=657 cy=450 r=9.56938018901077 stroke=""black"" stroke-width=""1"" fill=""black"" />
    <circle cx=837.675 cy=450 r=13.670543127158245 stroke=""none"" stroke-width=""1.5"" fill=""none"" />
    <circle cx=766.5 cy=521.175 r=13.670543127158245 stroke=""none"" stroke-width=""1.5"" fill=""none"" />
    <circle cx=695.325 cy=450 r=13.670543127158245 stroke=""none"" stroke-width=""1.5"" fill=""none"" />
    <circle cx=766.5 cy=378.825 r=13.670543127158245 stroke=""none"" stroke-width=""1.5"" fill=""none"" />
    <polygon points = ""766.5,450 770.345455428954,436.3294568728418 762.654544571046,436.3294568728418"" stroke=""none"" stroke-width=""3"" fill = ""none"" />
    
    </svg>
    </div>
        ",,,,,,,,,,,,practice_get_response,True,p17gKbbNI6EjdyaI,71.175,2.6,False,True,True,109.5,4.0,488.002,,,,,,,,19
17,html-keyboard-response,17,141645,0.0-17.0,,,,"
    <div style="" display: block;  position: relative;"">
    
    <svg width=1440 height=900>
    <circle cx=657 cy=450 r=9.56938018901077 stroke=""black"" stroke-width=""1"" fill=""black"" />
    <circle cx=837.675 cy=450 r=13.670543127158245 stroke=""none"" stroke-width=""1.5"" fill=""none"" />
    <circle cx=766.5 cy=521.175 r=13.670543127158245 stroke=""none"" stroke-width=""1.5"" fill=""none"" />
    <circle cx=695.325 cy=450 r=13.670543127158245 stroke=""none"" stroke-width=""1.5"" fill=""none"" />
    <circle cx=766.5 cy=378.825 r=13.670543127158245 stroke=""none"" stroke-width=""1.5"" fill=""none"" />
    <polygon points = ""766.5,450 770.345455428954,436.3294568728418 762.654544571046,436.3294568728418"" stroke=""none"" stroke-width=""3"" fill = ""none"" />
    
    </svg>
    </div>
        ",,,,,,,,,,,,,,,,,,,,,,,,,,,,,,19
18,html-keyboard-response,18,141799,0.0-18.0,,,,"
    <div style="" display: block;  position: relative;"">
    <svg width=1440 height=900>
    
    <circle cx=657 cy=450 r=9.56938018901077 stroke=""black"" stroke-width=""1"" fill=""black"" />
    <circle cx=547.5 cy=450 r=13.670543127158245 stroke=""black"" stroke-width=""1.5"" fill=""none"" />
    <circle cx=612.2045454545455 cy=450 r=13.670543127158245 stroke=""black"" stroke-width=""1.5"" fill=""none"" />
    <circle cx=547.5 cy=514.7045454545455 r=13.670543127158245 stroke=""black"" stroke-width=""1.5"" fill=""none"" />
    <circle cx=482.79545454545456 cy=450 r=13.670543127158245 stroke=""black"" stroke-width=""1.5"" fill=""none"" />
    <circle cx=547.5 cy=385.29545454545456 r=13.670543127158245 stroke=""black"" stroke-width=""1.5"" fill=""none"" />
    <polygon points = ""547.5,450 551.345455428954,436.3294568728418 543.654544571046,436.3294568728418"" stroke=""white"" stroke-width=""3"" fill = ""white"" />
    
    </svg>
    </div>
        ",,,,,,,,,,,,stimulus,,,,,,,,,,,,,,,,,,19
19,html-keyboard-response,19,142109,0.0-19.0,309.2000000476837,arrowdown,,"
    <div style="" display: block;  position: relative;"">
    
    <svg width=1440 height=900>
    <circle cx=657 cy=450 r=9.56938018901077 stroke=""black"" stroke-width=""1"" fill=""black"" />
    <circle cx=612.2045454545455 cy=450 r=13.670543127158245 stroke=""none"" stroke-width=""1.5"" fill=""none"" />
    <circle cx=547.5 cy=514.7045454545455 r=13.670543127158245 stroke=""none"" stroke-width=""1.5"" fill=""none"" />
    <circle cx=482.79545454545456 cy=450 r=13.670543127158245 stroke=""none"" stroke-width=""1.5"" fill=""none"" />
    <circle cx=547.5 cy=385.29545454545456 r=13.670543127158245 stroke=""none"" stroke-width=""1.5"" fill=""none"" />
    <polygon points = ""547.5,450 551.345455428954,436.3294568728418 543.654544571046,436.3294568728418"" stroke=""none"" stroke-width=""3"" fill = ""none"" />
    
    </svg>
    </div>
        ",,,,,,,,,,,,practice_get_response,False,p17gKbbNI6EjdyaI,64.70454545454545,2.36,True,True,True,109.5,4.0,488.002,,,,,,,,19
20,html-keyboard-response,20,142611,0.0-20.0,,,,"
    <div style="" display: block;  position: relative;"">
    
    <svg width=1440 height=900>
    <circle cx=657 cy=450 r=9.56938018901077 stroke=""black"" stroke-width=""1"" fill=""black"" />
    <circle cx=612.2045454545455 cy=450 r=13.670543127158245 stroke=""none"" stroke-width=""1.5"" fill=""none"" />
    <circle cx=547.5 cy=514.7045454545455 r=13.670543127158245 stroke=""none"" stroke-width=""1.5"" fill=""none"" />
    <circle cx=482.79545454545456 cy=450 r=13.670543127158245 stroke=""none"" stroke-width=""1.5"" fill=""none"" />
    <circle cx=547.5 cy=385.29545454545456 r=13.670543127158245 stroke=""none"" stroke-width=""1.5"" fill=""none"" />
    <polygon points = ""547.5,450 551.345455428954,436.3294568728418 543.654544571046,436.3294568728418"" stroke=""none"" stroke-width=""3"" fill = ""none"" />
    
    </svg>
    </div>
        ",,,,,,,,,,,,,,,,,,,,,,,,,,,,,,19
21,html-keyboard-response,21,142765,0.0-21.0,,,,"
    <div style="" display: block;  position: relative;"">
    <svg width=1440 height=900>
    
    <circle cx=657 cy=450 r=9.56938018901077 stroke=""black"" stroke-width=""1"" fill=""black"" />
    <circle cx=547.5 cy=450 r=13.670543127158245 stroke=""black"" stroke-width=""1.5"" fill=""none"" />
    <circle cx=629.6589137456835 cy=450 r=13.670543127158245 stroke=""black"" stroke-width=""1.5"" fill=""none"" />
    <circle cx=547.5 cy=532.1589137456835 r=13.670543127158245 stroke=""black"" stroke-width=""1.5"" fill=""none"" />
    <circle cx=465.3410862543165 cy=450 r=13.670543127158245 stroke=""black"" stroke-width=""1.5"" fill=""none"" />
    <circle cx=547.5 cy=367.8410862543165 r=13.670543127158245 stroke=""black"" stroke-width=""1.5"" fill=""none"" />
    <polygon points = ""547.5,450 551.345455428954,436.3294568728418 543.654544571046,436.3294568728418"" stroke=""white"" stroke-width=""3"" fill = ""white"" />
    
    </svg>
    </div>
        ",,,,,,,,,,,,stimulus,,,,,,,,,,,,,,,,,,19
22,html-keyboard-response,22,143181,0.0-22.0,415.7000000476837,arrowup,,"
    <div style="" display: block;  position: relative;"">
    
    <svg width=1440 height=900>
    <circle cx=657 cy=450 r=9.56938018901077 stroke=""black"" stroke-width=""1"" fill=""black"" />
    <circle cx=629.6589137456835 cy=450 r=13.670543127158245 stroke=""none"" stroke-width=""1.5"" fill=""none"" />
    <circle cx=547.5 cy=532.1589137456835 r=13.670543127158245 stroke=""none"" stroke-width=""1.5"" fill=""none"" />
    <circle cx=465.3410862543165 cy=450 r=13.670543127158245 stroke=""none"" stroke-width=""1.5"" fill=""none"" />
    <circle cx=547.5 cy=367.8410862543165 r=13.670543127158245 stroke=""none"" stroke-width=""1.5"" fill=""none"" />
    <polygon points = ""547.5,450 551.345455428954,436.3294568728418 543.654544571046,436.3294568728418"" stroke=""none"" stroke-width=""3"" fill = ""none"" />
    
    </svg>
    </div>
        ",,,,,,,,,,,,practice_get_response,True,p17gKbbNI6EjdyaI,82.1589137456835,3.0,True,True,True,109.5,4.0,488.002,,,,,,,,19
23,html-keyboard-response,23,146166,0.0-23.0,2984.100000023842,arrowdown,,"<div> 
<h2 class=""bolded-blue"">Well done!</h2>
<p> Now that you have the hang of it, we&#39;ll start the study. This session has 25 trials and takes about 2 minute to complete. </p> 
<p>If you are ready for the real deal, please press the <b>down</b> arrow to continue.
</p>
</div>",,,,,,,,,,,,,,,,,,,,,,,,,,,,,,19
24,html-keyboard-response,24,152751,0.0-24.0,6584.600000023842,arrowdown,,"<div id=""continue""> 
<p>Again, please keep the <b>full screen</b> mode for the best experience.</p>
<p>Please do not move around and keep your eye on the black dot. Click <b>up</b> or <b>down</b> key on your keyboard to indicate the opening of the center circle. Make your best guess!</p>
<p>Please press the <b>down</b> arrow key to start the session 1. </p>
</div>",,,,,,,,,,,,,,,,,,,,,,,,,,,,,,19
25,html-keyboard-response,25,153255,0.0-25.0,,,,"
    <div style="" display: block;  position: relative;"">
    
    <svg width=1440 height=900>
    <circle cx=657 cy=450 r=9.56938018901077 stroke=""black"" stroke-width=""1"" fill=""black"" />
    <circle cx=629.6589137456835 cy=450 r=13.670543127158245 stroke=""none"" stroke-width=""1.5"" fill=""none"" />
    <circle cx=547.5 cy=532.1589137456835 r=13.670543127158245 stroke=""none"" stroke-width=""1.5"" fill=""none"" />
    <circle cx=465.3410862543165 cy=450 r=13.670543127158245 stroke=""none"" stroke-width=""1.5"" fill=""none"" />
    <circle cx=547.5 cy=367.8410862543165 r=13.670543127158245 stroke=""none"" stroke-width=""1.5"" fill=""none"" />
    <polygon points = ""547.5,450 551.345455428954,463.6705431271582 543.654544571046,463.6705431271582"" stroke=""none"" stroke-width=""3"" fill = ""none"" />
    
    </svg>
    </div>
        ",,,,,,,,,,,,,,,,,,,,,,,,,,,,,,19
26,html-keyboard-response,26,153410,0.0-26.0,,,,"
    <div style="" display: block;  position: relative;"">
    <svg width=1440 height=900>
    
    <circle cx=657 cy=450 r=9.56938018901077 stroke=""black"" stroke-width=""1"" fill=""black"" />
    <circle cx=766.5 cy=450 r=13.670543127158245 stroke=""black"" stroke-width=""1.5"" fill=""none"" />
    <circle cx=837.675 cy=450 r=13.670543127158245 stroke=""black"" stroke-width=""1.5"" fill=""none"" />
    <circle cx=766.5 cy=521.175 r=13.670543127158245 stroke=""black"" stroke-width=""1.5"" fill=""none"" />
    <circle cx=695.325 cy=450 r=13.670543127158245 stroke=""black"" stroke-width=""1.5"" fill=""none"" />
    <circle cx=766.5 cy=378.825 r=13.670543127158245 stroke=""black"" stroke-width=""1.5"" fill=""none"" />
    <polygon points = ""766.5,450 770.345455428954,436.3294568728418 762.654544571046,436.3294568728418"" stroke=""white"" stroke-width=""3"" fill = ""white"" />
    
    </svg>
    </div>
        ",,,,,,,,,,,,stimulus,,,,,,,,,,,,,,,,,,19
27,html-keyboard-response,27,153749,0.0-27.0,338.10000002384186,arrowup,,"
    <div style="" display: block;  position: relative;"">
    
    <svg width=1440 height=900>
    <circle cx=657 cy=450 r=9.56938018901077 stroke=""black"" stroke-width=""1"" fill=""black"" />
    <circle cx=837.675 cy=450 r=13.670543127158245 stroke=""none"" stroke-width=""1.5"" fill=""none"" />
    <circle cx=766.5 cy=521.175 r=13.670543127158245 stroke=""none"" stroke-width=""1.5"" fill=""none"" />
    <circle cx=695.325 cy=450 r=13.670543127158245 stroke=""none"" stroke-width=""1.5"" fill=""none"" />
    <circle cx=766.5 cy=378.825 r=13.670543127158245 stroke=""none"" stroke-width=""1.5"" fill=""none"" />
    <polygon points = ""766.5,450 770.345455428954,436.3294568728418 762.654544571046,436.3294568728418"" stroke=""none"" stroke-width=""3"" fill = ""none"" />
    
    </svg>
    </div>
        ",,,,,,,,,,,,get_response,True,p17gKbbNI6EjdyaI,,,False,True,True,109.5,4.0,488.002,71.175,2.6,1.0,0.0,,,,19
28,html-keyboard-response,28,154252,0.0-28.0,,,,"
    <div style="" display: block;  position: relative;"">
    
    <svg width=1440 height=900>
    <circle cx=657 cy=450 r=9.56938018901077 stroke=""black"" stroke-width=""1"" fill=""black"" />
    <circle cx=837.675 cy=450 r=13.670543127158245 stroke=""none"" stroke-width=""1.5"" fill=""none"" />
    <circle cx=766.5 cy=521.175 r=13.670543127158245 stroke=""none"" stroke-width=""1.5"" fill=""none"" />
    <circle cx=695.325 cy=450 r=13.670543127158245 stroke=""none"" stroke-width=""1.5"" fill=""none"" />
    <circle cx=766.5 cy=378.825 r=13.670543127158245 stroke=""none"" stroke-width=""1.5"" fill=""none"" />
    <polygon points = ""766.5,450 770.345455428954,436.3294568728418 762.654544571046,436.3294568728418"" stroke=""none"" stroke-width=""3"" fill = ""none"" />
    
    </svg>
    </div>
        ",,,,,,,,,,,,,,,,,,,,,,,,,,,,,,19
29,html-keyboard-response,29,154407,0.0-29.0,,,,"
    <div style="" display: block;  position: relative;"">
    <svg width=1440 height=900>
    
    <circle cx=657 cy=450 r=9.56938018901077 stroke=""black"" stroke-width=""1"" fill=""black"" />
    <circle cx=766.5 cy=450 r=13.670543127158245 stroke=""black"" stroke-width=""1.5"" fill=""none"" />
    <circle cx=837.675 cy=450 r=13.670543127158245 stroke=""black"" stroke-width=""1.5"" fill=""none"" />
    <circle cx=766.5 cy=521.175 r=13.670543127158245 stroke=""black"" stroke-width=""1.5"" fill=""none"" />
    <circle cx=695.325 cy=450 r=13.670543127158245 stroke=""black"" stroke-width=""1.5"" fill=""none"" />
    <circle cx=766.5 cy=378.825 r=13.670543127158245 stroke=""black"" stroke-width=""1.5"" fill=""none"" />
    <polygon points = ""766.5,450 770.345455428954,436.3294568728418 762.654544571046,436.3294568728418"" stroke=""white"" stroke-width=""3"" fill = ""white"" />
    
    </svg>
    </div>
        ",,,,,,,,,,,,stimulus,,,,,,,,,,,,,,,,,,19
30,html-keyboard-response,30,154853,0.0-30.0,445.2999999523163,arrowup,,"
    <div style="" display: block;  position: relative;"">
    
    <svg width=1440 height=900>
    <circle cx=657 cy=450 r=9.56938018901077 stroke=""black"" stroke-width=""1"" fill=""black"" />
    <circle cx=837.675 cy=450 r=13.670543127158245 stroke=""none"" stroke-width=""1.5"" fill=""none"" />
    <circle cx=766.5 cy=521.175 r=13.670543127158245 stroke=""none"" stroke-width=""1.5"" fill=""none"" />
    <circle cx=695.325 cy=450 r=13.670543127158245 stroke=""none"" stroke-width=""1.5"" fill=""none"" />
    <circle cx=766.5 cy=378.825 r=13.670543127158245 stroke=""none"" stroke-width=""1.5"" fill=""none"" />
    <polygon points = ""766.5,450 770.345455428954,436.3294568728418 762.654544571046,436.3294568728418"" stroke=""none"" stroke-width=""3"" fill = ""none"" />
    
    </svg>
    </div>
        ",,,,,,,,,,,,get_response,True,p17gKbbNI6EjdyaI,,,False,True,True,109.5,4.0,488.002,71.175,2.6,1.0,0.0,,,,19
31,html-keyboard-response,31,155356,0.0-31.0,,,,"
    <div style="" display: block;  position: relative;"">
    
    <svg width=1440 height=900>
    <circle cx=657 cy=450 r=9.56938018901077 stroke=""black"" stroke-width=""1"" fill=""black"" />
    <circle cx=837.675 cy=450 r=13.670543127158245 stroke=""none"" stroke-width=""1.5"" fill=""none"" />
    <circle cx=766.5 cy=521.175 r=13.670543127158245 stroke=""none"" stroke-width=""1.5"" fill=""none"" />
    <circle cx=695.325 cy=450 r=13.670543127158245 stroke=""none"" stroke-width=""1.5"" fill=""none"" />
    <circle cx=766.5 cy=378.825 r=13.670543127158245 stroke=""none"" stroke-width=""1.5"" fill=""none"" />
    <polygon points = ""766.5,450 770.345455428954,436.3294568728418 762.654544571046,436.3294568728418"" stroke=""none"" stroke-width=""3"" fill = ""none"" />
    
    </svg>
    </div>
        ",,,,,,,,,,,,,,,,,,,,,,,,,,,,,,19
32,html-keyboard-response,32,155511,0.0-32.0,,,,"
    <div style="" display: block;  position: relative;"">
    <svg width=1440 height=900>
    
    <circle cx=657 cy=450 r=9.56938018901077 stroke=""black"" stroke-width=""1"" fill=""black"" />
    <circle cx=766.5 cy=450 r=13.670543127158245 stroke=""black"" stroke-width=""1.5"" fill=""none"" />
    <circle cx=837.675 cy=450 r=13.670543127158245 stroke=""black"" stroke-width=""1.5"" fill=""none"" />
    <circle cx=766.5 cy=521.175 r=13.670543127158245 stroke=""black"" stroke-width=""1.5"" fill=""none"" />
    <circle cx=695.325 cy=450 r=13.670543127158245 stroke=""black"" stroke-width=""1.5"" fill=""none"" />
    <circle cx=766.5 cy=378.825 r=13.670543127158245 stroke=""black"" stroke-width=""1.5"" fill=""none"" />
    <polygon points = ""766.5,450 770.345455428954,436.3294568728418 762.654544571046,436.3294568728418"" stroke=""white"" stroke-width=""3"" fill = ""white"" />
    
    </svg>
    </div>
        ",,,,,,,,,,,,stimulus,,,,,,,,,,,,,,,,,,19
33,html-keyboard-response,33,155853,0.0-33.0,341.0,arrowup,,"
    <div style="" display: block;  position: relative;"">
    
    <svg width=1440 height=900>
    <circle cx=657 cy=450 r=9.56938018901077 stroke=""black"" stroke-width=""1"" fill=""black"" />
    <circle cx=837.675 cy=450 r=13.670543127158245 stroke=""none"" stroke-width=""1.5"" fill=""none"" />
    <circle cx=766.5 cy=521.175 r=13.670543127158245 stroke=""none"" stroke-width=""1.5"" fill=""none"" />
    <circle cx=695.325 cy=450 r=13.670543127158245 stroke=""none"" stroke-width=""1.5"" fill=""none"" />
    <circle cx=766.5 cy=378.825 r=13.670543127158245 stroke=""none"" stroke-width=""1.5"" fill=""none"" />
    <polygon points = ""766.5,450 770.345455428954,436.3294568728418 762.654544571046,436.3294568728418"" stroke=""none"" stroke-width=""3"" fill = ""none"" />
    
    </svg>
    </div>
        ",,,,,,,,,,,,get_response,True,p17gKbbNI6EjdyaI,,,False,True,True,109.5,4.0,488.002,71.175,2.6,1.0,0.0,,,,19
34,html-keyboard-response,34,156354,0.0-34.0,,,,"
    <div style="" display: block;  position: relative;"">
    
    <svg width=1440 height=900>
    <circle cx=657 cy=450 r=9.56938018901077 stroke=""black"" stroke-width=""1"" fill=""black"" />
    <circle cx=837.675 cy=450 r=13.670543127158245 stroke=""none"" stroke-width=""1.5"" fill=""none"" />
    <circle cx=766.5 cy=521.175 r=13.670543127158245 stroke=""none"" stroke-width=""1.5"" fill=""none"" />
    <circle cx=695.325 cy=450 r=13.670543127158245 stroke=""none"" stroke-width=""1.5"" fill=""none"" />
    <circle cx=766.5 cy=378.825 r=13.670543127158245 stroke=""none"" stroke-width=""1.5"" fill=""none"" />
    <polygon points = ""766.5,450 770.345455428954,436.3294568728418 762.654544571046,436.3294568728418"" stroke=""none"" stroke-width=""3"" fill = ""none"" />
    
    </svg>
    </div>
        ",,,,,,,,,,,,,,,,,,,,,,,,,,,,,,19
35,html-keyboard-response,35,156508,0.0-35.0,,,,"
    <div style="" display: block;  position: relative;"">
    <svg width=1440 height=900>
    
    <circle cx=657 cy=450 r=9.56938018901077 stroke=""black"" stroke-width=""1"" fill=""black"" />
    <circle cx=547.5 cy=450 r=13.670543127158245 stroke=""black"" stroke-width=""1.5"" fill=""none"" />
    <circle cx=612.2045454545455 cy=450 r=13.670543127158245 stroke=""black"" stroke-width=""1.5"" fill=""none"" />
    <circle cx=547.5 cy=514.7045454545455 r=13.670543127158245 stroke=""black"" stroke-width=""1.5"" fill=""none"" />
    <circle cx=482.79545454545456 cy=450 r=13.670543127158245 stroke=""black"" stroke-width=""1.5"" fill=""none"" />
    <circle cx=547.5 cy=385.29545454545456 r=13.670543127158245 stroke=""black"" stroke-width=""1.5"" fill=""none"" />
    <polygon points = ""547.5,450 551.345455428954,436.3294568728418 543.654544571046,436.3294568728418"" stroke=""white"" stroke-width=""3"" fill = ""white"" />
    
    </svg>
    </div>
        ",,,,,,,,,,,,stimulus,,,,,,,,,,,,,,,,,,19
36,html-keyboard-response,36,156781,0.0-36.0,271.8000000715256,arrowdown,,"
    <div style="" display: block;  position: relative;"">
    
    <svg width=1440 height=900>
    <circle cx=657 cy=450 r=9.56938018901077 stroke=""black"" stroke-width=""1"" fill=""black"" />
    <circle cx=612.2045454545455 cy=450 r=13.670543127158245 stroke=""none"" stroke-width=""1.5"" fill=""none"" />
    <circle cx=547.5 cy=514.7045454545455 r=13.670543127158245 stroke=""none"" stroke-width=""1.5"" fill=""none"" />
    <circle cx=482.79545454545456 cy=450 r=13.670543127158245 stroke=""none"" stroke-width=""1.5"" fill=""none"" />
    <circle cx=547.5 cy=385.29545454545456 r=13.670543127158245 stroke=""none"" stroke-width=""1.5"" fill=""none"" />
    <polygon points = ""547.5,450 551.345455428954,436.3294568728418 543.654544571046,436.3294568728418"" stroke=""none"" stroke-width=""3"" fill = ""none"" />
    
    </svg>
    </div>
        ",,,,,,,,,,,,get_response,False,p17gKbbNI6EjdyaI,,,True,True,True,109.5,4.0,488.002,64.70454545454545,2.36,1.0,0.0,,,,19
37,html-keyboard-response,37,157282,0.0-37.0,,,,"
    <div style="" display: block;  position: relative;"">
    
    <svg width=1440 height=900>
    <circle cx=657 cy=450 r=9.56938018901077 stroke=""black"" stroke-width=""1"" fill=""black"" />
    <circle cx=612.2045454545455 cy=450 r=13.670543127158245 stroke=""none"" stroke-width=""1.5"" fill=""none"" />
    <circle cx=547.5 cy=514.7045454545455 r=13.670543127158245 stroke=""none"" stroke-width=""1.5"" fill=""none"" />
    <circle cx=482.79545454545456 cy=450 r=13.670543127158245 stroke=""none"" stroke-width=""1.5"" fill=""none"" />
    <circle cx=547.5 cy=385.29545454545456 r=13.670543127158245 stroke=""none"" stroke-width=""1.5"" fill=""none"" />
    <polygon points = ""547.5,450 551.345455428954,436.3294568728418 543.654544571046,436.3294568728418"" stroke=""none"" stroke-width=""3"" fill = ""none"" />
    
    </svg>
    </div>
        ",,,,,,,,,,,,,,,,,,,,,,,,,,,,,,19
38,html-keyboard-response,38,157436,0.0-38.0,,,,"
    <div style="" display: block;  position: relative;"">
    <svg width=1440 height=900>
    
    <circle cx=657 cy=450 r=9.56938018901077 stroke=""black"" stroke-width=""1"" fill=""black"" />
    <circle cx=547.5 cy=450 r=13.670543127158245 stroke=""black"" stroke-width=""1.5"" fill=""none"" />
    <circle cx=629.6589137456835 cy=450 r=13.670543127158245 stroke=""black"" stroke-width=""1.5"" fill=""none"" />
    <circle cx=547.5 cy=532.1589137456835 r=13.670543127158245 stroke=""black"" stroke-width=""1.5"" fill=""none"" />
    <circle cx=465.3410862543165 cy=450 r=13.670543127158245 stroke=""black"" stroke-width=""1.5"" fill=""none"" />
    <circle cx=547.5 cy=367.8410862543165 r=13.670543127158245 stroke=""black"" stroke-width=""1.5"" fill=""none"" />
    <polygon points = ""547.5,450 551.345455428954,463.6705431271582 543.654544571046,463.6705431271582"" stroke=""white"" stroke-width=""3"" fill = ""white"" />
    
    </svg>
    </div>
        ",,,,,,,,,,,,stimulus,,,,,,,,,,,,,,,,,,19
39,html-keyboard-response,39,157846,0.0-39.0,408.60000002384186,arrowdown,,"
    <div style="" display: block;  position: relative;"">
    
    <svg width=1440 height=900>
    <circle cx=657 cy=450 r=9.56938018901077 stroke=""black"" stroke-width=""1"" fill=""black"" />
    <circle cx=629.6589137456835 cy=450 r=13.670543127158245 stroke=""none"" stroke-width=""1.5"" fill=""none"" />
    <circle cx=547.5 cy=532.1589137456835 r=13.670543127158245 stroke=""none"" stroke-width=""1.5"" fill=""none"" />
    <circle cx=465.3410862543165 cy=450 r=13.670543127158245 stroke=""none"" stroke-width=""1.5"" fill=""none"" />
    <circle cx=547.5 cy=367.8410862543165 r=13.670543127158245 stroke=""none"" stroke-width=""1.5"" fill=""none"" />
    <polygon points = ""547.5,450 551.345455428954,463.6705431271582 543.654544571046,463.6705431271582"" stroke=""none"" stroke-width=""3"" fill = ""none"" />
    
    </svg>
    </div>
        ",,,,,,,,,,,,get_response,True,p17gKbbNI6EjdyaI,,,True,False,True,109.5,4.0,488.002,82.1589137456835,3.0,1.0,0.0,,,,19
40,html-keyboard-response,40,158348,0.0-40.0,,,,"
    <div style="" display: block;  position: relative;"">
    
    <svg width=1440 height=900>
    <circle cx=657 cy=450 r=9.56938018901077 stroke=""black"" stroke-width=""1"" fill=""black"" />
    <circle cx=629.6589137456835 cy=450 r=13.670543127158245 stroke=""none"" stroke-width=""1.5"" fill=""none"" />
    <circle cx=547.5 cy=532.1589137456835 r=13.670543127158245 stroke=""none"" stroke-width=""1.5"" fill=""none"" />
    <circle cx=465.3410862543165 cy=450 r=13.670543127158245 stroke=""none"" stroke-width=""1.5"" fill=""none"" />
    <circle cx=547.5 cy=367.8410862543165 r=13.670543127158245 stroke=""none"" stroke-width=""1.5"" fill=""none"" />
    <polygon points = ""547.5,450 551.345455428954,463.6705431271582 543.654544571046,463.6705431271582"" stroke=""none"" stroke-width=""3"" fill = ""none"" />
    
    </svg>
    </div>
        ",,,,,,,,,,,,,,,,,,,,,,,,,,,,,,19
41,html-keyboard-response,41,158503,0.0-41.0,,,,"
    <div style="" display: block;  position: relative;"">
    <svg width=1440 height=900>
    
    <circle cx=657 cy=450 r=9.56938018901077 stroke=""black"" stroke-width=""1"" fill=""black"" />
    <circle cx=547.5 cy=450 r=13.670543127158245 stroke=""black"" stroke-width=""1.5"" fill=""none"" />
    <circle cx=629.6589137456835 cy=450 r=13.670543127158245 stroke=""black"" stroke-width=""1.5"" fill=""none"" />
    <circle cx=547.5 cy=532.1589137456835 r=13.670543127158245 stroke=""black"" stroke-width=""1.5"" fill=""none"" />
    <circle cx=465.3410862543165 cy=450 r=13.670543127158245 stroke=""black"" stroke-width=""1.5"" fill=""none"" />
    <circle cx=547.5 cy=367.8410862543165 r=13.670543127158245 stroke=""black"" stroke-width=""1.5"" fill=""none"" />
    <polygon points = ""547.5,450 551.345455428954,436.3294568728418 543.654544571046,436.3294568728418"" stroke=""white"" stroke-width=""3"" fill = ""white"" />
    
    </svg>
    </div>
        ",,,,,,,,,,,,stimulus,,,,,,,,,,,,,,,,,,19
42,html-keyboard-response,42,158893,0.0-42.0,389.10000002384186,arrowup,,"
    <div style="" display: block;  position: relative;"">
    
    <svg width=1440 height=900>
    <circle cx=657 cy=450 r=9.56938018901077 stroke=""black"" stroke-width=""1"" fill=""black"" />
    <circle cx=629.6589137456835 cy=450 r=13.670543127158245 stroke=""none"" stroke-width=""1.5"" fill=""none"" />
    <circle cx=547.5 cy=532.1589137456835 r=13.670543127158245 stroke=""none"" stroke-width=""1.5"" fill=""none"" />
    <circle cx=465.3410862543165 cy=450 r=13.670543127158245 stroke=""none"" stroke-width=""1.5"" fill=""none"" />
    <circle cx=547.5 cy=367.8410862543165 r=13.670543127158245 stroke=""none"" stroke-width=""1.5"" fill=""none"" />
    <polygon points = ""547.5,450 551.345455428954,436.3294568728418 543.654544571046,436.3294568728418"" stroke=""none"" stroke-width=""3"" fill = ""none"" />
    
    </svg>
    </div>
        ",,,,,,,,,,,,get_response,True,p17gKbbNI6EjdyaI,,,True,True,True,109.5,4.0,488.002,82.1589137456835,3.0,1.0,0.0,,,,19
43,html-keyboard-response,43,159394,0.0-43.0,,,,"
    <div style="" display: block;  position: relative;"">
    
    <svg width=1440 height=900>
    <circle cx=657 cy=450 r=9.56938018901077 stroke=""black"" stroke-width=""1"" fill=""black"" />
    <circle cx=629.6589137456835 cy=450 r=13.670543127158245 stroke=""none"" stroke-width=""1.5"" fill=""none"" />
    <circle cx=547.5 cy=532.1589137456835 r=13.670543127158245 stroke=""none"" stroke-width=""1.5"" fill=""none"" />
    <circle cx=465.3410862543165 cy=450 r=13.670543127158245 stroke=""none"" stroke-width=""1.5"" fill=""none"" />
    <circle cx=547.5 cy=367.8410862543165 r=13.670543127158245 stroke=""none"" stroke-width=""1.5"" fill=""none"" />
    <polygon points = ""547.5,450 551.345455428954,436.3294568728418 543.654544571046,436.3294568728418"" stroke=""none"" stroke-width=""3"" fill = ""none"" />
    
    </svg>
    </div>
        ",,,,,,,,,,,,,,,,,,,,,,,,,,,,,,19
44,html-keyboard-response,44,159547,0.0-44.0,,,,"
    <div style="" display: block;  position: relative;"">
    <svg width=1440 height=900>
    
    <circle cx=657 cy=450 r=9.56938018901077 stroke=""black"" stroke-width=""1"" fill=""black"" />
    <circle cx=547.5 cy=450 r=13.670543127158245 stroke=""black"" stroke-width=""1.5"" fill=""none"" />
    <circle cx=629.6589137456835 cy=450 r=13.670543127158245 stroke=""black"" stroke-width=""1.5"" fill=""none"" />
    <circle cx=547.5 cy=532.1589137456835 r=13.670543127158245 stroke=""black"" stroke-width=""1.5"" fill=""none"" />
    <circle cx=465.3410862543165 cy=450 r=13.670543127158245 stroke=""black"" stroke-width=""1.5"" fill=""none"" />
    <circle cx=547.5 cy=367.8410862543165 r=13.670543127158245 stroke=""black"" stroke-width=""1.5"" fill=""none"" />
    <polygon points = ""547.5,450 551.345455428954,463.6705431271582 543.654544571046,463.6705431271582"" stroke=""white"" stroke-width=""3"" fill = ""white"" />
    
    </svg>
    </div>
        ",,,,,,,,,,,,stimulus,,,,,,,,,,,,,,,,,,19
45,html-keyboard-response,45,159894,0.0-45.0,345.39999997615814,arrowdown,,"
    <div style="" display: block;  position: relative;"">
    
    <svg width=1440 height=900>
    <circle cx=657 cy=450 r=9.56938018901077 stroke=""black"" stroke-width=""1"" fill=""black"" />
    <circle cx=629.6589137456835 cy=450 r=13.670543127158245 stroke=""none"" stroke-width=""1.5"" fill=""none"" />
    <circle cx=547.5 cy=532.1589137456835 r=13.670543127158245 stroke=""none"" stroke-width=""1.5"" fill=""none"" />
    <circle cx=465.3410862543165 cy=450 r=13.670543127158245 stroke=""none"" stroke-width=""1.5"" fill=""none"" />
    <circle cx=547.5 cy=367.8410862543165 r=13.670543127158245 stroke=""none"" stroke-width=""1.5"" fill=""none"" />
    <polygon points = ""547.5,450 551.345455428954,463.6705431271582 543.654544571046,463.6705431271582"" stroke=""none"" stroke-width=""3"" fill = ""none"" />
    
    </svg>
    </div>
        ",,,,,,,,,,,,get_response,True,p17gKbbNI6EjdyaI,,,True,False,True,109.5,4.0,488.002,82.1589137456835,3.0,1.0,0.0,,,,19
46,html-keyboard-response,46,160396,0.0-46.0,,,,"
    <div style="" display: block;  position: relative;"">
    
    <svg width=1440 height=900>
    <circle cx=657 cy=450 r=9.56938018901077 stroke=""black"" stroke-width=""1"" fill=""black"" />
    <circle cx=629.6589137456835 cy=450 r=13.670543127158245 stroke=""none"" stroke-width=""1.5"" fill=""none"" />
    <circle cx=547.5 cy=532.1589137456835 r=13.670543127158245 stroke=""none"" stroke-width=""1.5"" fill=""none"" />
    <circle cx=465.3410862543165 cy=450 r=13.670543127158245 stroke=""none"" stroke-width=""1.5"" fill=""none"" />
    <circle cx=547.5 cy=367.8410862543165 r=13.670543127158245 stroke=""none"" stroke-width=""1.5"" fill=""none"" />
    <polygon points = ""547.5,450 551.345455428954,463.6705431271582 543.654544571046,463.6705431271582"" stroke=""none"" stroke-width=""3"" fill = ""none"" />
    
    </svg>
    </div>
        ",,,,,,,,,,,,,,,,,,,,,,,,,,,,,,19
47,html-keyboard-response,47,160551,0.0-47.0,,,,"
    <div style="" display: block;  position: relative;"">
    <svg width=1440 height=900>
    
    <circle cx=657 cy=450 r=9.56938018901077 stroke=""black"" stroke-width=""1"" fill=""black"" />
    <circle cx=547.5 cy=450 r=13.670543127158245 stroke=""black"" stroke-width=""1.5"" fill=""none"" />
    <circle cx=622.189921586985 cy=450 r=13.670543127158245 stroke=""black"" stroke-width=""1.5"" fill=""none"" />
    <circle cx=547.5 cy=524.689921586985 r=13.670543127158245 stroke=""black"" stroke-width=""1.5"" fill=""none"" />
    <circle cx=472.810078413015 cy=450 r=13.670543127158245 stroke=""black"" stroke-width=""1.5"" fill=""none"" />
    <circle cx=547.5 cy=375.310078413015 r=13.670543127158245 stroke=""black"" stroke-width=""1.5"" fill=""none"" />
    <polygon points = ""547.5,450 551.345455428954,436.3294568728418 543.654544571046,436.3294568728418"" stroke=""white"" stroke-width=""3"" fill = ""white"" />
    
    </svg>
    </div>
        ",,,,,,,,,,,,stimulus,,,,,,,,,,,,,,,,,,19
48,html-keyboard-response,48,160941,0.0-48.0,389.10000002384186,arrowup,,"
    <div style="" display: block;  position: relative;"">
    
    <svg width=1440 height=900>
    <circle cx=657 cy=450 r=9.56938018901077 stroke=""black"" stroke-width=""1"" fill=""black"" />
    <circle cx=622.189921586985 cy=450 r=13.670543127158245 stroke=""none"" stroke-width=""1.5"" fill=""none"" />
    <circle cx=547.5 cy=524.689921586985 r=13.670543127158245 stroke=""none"" stroke-width=""1.5"" fill=""none"" />
    <circle cx=472.810078413015 cy=450 r=13.670543127158245 stroke=""none"" stroke-width=""1.5"" fill=""none"" />
    <circle cx=547.5 cy=375.310078413015 r=13.670543127158245 stroke=""none"" stroke-width=""1.5"" fill=""none"" />
    <polygon points = ""547.5,450 551.345455428954,436.3294568728418 543.654544571046,436.3294568728418"" stroke=""none"" stroke-width=""3"" fill = ""none"" />
    
    </svg>
    </div>
        ",,,,,,,,,,,,get_response,True,p17gKbbNI6EjdyaI,,,True,True,True,109.5,4.0,488.002,74.689921586985,2.73,1.0,0.0,,,,19
49,html-keyboard-response,49,161442,0.0-49.0,,,,"
    <div style="" display: block;  position: relative;"">
    
    <svg width=1440 height=900>
    <circle cx=657 cy=450 r=9.56938018901077 stroke=""black"" stroke-width=""1"" fill=""black"" />
    <circle cx=622.189921586985 cy=450 r=13.670543127158245 stroke=""none"" stroke-width=""1.5"" fill=""none"" />
    <circle cx=547.5 cy=524.689921586985 r=13.670543127158245 stroke=""none"" stroke-width=""1.5"" fill=""none"" />
    <circle cx=472.810078413015 cy=450 r=13.670543127158245 stroke=""none"" stroke-width=""1.5"" fill=""none"" />
    <circle cx=547.5 cy=375.310078413015 r=13.670543127158245 stroke=""none"" stroke-width=""1.5"" fill=""none"" />
    <polygon points = ""547.5,450 551.345455428954,436.3294568728418 543.654544571046,436.3294568728418"" stroke=""none"" stroke-width=""3"" fill = ""none"" />
    
    </svg>
    </div>
        ",,,,,,,,,,,,,,,,,,,,,,,,,,,,,,19
50,html-keyboard-response,50,161596,0.0-50.0,,,,"
    <div style="" display: block;  position: relative;"">
    <svg width=1440 height=900>
    
    <circle cx=657 cy=450 r=9.56938018901077 stroke=""black"" stroke-width=""1"" fill=""black"" />
    <circle cx=766.5 cy=450 r=13.670543127158245 stroke=""black"" stroke-width=""1.5"" fill=""none"" />
    <circle cx=834.3999287154409 cy=450 r=13.670543127158245 stroke=""black"" stroke-width=""1.5"" fill=""none"" />
    <circle cx=766.5 cy=517.8999287154409 r=13.670543127158245 stroke=""black"" stroke-width=""1.5"" fill=""none"" />
    <circle cx=698.6000712845591 cy=450 r=13.670543127158245 stroke=""black"" stroke-width=""1.5"" fill=""none"" />
    <circle cx=766.5 cy=382.10007128455914 r=13.670543127158245 stroke=""black"" stroke-width=""1.5"" fill=""none"" />
    <polygon points = ""766.5,450 770.345455428954,436.3294568728418 762.654544571046,436.3294568728418"" stroke=""white"" stroke-width=""3"" fill = ""white"" />
    
    </svg>
    </div>
        ",,,,,,,,,,,,stimulus,,,,,,,,,,,,,,,,,,19
51,html-keyboard-response,51,161957,0.0-51.0,360.0,arrowup,,"
    <div style="" display: block;  position: relative;"">
    
    <svg width=1440 height=900>
    <circle cx=657 cy=450 r=9.56938018901077 stroke=""black"" stroke-width=""1"" fill=""black"" />
    <circle cx=834.3999287154409 cy=450 r=13.670543127158245 stroke=""none"" stroke-width=""1.5"" fill=""none"" />
    <circle cx=766.5 cy=517.8999287154409 r=13.670543127158245 stroke=""none"" stroke-width=""1.5"" fill=""none"" />
    <circle cx=698.6000712845591 cy=450 r=13.670543127158245 stroke=""none"" stroke-width=""1.5"" fill=""none"" />
    <circle cx=766.5 cy=382.10007128455914 r=13.670543127158245 stroke=""none"" stroke-width=""1.5"" fill=""none"" />
    <polygon points = ""766.5,450 770.345455428954,436.3294568728418 762.654544571046,436.3294568728418"" stroke=""none"" stroke-width=""3"" fill = ""none"" />
    
    </svg>
    </div>
        ",,,,,,,,,,,,get_response,True,p17gKbbNI6EjdyaI,,,False,True,True,109.5,4.0,488.002,67.8999287154409,2.48,1.0,0.0,,,,19
52,html-keyboard-response,52,162460,0.0-52.0,,,,"
    <div style="" display: block;  position: relative;"">
    
    <svg width=1440 height=900>
    <circle cx=657 cy=450 r=9.56938018901077 stroke=""black"" stroke-width=""1"" fill=""black"" />
    <circle cx=834.3999287154409 cy=450 r=13.670543127158245 stroke=""none"" stroke-width=""1.5"" fill=""none"" />
    <circle cx=766.5 cy=517.8999287154409 r=13.670543127158245 stroke=""none"" stroke-width=""1.5"" fill=""none"" />
    <circle cx=698.6000712845591 cy=450 r=13.670543127158245 stroke=""none"" stroke-width=""1.5"" fill=""none"" />
    <circle cx=766.5 cy=382.10007128455914 r=13.670543127158245 stroke=""none"" stroke-width=""1.5"" fill=""none"" />
    <polygon points = ""766.5,450 770.345455428954,436.3294568728418 762.654544571046,436.3294568728418"" stroke=""none"" stroke-width=""3"" fill = ""none"" />
    
    </svg>
    </div>
        ",,,,,,,,,,,,,,,,,,,,,,,,,,,,,,19
53,html-keyboard-response,53,162614,0.0-53.0,,,,"
    <div style="" display: block;  position: relative;"">
    <svg width=1440 height=900>
    
    <circle cx=657 cy=450 r=9.56938018901077 stroke=""black"" stroke-width=""1"" fill=""black"" />
    <circle cx=547.5 cy=450 r=13.670543127158245 stroke=""black"" stroke-width=""1.5"" fill=""none"" />
    <circle cx=609.227207923128 cy=450 r=13.670543127158245 stroke=""black"" stroke-width=""1.5"" fill=""none"" />
    <circle cx=547.5 cy=511.72720792312805 r=13.670543127158245 stroke=""black"" stroke-width=""1.5"" fill=""none"" />
    <circle cx=485.77279207687195 cy=450 r=13.670543127158245 stroke=""black"" stroke-width=""1.5"" fill=""none"" />
    <circle cx=547.5 cy=388.27279207687195 r=13.670543127158245 stroke=""black"" stroke-width=""1.5"" fill=""none"" />
    <polygon points = ""547.5,450 551.345455428954,463.6705431271582 543.654544571046,463.6705431271582"" stroke=""white"" stroke-width=""3"" fill = ""white"" />
    
    </svg>
    </div>
        ",,,,,,,,,,,,stimulus,,,,,,,,,,,,,,,,,,19
54,html-keyboard-response,54,162903,0.0-54.0,287.8000000715256,arrowdown,,"
    <div style="" display: block;  position: relative;"">
    
    <svg width=1440 height=900>
    <circle cx=657 cy=450 r=9.56938018901077 stroke=""black"" stroke-width=""1"" fill=""black"" />
    <circle cx=609.227207923128 cy=450 r=13.670543127158245 stroke=""none"" stroke-width=""1.5"" fill=""none"" />
    <circle cx=547.5 cy=511.72720792312805 r=13.670543127158245 stroke=""none"" stroke-width=""1.5"" fill=""none"" />
    <circle cx=485.77279207687195 cy=450 r=13.670543127158245 stroke=""none"" stroke-width=""1.5"" fill=""none"" />
    <circle cx=547.5 cy=388.27279207687195 r=13.670543127158245 stroke=""none"" stroke-width=""1.5"" fill=""none"" />
    <polygon points = ""547.5,450 551.345455428954,463.6705431271582 543.654544571046,463.6705431271582"" stroke=""none"" stroke-width=""3"" fill = ""none"" />
    
    </svg>
    </div>
        ",,,,,,,,,,,,get_response,True,p17gKbbNI6EjdyaI,,,True,False,True,109.5,4.0,488.002,61.72720792312808,2.25,1.0,0.0,,,,19
55,html-keyboard-response,55,163404,0.0-55.0,,,,"
    <div style="" display: block;  position: relative;"">
    
    <svg width=1440 height=900>
    <circle cx=657 cy=450 r=9.56938018901077 stroke=""black"" stroke-width=""1"" fill=""black"" />
    <circle cx=609.227207923128 cy=450 r=13.670543127158245 stroke=""none"" stroke-width=""1.5"" fill=""none"" />
    <circle cx=547.5 cy=511.72720792312805 r=13.670543127158245 stroke=""none"" stroke-width=""1.5"" fill=""none"" />
    <circle cx=485.77279207687195 cy=450 r=13.670543127158245 stroke=""none"" stroke-width=""1.5"" fill=""none"" />
    <circle cx=547.5 cy=388.27279207687195 r=13.670543127158245 stroke=""none"" stroke-width=""1.5"" fill=""none"" />
    <polygon points = ""547.5,450 551.345455428954,463.6705431271582 543.654544571046,463.6705431271582"" stroke=""none"" stroke-width=""3"" fill = ""none"" />
    
    </svg>
    </div>
        ",,,,,,,,,,,,,,,,,,,,,,,,,,,,,,19
56,html-keyboard-response,56,163558,0.0-56.0,,,,"
    <div style="" display: block;  position: relative;"">
    <svg width=1440 height=900>
    
    <circle cx=657 cy=450 r=9.56938018901077 stroke=""black"" stroke-width=""1"" fill=""black"" />
    <circle cx=766.5 cy=450 r=13.670543127158245 stroke=""black"" stroke-width=""1.5"" fill=""none"" />
    <circle cx=822.6156435664801 cy=450 r=13.670543127158245 stroke=""black"" stroke-width=""1.5"" fill=""none"" />
    <circle cx=766.5 cy=506.11564356648006 r=13.670543127158245 stroke=""black"" stroke-width=""1.5"" fill=""none"" />
    <circle cx=710.3843564335199 cy=450 r=13.670543127158245 stroke=""black"" stroke-width=""1.5"" fill=""none"" />
    <circle cx=766.5 cy=393.88435643351994 r=13.670543127158245 stroke=""black"" stroke-width=""1.5"" fill=""none"" />
    <polygon points = ""766.5,450 770.345455428954,463.6705431271582 762.654544571046,463.6705431271582"" stroke=""white"" stroke-width=""3"" fill = ""white"" />
    
    </svg>
    </div>
        ",,,,,,,,,,,,stimulus,,,,,,,,,,,,,,,,,,19
57,html-keyboard-response,57,164021,0.0-57.0,461.2999999523163,arrowdown,,"
    <div style="" display: block;  position: relative;"">
    
    <svg width=1440 height=900>
    <circle cx=657 cy=450 r=9.56938018901077 stroke=""black"" stroke-width=""1"" fill=""black"" />
    <circle cx=822.6156435664801 cy=450 r=13.670543127158245 stroke=""none"" stroke-width=""1.5"" fill=""none"" />
    <circle cx=766.5 cy=506.11564356648006 r=13.670543127158245 stroke=""none"" stroke-width=""1.5"" fill=""none"" />
    <circle cx=710.3843564335199 cy=450 r=13.670543127158245 stroke=""none"" stroke-width=""1.5"" fill=""none"" />
    <circle cx=766.5 cy=393.88435643351994 r=13.670543127158245 stroke=""none"" stroke-width=""1.5"" fill=""none"" />
    <polygon points = ""766.5,450 770.345455428954,463.6705431271582 762.654544571046,463.6705431271582"" stroke=""none"" stroke-width=""3"" fill = ""none"" />
    
    </svg>
    </div>
        ",,,,,,,,,,,,get_response,True,p17gKbbNI6EjdyaI,,,False,False,True,109.5,4.0,488.002,56.11564356648007,2.05,1.0,0.0,,,,19
58,html-keyboard-response,58,164524,0.0-58.0,,,,"
    <div style="" display: block;  position: relative;"">
    
    <svg width=1440 height=900>
    <circle cx=657 cy=450 r=9.56938018901077 stroke=""black"" stroke-width=""1"" fill=""black"" />
    <circle cx=822.6156435664801 cy=450 r=13.670543127158245 stroke=""none"" stroke-width=""1.5"" fill=""none"" />
    <circle cx=766.5 cy=506.11564356648006 r=13.670543127158245 stroke=""none"" stroke-width=""1.5"" fill=""none"" />
    <circle cx=710.3843564335199 cy=450 r=13.670543127158245 stroke=""none"" stroke-width=""1.5"" fill=""none"" />
    <circle cx=766.5 cy=393.88435643351994 r=13.670543127158245 stroke=""none"" stroke-width=""1.5"" fill=""none"" />
    <polygon points = ""766.5,450 770.345455428954,463.6705431271582 762.654544571046,463.6705431271582"" stroke=""none"" stroke-width=""3"" fill = ""none"" />
    
    </svg>
    </div>
        ",,,,,,,,,,,,,,,,,,,,,,,,,,,,,,19
59,html-keyboard-response,59,164678,0.0-59.0,,,,"
    <div style="" display: block;  position: relative;"">
    <svg width=1440 height=900>
    
    <circle cx=657 cy=450 r=9.56938018901077 stroke=""black"" stroke-width=""1"" fill=""black"" />
    <circle cx=547.5 cy=450 r=13.670543127158245 stroke=""black"" stroke-width=""1.5"" fill=""none"" />
    <circle cx=598.5142214240727 cy=450 r=13.670543127158245 stroke=""black"" stroke-width=""1.5"" fill=""none"" />
    <circle cx=547.5 cy=501.0142214240728 r=13.670543127158245 stroke=""black"" stroke-width=""1.5"" fill=""none"" />
    <circle cx=496.4857785759272 cy=450 r=13.670543127158245 stroke=""black"" stroke-width=""1.5"" fill=""none"" />
    <circle cx=547.5 cy=398.9857785759272 r=13.670543127158245 stroke=""black"" stroke-width=""1.5"" fill=""none"" />
    <polygon points = ""547.5,450 551.345455428954,436.3294568728418 543.654544571046,436.3294568728418"" stroke=""white"" stroke-width=""3"" fill = ""white"" />
    
    </svg>
    </div>
        ",,,,,,,,,,,,stimulus,,,,,,,,,,,,,,,,,,19
60,html-keyboard-response,60,165021,0.0-60.0,341.3000000715256,arrowup,,"
    <div style="" display: block;  position: relative;"">
    
    <svg width=1440 height=900>
    <circle cx=657 cy=450 r=9.56938018901077 stroke=""black"" stroke-width=""1"" fill=""black"" />
    <circle cx=598.5142214240727 cy=450 r=13.670543127158245 stroke=""none"" stroke-width=""1.5"" fill=""none"" />
    <circle cx=547.5 cy=501.0142214240728 r=13.670543127158245 stroke=""none"" stroke-width=""1.5"" fill=""none"" />
    <circle cx=496.4857785759272 cy=450 r=13.670543127158245 stroke=""none"" stroke-width=""1.5"" fill=""none"" />
    <circle cx=547.5 cy=398.9857785759272 r=13.670543127158245 stroke=""none"" stroke-width=""1.5"" fill=""none"" />
    <polygon points = ""547.5,450 551.345455428954,436.3294568728418 543.654544571046,436.3294568728418"" stroke=""none"" stroke-width=""3"" fill = ""none"" />
    
    </svg>
    </div>
        ",,,,,,,,,,,,get_response,True,p17gKbbNI6EjdyaI,,,True,True,True,109.5,4.0,488.002,51.01422142407279,1.86,1.0,0.0,,,,19
61,html-keyboard-response,61,165522,0.0-61.0,,,,"
    <div style="" display: block;  position: relative;"">
    
    <svg width=1440 height=900>
    <circle cx=657 cy=450 r=9.56938018901077 stroke=""black"" stroke-width=""1"" fill=""black"" />
    <circle cx=598.5142214240727 cy=450 r=13.670543127158245 stroke=""none"" stroke-width=""1.5"" fill=""none"" />
    <circle cx=547.5 cy=501.0142214240728 r=13.670543127158245 stroke=""none"" stroke-width=""1.5"" fill=""none"" />
    <circle cx=496.4857785759272 cy=450 r=13.670543127158245 stroke=""none"" stroke-width=""1.5"" fill=""none"" />
    <circle cx=547.5 cy=398.9857785759272 r=13.670543127158245 stroke=""none"" stroke-width=""1.5"" fill=""none"" />
    <polygon points = ""547.5,450 551.345455428954,436.3294568728418 543.654544571046,436.3294568728418"" stroke=""none"" stroke-width=""3"" fill = ""none"" />
    
    </svg>
    </div>
        ",,,,,,,,,,,,,,,,,,,,,,,,,,,,,,19
62,html-keyboard-response,62,165676,0.0-62.0,,,,"
    <div style="" display: block;  position: relative;"">
    <svg width=1440 height=900>
    
    <circle cx=657 cy=450 r=9.56938018901077 stroke=""black"" stroke-width=""1"" fill=""black"" />
    <circle cx=766.5 cy=450 r=13.670543127158245 stroke=""black"" stroke-width=""1.5"" fill=""none"" />
    <circle cx=812.8765649309753 cy=450 r=13.670543127158245 stroke=""black"" stroke-width=""1.5"" fill=""none"" />
    <circle cx=766.5 cy=496.37656493097523 r=13.670543127158245 stroke=""black"" stroke-width=""1.5"" fill=""none"" />
    <circle cx=720.1234350690247 cy=450 r=13.670543127158245 stroke=""black"" stroke-width=""1.5"" fill=""none"" />
    <circle cx=766.5 cy=403.62343506902477 r=13.670543127158245 stroke=""black"" stroke-width=""1.5"" fill=""none"" />
    <polygon points = ""766.5,450 770.345455428954,463.6705431271582 762.654544571046,463.6705431271582"" stroke=""white"" stroke-width=""3"" fill = ""white"" />
    
    </svg>
    </div>
        ",,,,,,,,,,,,stimulus,,,,,,,,,,,,,,,,,,19
63,html-keyboard-response,63,165940,0.0-63.0,263.1999999284744,arrowdown,,"
    <div style="" display: block;  position: relative;"">
    
    <svg width=1440 height=900>
    <circle cx=657 cy=450 r=9.56938018901077 stroke=""black"" stroke-width=""1"" fill=""black"" />
    <circle cx=812.8765649309753 cy=450 r=13.670543127158245 stroke=""none"" stroke-width=""1.5"" fill=""none"" />
    <circle cx=766.5 cy=496.37656493097523 r=13.670543127158245 stroke=""none"" stroke-width=""1.5"" fill=""none"" />
    <circle cx=720.1234350690247 cy=450 r=13.670543127158245 stroke=""none"" stroke-width=""1.5"" fill=""none"" />
    <circle cx=766.5 cy=403.62343506902477 r=13.670543127158245 stroke=""none"" stroke-width=""1.5"" fill=""none"" />
    <polygon points = ""766.5,450 770.345455428954,463.6705431271582 762.654544571046,463.6705431271582"" stroke=""none"" stroke-width=""3"" fill = ""none"" />
    
    </svg>
    </div>
        ",,,,,,,,,,,,get_response,True,p17gKbbNI6EjdyaI,,,False,False,True,109.5,4.0,488.002,46.376564930975256,1.69,1.0,0.0,,,,19
64,html-keyboard-response,64,166444,0.0-64.0,,,,"
    <div style="" display: block;  position: relative;"">
    
    <svg width=1440 height=900>
    <circle cx=657 cy=450 r=9.56938018901077 stroke=""black"" stroke-width=""1"" fill=""black"" />
    <circle cx=812.8765649309753 cy=450 r=13.670543127158245 stroke=""none"" stroke-width=""1.5"" fill=""none"" />
    <circle cx=766.5 cy=496.37656493097523 r=13.670543127158245 stroke=""none"" stroke-width=""1.5"" fill=""none"" />
    <circle cx=720.1234350690247 cy=450 r=13.670543127158245 stroke=""none"" stroke-width=""1.5"" fill=""none"" />
    <circle cx=766.5 cy=403.62343506902477 r=13.670543127158245 stroke=""none"" stroke-width=""1.5"" fill=""none"" />
    <polygon points = ""766.5,450 770.345455428954,463.6705431271582 762.654544571046,463.6705431271582"" stroke=""none"" stroke-width=""3"" fill = ""none"" />
    
    </svg>
    </div>
        ",,,,,,,,,,,,,,,,,,,,,,,,,,,,,,19
65,html-keyboard-response,65,166598,0.0-65.0,,,,"
    <div style="" display: block;  position: relative;"">
    <svg width=1440 height=900>
    
    <circle cx=657 cy=450 r=9.56938018901077 stroke=""black"" stroke-width=""1"" fill=""black"" />
    <circle cx=547.5 cy=450 r=13.670543127158245 stroke=""black"" stroke-width=""1.5"" fill=""none"" />
    <circle cx=589.6605135736139 cy=450 r=13.670543127158245 stroke=""black"" stroke-width=""1.5"" fill=""none"" />
    <circle cx=547.5 cy=492.16051357361385 r=13.670543127158245 stroke=""black"" stroke-width=""1.5"" fill=""none"" />
    <circle cx=505.33948642638615 cy=450 r=13.670543127158245 stroke=""black"" stroke-width=""1.5"" fill=""none"" />
    <circle cx=547.5 cy=407.83948642638615 r=13.670543127158245 stroke=""black"" stroke-width=""1.5"" fill=""none"" />
    <polygon points = ""547.5,450 551.345455428954,436.3294568728418 543.654544571046,436.3294568728418"" stroke=""white"" stroke-width=""3"" fill = ""white"" />
    
    </svg>
    </div>
        ",,,,,,,,,,,,stimulus,,,,,,,,,,,,,,,,,,19
66,html-keyboard-response,66,166924,0.0-66.0,324.5,arrowup,,"
    <div style="" display: block;  position: relative;"">
    
    <svg width=1440 height=900>
    <circle cx=657 cy=450 r=9.56938018901077 stroke=""black"" stroke-width=""1"" fill=""black"" />
    <circle cx=589.6605135736139 cy=450 r=13.670543127158245 stroke=""none"" stroke-width=""1.5"" fill=""none"" />
    <circle cx=547.5 cy=492.16051357361385 r=13.670543127158245 stroke=""none"" stroke-width=""1.5"" fill=""none"" />
    <circle cx=505.33948642638615 cy=450 r=13.670543127158245 stroke=""none"" stroke-width=""1.5"" fill=""none"" />
    <circle cx=547.5 cy=407.83948642638615 r=13.670543127158245 stroke=""none"" stroke-width=""1.5"" fill=""none"" />
    <polygon points = ""547.5,450 551.345455428954,436.3294568728418 543.654544571046,436.3294568728418"" stroke=""none"" stroke-width=""3"" fill = ""none"" />
    
    </svg>
    </div>
        ",,,,,,,,,,,,get_response,True,p17gKbbNI6EjdyaI,,,True,True,True,109.5,4.0,488.002,42.16051357361387,1.54,1.0,0.0,,,,19
67,html-keyboard-response,67,167425,0.0-67.0,,,,"
    <div style="" display: block;  position: relative;"">
    
    <svg width=1440 height=900>
    <circle cx=657 cy=450 r=9.56938018901077 stroke=""black"" stroke-width=""1"" fill=""black"" />
    <circle cx=589.6605135736139 cy=450 r=13.670543127158245 stroke=""none"" stroke-width=""1.5"" fill=""none"" />
    <circle cx=547.5 cy=492.16051357361385 r=13.670543127158245 stroke=""none"" stroke-width=""1.5"" fill=""none"" />
    <circle cx=505.33948642638615 cy=450 r=13.670543127158245 stroke=""none"" stroke-width=""1.5"" fill=""none"" />
    <circle cx=547.5 cy=407.83948642638615 r=13.670543127158245 stroke=""none"" stroke-width=""1.5"" fill=""none"" />
    <polygon points = ""547.5,450 551.345455428954,436.3294568728418 543.654544571046,436.3294568728418"" stroke=""none"" stroke-width=""3"" fill = ""none"" />
    
    </svg>
    </div>
        ",,,,,,,,,,,,,,,,,,,,,,,,,,,,,,19
68,html-keyboard-response,68,167580,0.0-68.0,,,,"
    <div style="" display: block;  position: relative;"">
    <svg width=1440 height=900>
    
    <circle cx=657 cy=450 r=9.56938018901077 stroke=""black"" stroke-width=""1"" fill=""black"" />
    <circle cx=766.5 cy=450 r=13.670543127158245 stroke=""black"" stroke-width=""1.5"" fill=""none"" />
    <circle cx=804.8277396123763 cy=450 r=13.670543127158245 stroke=""black"" stroke-width=""1.5"" fill=""none"" />
    <circle cx=766.5 cy=488.32773961237626 r=13.670543127158245 stroke=""black"" stroke-width=""1.5"" fill=""none"" />
    <circle cx=728.1722603876237 cy=450 r=13.670543127158245 stroke=""black"" stroke-width=""1.5"" fill=""none"" />
    <circle cx=766.5 cy=411.67226038762374 r=13.670543127158245 stroke=""black"" stroke-width=""1.5"" fill=""none"" />
    <polygon points = ""766.5,450 770.345455428954,463.6705431271582 762.654544571046,463.6705431271582"" stroke=""white"" stroke-width=""3"" fill = ""white"" />
    
    </svg>
    </div>
        ",,,,,,,,,,,,stimulus,,,,,,,,,,,,,,,,,,19
69,html-keyboard-response,69,167957,0.0-69.0,376.6999999284744,arrowdown,,"
    <div style="" display: block;  position: relative;"">
    
    <svg width=1440 height=900>
    <circle cx=657 cy=450 r=9.56938018901077 stroke=""black"" stroke-width=""1"" fill=""black"" />
    <circle cx=804.8277396123763 cy=450 r=13.670543127158245 stroke=""none"" stroke-width=""1.5"" fill=""none"" />
    <circle cx=766.5 cy=488.32773961237626 r=13.670543127158245 stroke=""none"" stroke-width=""1.5"" fill=""none"" />
    <circle cx=728.1722603876237 cy=450 r=13.670543127158245 stroke=""none"" stroke-width=""1.5"" fill=""none"" />
    <circle cx=766.5 cy=411.67226038762374 r=13.670543127158245 stroke=""none"" stroke-width=""1.5"" fill=""none"" />
    <polygon points = ""766.5,450 770.345455428954,463.6705431271582 762.654544571046,463.6705431271582"" stroke=""none"" stroke-width=""3"" fill = ""none"" />
    
    </svg>
    </div>
        ",,,,,,,,,,,,get_response,True,p17gKbbNI6EjdyaI,,,False,False,True,109.5,4.0,488.002,38.32773961237624,1.4,1.0,0.0,,,,19
70,html-keyboard-response,70,168459,0.0-70.0,,,,"
    <div style="" display: block;  position: relative;"">
    
    <svg width=1440 height=900>
    <circle cx=657 cy=450 r=9.56938018901077 stroke=""black"" stroke-width=""1"" fill=""black"" />
    <circle cx=804.8277396123763 cy=450 r=13.670543127158245 stroke=""none"" stroke-width=""1.5"" fill=""none"" />
    <circle cx=766.5 cy=488.32773961237626 r=13.670543127158245 stroke=""none"" stroke-width=""1.5"" fill=""none"" />
    <circle cx=728.1722603876237 cy=450 r=13.670543127158245 stroke=""none"" stroke-width=""1.5"" fill=""none"" />
    <circle cx=766.5 cy=411.67226038762374 r=13.670543127158245 stroke=""none"" stroke-width=""1.5"" fill=""none"" />
    <polygon points = ""766.5,450 770.345455428954,463.6705431271582 762.654544571046,463.6705431271582"" stroke=""none"" stroke-width=""3"" fill = ""none"" />
    
    </svg>
    </div>
        ",,,,,,,,,,,,,,,,,,,,,,,,,,,,,,19
71,html-keyboard-response,71,168614,0.0-71.0,,,,"
    <div style="" display: block;  position: relative;"">
    <svg width=1440 height=900>
    
    <circle cx=657 cy=450 r=9.56938018901077 stroke=""black"" stroke-width=""1"" fill=""black"" />
    <circle cx=547.5 cy=450 r=13.670543127158245 stroke=""black"" stroke-width=""1.5"" fill=""none"" />
    <circle cx=582.3433996476148 cy=450 r=13.670543127158245 stroke=""black"" stroke-width=""1.5"" fill=""none"" />
    <circle cx=547.5 cy=484.8433996476148 r=13.670543127158245 stroke=""black"" stroke-width=""1.5"" fill=""none"" />
    <circle cx=512.6566003523852 cy=450 r=13.670543127158245 stroke=""black"" stroke-width=""1.5"" fill=""none"" />
    <circle cx=547.5 cy=415.1566003523852 r=13.670543127158245 stroke=""black"" stroke-width=""1.5"" fill=""none"" />
    <polygon points = ""547.5,450 551.345455428954,463.6705431271582 543.654544571046,463.6705431271582"" stroke=""white"" stroke-width=""3"" fill = ""white"" />
    
    </svg>
    </div>
        ",,,,,,,,,,,,stimulus,,,,,,,,,,,,,,,,,,19
72,html-keyboard-response,72,169004,0.0-72.0,389.2999999523163,arrowdown,,"
    <div style="" display: block;  position: relative;"">
    
    <svg width=1440 height=900>
    <circle cx=657 cy=450 r=9.56938018901077 stroke=""black"" stroke-width=""1"" fill=""black"" />
    <circle cx=582.3433996476148 cy=450 r=13.670543127158245 stroke=""none"" stroke-width=""1.5"" fill=""none"" />
    <circle cx=547.5 cy=484.8433996476148 r=13.670543127158245 stroke=""none"" stroke-width=""1.5"" fill=""none"" />
    <circle cx=512.6566003523852 cy=450 r=13.670543127158245 stroke=""none"" stroke-width=""1.5"" fill=""none"" />
    <circle cx=547.5 cy=415.1566003523852 r=13.670543127158245 stroke=""none"" stroke-width=""1.5"" fill=""none"" />
    <polygon points = ""547.5,450 551.345455428954,463.6705431271582 543.654544571046,463.6705431271582"" stroke=""none"" stroke-width=""3"" fill = ""none"" />
    
    </svg>
    </div>
        ",,,,,,,,,,,,get_response,True,p17gKbbNI6EjdyaI,,,True,False,True,109.5,4.0,488.002,34.84339964761476,1.27,1.0,0.0,,,,19
73,html-keyboard-response,73,169506,0.0-73.0,,,,"
    <div style="" display: block;  position: relative;"">
    
    <svg width=1440 height=900>
    <circle cx=657 cy=450 r=9.56938018901077 stroke=""black"" stroke-width=""1"" fill=""black"" />
    <circle cx=582.3433996476148 cy=450 r=13.670543127158245 stroke=""none"" stroke-width=""1.5"" fill=""none"" />
    <circle cx=547.5 cy=484.8433996476148 r=13.670543127158245 stroke=""none"" stroke-width=""1.5"" fill=""none"" />
    <circle cx=512.6566003523852 cy=450 r=13.670543127158245 stroke=""none"" stroke-width=""1.5"" fill=""none"" />
    <circle cx=547.5 cy=415.1566003523852 r=13.670543127158245 stroke=""none"" stroke-width=""1.5"" fill=""none"" />
    <polygon points = ""547.5,450 551.345455428954,463.6705431271582 543.654544571046,463.6705431271582"" stroke=""none"" stroke-width=""3"" fill = ""none"" />
    
    </svg>
    </div>
        ",,,,,,,,,,,,,,,,,,,,,,,,,,,,,,19
74,html-keyboard-response,74,169660,0.0-74.0,,,,"
    <div style="" display: block;  position: relative;"">
    <svg width=1440 height=900>
    
    <circle cx=657 cy=450 r=9.56938018901077 stroke=""black"" stroke-width=""1"" fill=""black"" />
    <circle cx=766.5 cy=450 r=13.670543127158245 stroke=""black"" stroke-width=""1.5"" fill=""none"" />
    <circle cx=798.175817861468 cy=450 r=13.670543127158245 stroke=""black"" stroke-width=""1.5"" fill=""none"" />
    <circle cx=766.5 cy=481.675817861468 r=13.670543127158245 stroke=""black"" stroke-width=""1.5"" fill=""none"" />
    <circle cx=734.824182138532 cy=450 r=13.670543127158245 stroke=""black"" stroke-width=""1.5"" fill=""none"" />
    <circle cx=766.5 cy=418.324182138532 r=13.670543127158245 stroke=""black"" stroke-width=""1.5"" fill=""none"" />
    <polygon points = ""766.5,450 770.345455428954,436.3294568728418 762.654544571046,436.3294568728418"" stroke=""white"" stroke-width=""3"" fill = ""white"" />
    
    </svg>
    </div>
        ",,,,,,,,,,,,stimulus,,,,,,,,,,,,,,,,,,19
75,html-keyboard-response,75,169980,0.0-75.0,319.60000002384186,arrowup,,"
    <div style="" display: block;  position: relative;"">
    
    <svg width=1440 height=900>
    <circle cx=657 cy=450 r=9.56938018901077 stroke=""black"" stroke-width=""1"" fill=""black"" />
    <circle cx=798.175817861468 cy=450 r=13.670543127158245 stroke=""none"" stroke-width=""1.5"" fill=""none"" />
    <circle cx=766.5 cy=481.675817861468 r=13.670543127158245 stroke=""none"" stroke-width=""1.5"" fill=""none"" />
    <circle cx=734.824182138532 cy=450 r=13.670543127158245 stroke=""none"" stroke-width=""1.5"" fill=""none"" />
    <circle cx=766.5 cy=418.324182138532 r=13.670543127158245 stroke=""none"" stroke-width=""1.5"" fill=""none"" />
    <polygon points = ""766.5,450 770.345455428954,436.3294568728418 762.654544571046,436.3294568728418"" stroke=""none"" stroke-width=""3"" fill = ""none"" />
    
    </svg>
    </div>
        ",,,,,,,,,,,,get_response,True,p17gKbbNI6EjdyaI,,,False,True,True,109.5,4.0,488.002,31.67581786146796,1.16,1.0,0.0,,,,19
76,html-keyboard-response,76,170481,0.0-76.0,,,,"
    <div style="" display: block;  position: relative;"">
    
    <svg width=1440 height=900>
    <circle cx=657 cy=450 r=9.56938018901077 stroke=""black"" stroke-width=""1"" fill=""black"" />
    <circle cx=798.175817861468 cy=450 r=13.670543127158245 stroke=""none"" stroke-width=""1.5"" fill=""none"" />
    <circle cx=766.5 cy=481.675817861468 r=13.670543127158245 stroke=""none"" stroke-width=""1.5"" fill=""none"" />
    <circle cx=734.824182138532 cy=450 r=13.670543127158245 stroke=""none"" stroke-width=""1.5"" fill=""none"" />
    <circle cx=766.5 cy=418.324182138532 r=13.670543127158245 stroke=""none"" stroke-width=""1.5"" fill=""none"" />
    <polygon points = ""766.5,450 770.345455428954,436.3294568728418 762.654544571046,436.3294568728418"" stroke=""none"" stroke-width=""3"" fill = ""none"" />
    
    </svg>
    </div>
        ",,,,,,,,,,,,,,,,,,,,,,,,,,,,,,19
77,html-keyboard-response,77,170636,0.0-77.0,,,,"
    <div style="" display: block;  position: relative;"">
    <svg width=1440 height=900>
    
    <circle cx=657 cy=450 r=9.56938018901077 stroke=""black"" stroke-width=""1"" fill=""black"" />
    <circle cx=547.5 cy=450 r=13.670543127158245 stroke=""black"" stroke-width=""1.5"" fill=""none"" />
    <circle cx=576.2961980558799 cy=450 r=13.670543127158245 stroke=""black"" stroke-width=""1.5"" fill=""none"" />
    <circle cx=547.5 cy=478.79619805588 r=13.670543127158245 stroke=""black"" stroke-width=""1.5"" fill=""none"" />
    <circle cx=518.7038019441201 cy=450 r=13.670543127158245 stroke=""black"" stroke-width=""1.5"" fill=""none"" />
    <circle cx=547.5 cy=421.20380194412 r=13.670543127158245 stroke=""black"" stroke-width=""1.5"" fill=""none"" />
    <polygon points = ""547.5,450 551.345455428954,436.3294568728418 543.654544571046,436.3294568728418"" stroke=""white"" stroke-width=""3"" fill = ""white"" />
    
    </svg>
    </div>
        ",,,,,,,,,,,,stimulus,,,,,,,,,,,,,,,,,,19
78,html-keyboard-response,78,170876,0.0-78.0,238.8999999761581,arrowdown,,"
    <div style="" display: block;  position: relative;"">
    
    <svg width=1440 height=900>
    <circle cx=657 cy=450 r=9.56938018901077 stroke=""black"" stroke-width=""1"" fill=""black"" />
    <circle cx=576.2961980558799 cy=450 r=13.670543127158245 stroke=""none"" stroke-width=""1.5"" fill=""none"" />
    <circle cx=547.5 cy=478.79619805588 r=13.670543127158245 stroke=""none"" stroke-width=""1.5"" fill=""none"" />
    <circle cx=518.7038019441201 cy=450 r=13.670543127158245 stroke=""none"" stroke-width=""1.5"" fill=""none"" />
    <circle cx=547.5 cy=421.20380194412 r=13.670543127158245 stroke=""none"" stroke-width=""1.5"" fill=""none"" />
    <polygon points = ""547.5,450 551.345455428954,436.3294568728418 543.654544571046,436.3294568728418"" stroke=""none"" stroke-width=""3"" fill = ""none"" />
    
    </svg>
    </div>
        ",,,,,,,,,,,,get_response,False,p17gKbbNI6EjdyaI,,,True,True,True,109.5,4.0,488.002,28.79619805587996,1.05,1.0,0.0,,,,19
79,html-keyboard-response,79,171377,0.0-79.0,,,,"
    <div style="" display: block;  position: relative;"">
    
    <svg width=1440 height=900>
    <circle cx=657 cy=450 r=9.56938018901077 stroke=""black"" stroke-width=""1"" fill=""black"" />
    <circle cx=576.2961980558799 cy=450 r=13.670543127158245 stroke=""none"" stroke-width=""1.5"" fill=""none"" />
    <circle cx=547.5 cy=478.79619805588 r=13.670543127158245 stroke=""none"" stroke-width=""1.5"" fill=""none"" />
    <circle cx=518.7038019441201 cy=450 r=13.670543127158245 stroke=""none"" stroke-width=""1.5"" fill=""none"" />
    <circle cx=547.5 cy=421.20380194412 r=13.670543127158245 stroke=""none"" stroke-width=""1.5"" fill=""none"" />
    <polygon points = ""547.5,450 551.345455428954,436.3294568728418 543.654544571046,436.3294568728418"" stroke=""none"" stroke-width=""3"" fill = ""none"" />
    
    </svg>
    </div>
        ",,,,,,,,,,,,,,,,,,,,,,,,,,,,,,19
80,html-keyboard-response,80,171531,0.0-80.0,,,,"
    <div style="" display: block;  position: relative;"">
    <svg width=1440 height=900>
    
    <circle cx=657 cy=450 r=9.56938018901077 stroke=""black"" stroke-width=""1"" fill=""black"" />
    <circle cx=547.5 cy=450 r=13.670543127158245 stroke=""black"" stroke-width=""1.5"" fill=""none"" />
    <circle cx=584.935057472644 cy=450 r=13.670543127158245 stroke=""black"" stroke-width=""1.5"" fill=""none"" />
    <circle cx=547.5 cy=487.43505747264396 r=13.670543127158245 stroke=""black"" stroke-width=""1.5"" fill=""none"" />
    <circle cx=510.06494252735604 cy=450 r=13.670543127158245 stroke=""black"" stroke-width=""1.5"" fill=""none"" />
    <circle cx=547.5 cy=412.56494252735604 r=13.670543127158245 stroke=""black"" stroke-width=""1.5"" fill=""none"" />
    <polygon points = ""547.5,450 551.345455428954,463.6705431271582 543.654544571046,463.6705431271582"" stroke=""white"" stroke-width=""3"" fill = ""white"" />
    
    </svg>
    </div>
        ",,,,,,,,,,,,stimulus,,,,,,,,,,,,,,,,,,19
81,html-keyboard-response,81,178775,0.0-81.0,7242.600000023842,arrowup,,"
    <div style="" display: block;  position: relative;"">
    
    <svg width=1440 height=900>
    <circle cx=657 cy=450 r=9.56938018901077 stroke=""black"" stroke-width=""1"" fill=""black"" />
    <circle cx=584.935057472644 cy=450 r=13.670543127158245 stroke=""none"" stroke-width=""1.5"" fill=""none"" />
    <circle cx=547.5 cy=487.43505747264396 r=13.670543127158245 stroke=""none"" stroke-width=""1.5"" fill=""none"" />
    <circle cx=510.06494252735604 cy=450 r=13.670543127158245 stroke=""none"" stroke-width=""1.5"" fill=""none"" />
    <circle cx=547.5 cy=412.56494252735604 r=13.670543127158245 stroke=""none"" stroke-width=""1.5"" fill=""none"" />
    <polygon points = ""547.5,450 551.345455428954,463.6705431271582 543.654544571046,463.6705431271582"" stroke=""none"" stroke-width=""3"" fill = ""none"" />
    
    </svg>
    </div>
        ",,,,,,,,,,,,get_response,False,p17gKbbNI6EjdyaI,,,True,False,True,109.5,4.0,488.002,37.43505747264396,1.37,1.0,0.0,,,,19
82,html-keyboard-response,82,179276,0.0-82.0,,,,"
    <div style="" display: block;  position: relative;"">
    
    <svg width=1440 height=900>
    <circle cx=657 cy=450 r=9.56938018901077 stroke=""black"" stroke-width=""1"" fill=""black"" />
    <circle cx=584.935057472644 cy=450 r=13.670543127158245 stroke=""none"" stroke-width=""1.5"" fill=""none"" />
    <circle cx=547.5 cy=487.43505747264396 r=13.670543127158245 stroke=""none"" stroke-width=""1.5"" fill=""none"" />
    <circle cx=510.06494252735604 cy=450 r=13.670543127158245 stroke=""none"" stroke-width=""1.5"" fill=""none"" />
    <circle cx=547.5 cy=412.56494252735604 r=13.670543127158245 stroke=""none"" stroke-width=""1.5"" fill=""none"" />
    <polygon points = ""547.5,450 551.345455428954,463.6705431271582 543.654544571046,463.6705431271582"" stroke=""none"" stroke-width=""3"" fill = ""none"" />
    
    </svg>
    </div>
        ",,,,,,,,,,,,,,,,,,,,,,,,,,,,,,19
83,html-keyboard-response,83,179430,0.0-83.0,,,,"
    <div style="" display: block;  position: relative;"">
    <svg width=1440 height=900>
    
    <circle cx=657 cy=450 r=9.56938018901077 stroke=""black"" stroke-width=""1"" fill=""black"" />
    <circle cx=766.5 cy=450 r=13.670543127158245 stroke=""black"" stroke-width=""1.5"" fill=""none"" />
    <circle cx=815.1655747144372 cy=450 r=13.670543127158245 stroke=""black"" stroke-width=""1.5"" fill=""none"" />
    <circle cx=766.5 cy=498.6655747144371 r=13.670543127158245 stroke=""black"" stroke-width=""1.5"" fill=""none"" />
    <circle cx=717.8344252855628 cy=450 r=13.670543127158245 stroke=""black"" stroke-width=""1.5"" fill=""none"" />
    <circle cx=766.5 cy=401.3344252855629 r=13.670543127158245 stroke=""black"" stroke-width=""1.5"" fill=""none"" />
    <polygon points = ""766.5,450 770.345455428954,463.6705431271582 762.654544571046,463.6705431271582"" stroke=""white"" stroke-width=""3"" fill = ""white"" />
    
    </svg>
    </div>
        ",,,,,,,,,,,,stimulus,,,,,,,,,,,,,,,,,,19
84,html-keyboard-response,84,179876,0.0-84.0,444.7000000476837,arrowdown,,"
    <div style="" display: block;  position: relative;"">
    
    <svg width=1440 height=900>
    <circle cx=657 cy=450 r=9.56938018901077 stroke=""black"" stroke-width=""1"" fill=""black"" />
    <circle cx=815.1655747144372 cy=450 r=13.670543127158245 stroke=""none"" stroke-width=""1.5"" fill=""none"" />
    <circle cx=766.5 cy=498.6655747144371 r=13.670543127158245 stroke=""none"" stroke-width=""1.5"" fill=""none"" />
    <circle cx=717.8344252855628 cy=450 r=13.670543127158245 stroke=""none"" stroke-width=""1.5"" fill=""none"" />
    <circle cx=766.5 cy=401.3344252855629 r=13.670543127158245 stroke=""none"" stroke-width=""1.5"" fill=""none"" />
    <polygon points = ""766.5,450 770.345455428954,463.6705431271582 762.654544571046,463.6705431271582"" stroke=""none"" stroke-width=""3"" fill = ""none"" />
    
    </svg>
    </div>
        ",,,,,,,,,,,,get_response,True,p17gKbbNI6EjdyaI,,,False,False,True,109.5,4.0,488.002,48.66557471443714,1.78,1.0,0.0,,,,19
85,html-keyboard-response,85,180378,0.0-85.0,,,,"
    <div style="" display: block;  position: relative;"">
    
    <svg width=1440 height=900>
    <circle cx=657 cy=450 r=9.56938018901077 stroke=""black"" stroke-width=""1"" fill=""black"" />
    <circle cx=815.1655747144372 cy=450 r=13.670543127158245 stroke=""none"" stroke-width=""1.5"" fill=""none"" />
    <circle cx=766.5 cy=498.6655747144371 r=13.670543127158245 stroke=""none"" stroke-width=""1.5"" fill=""none"" />
    <circle cx=717.8344252855628 cy=450 r=13.670543127158245 stroke=""none"" stroke-width=""1.5"" fill=""none"" />
    <circle cx=766.5 cy=401.3344252855629 r=13.670543127158245 stroke=""none"" stroke-width=""1.5"" fill=""none"" />
    <polygon points = ""766.5,450 770.345455428954,463.6705431271582 762.654544571046,463.6705431271582"" stroke=""none"" stroke-width=""3"" fill = ""none"" />
    
    </svg>
    </div>
        ",,,,,,,,,,,,,,,,,,,,,,,,,,,,,,19
86,html-keyboard-response,86,180534,0.0-86.0,,,,"
    <div style="" display: block;  position: relative;"">
    <svg width=1440 height=900>
    
    <circle cx=657 cy=450 r=9.56938018901077 stroke=""black"" stroke-width=""1"" fill=""black"" />
    <circle cx=766.5 cy=450 r=13.670543127158245 stroke=""black"" stroke-width=""1.5"" fill=""none"" />
    <circle cx=815.1655747144372 cy=450 r=13.670543127158245 stroke=""black"" stroke-width=""1.5"" fill=""none"" />
    <circle cx=766.5 cy=498.6655747144371 r=13.670543127158245 stroke=""black"" stroke-width=""1.5"" fill=""none"" />
    <circle cx=717.8344252855628 cy=450 r=13.670543127158245 stroke=""black"" stroke-width=""1.5"" fill=""none"" />
    <circle cx=766.5 cy=401.3344252855629 r=13.670543127158245 stroke=""black"" stroke-width=""1.5"" fill=""none"" />
    <polygon points = ""766.5,450 770.345455428954,436.3294568728418 762.654544571046,436.3294568728418"" stroke=""white"" stroke-width=""3"" fill = ""white"" />
    
    </svg>
    </div>
        ",,,,,,,,,,,,stimulus,,,,,,,,,,,,,,,,,,19
87,html-keyboard-response,87,180931,0.0-87.0,396.3999999761581,arrowup,,"
    <div style="" display: block;  position: relative;"">
    
    <svg width=1440 height=900>
    <circle cx=657 cy=450 r=9.56938018901077 stroke=""black"" stroke-width=""1"" fill=""black"" />
    <circle cx=815.1655747144372 cy=450 r=13.670543127158245 stroke=""none"" stroke-width=""1.5"" fill=""none"" />
    <circle cx=766.5 cy=498.6655747144371 r=13.670543127158245 stroke=""none"" stroke-width=""1.5"" fill=""none"" />
    <circle cx=717.8344252855628 cy=450 r=13.670543127158245 stroke=""none"" stroke-width=""1.5"" fill=""none"" />
    <circle cx=766.5 cy=401.3344252855629 r=13.670543127158245 stroke=""none"" stroke-width=""1.5"" fill=""none"" />
    <polygon points = ""766.5,450 770.345455428954,436.3294568728418 762.654544571046,436.3294568728418"" stroke=""none"" stroke-width=""3"" fill = ""none"" />
    
    </svg>
    </div>
        ",,,,,,,,,,,,get_response,True,p17gKbbNI6EjdyaI,,,False,True,True,109.5,4.0,488.002,48.66557471443714,1.78,1.0,0.0,,,,19
88,html-keyboard-response,88,181435,0.0-88.0,,,,"
    <div style="" display: block;  position: relative;"">
    
    <svg width=1440 height=900>
    <circle cx=657 cy=450 r=9.56938018901077 stroke=""black"" stroke-width=""1"" fill=""black"" />
    <circle cx=815.1655747144372 cy=450 r=13.670543127158245 stroke=""none"" stroke-width=""1.5"" fill=""none"" />
    <circle cx=766.5 cy=498.6655747144371 r=13.670543127158245 stroke=""none"" stroke-width=""1.5"" fill=""none"" />
    <circle cx=717.8344252855628 cy=450 r=13.670543127158245 stroke=""none"" stroke-width=""1.5"" fill=""none"" />
    <circle cx=766.5 cy=401.3344252855629 r=13.670543127158245 stroke=""none"" stroke-width=""1.5"" fill=""none"" />
    <polygon points = ""766.5,450 770.345455428954,436.3294568728418 762.654544571046,436.3294568728418"" stroke=""none"" stroke-width=""3"" fill = ""none"" />
    
    </svg>
    </div>
        ",,,,,,,,,,,,,,,,,,,,,,,,,,,,,,19
89,html-keyboard-response,89,181590,0.0-89.0,,,,"
    <div style="" display: block;  position: relative;"">
    <svg width=1440 height=900>
    
    <circle cx=657 cy=450 r=9.56938018901077 stroke=""black"" stroke-width=""1"" fill=""black"" />
    <circle cx=766.5 cy=450 r=13.670543127158245 stroke=""black"" stroke-width=""1.5"" fill=""none"" />
    <circle cx=815.1655747144372 cy=450 r=13.670543127158245 stroke=""black"" stroke-width=""1.5"" fill=""none"" />
    <circle cx=766.5 cy=498.6655747144371 r=13.670543127158245 stroke=""black"" stroke-width=""1.5"" fill=""none"" />
    <circle cx=717.8344252855628 cy=450 r=13.670543127158245 stroke=""black"" stroke-width=""1.5"" fill=""none"" />
    <circle cx=766.5 cy=401.3344252855629 r=13.670543127158245 stroke=""black"" stroke-width=""1.5"" fill=""none"" />
    <polygon points = ""766.5,450 770.345455428954,436.3294568728418 762.654544571046,436.3294568728418"" stroke=""white"" stroke-width=""3"" fill = ""white"" />
    
    </svg>
    </div>
        ",,,,,,,,,,,,stimulus,,,,,,,,,,,,,,,,,,19
90,html-keyboard-response,90,182205,0.0-90.0,614.6999999284744,arrowup,,"
    <div style="" display: block;  position: relative;"">
    
    <svg width=1440 height=900>
    <circle cx=657 cy=450 r=9.56938018901077 stroke=""black"" stroke-width=""1"" fill=""black"" />
    <circle cx=815.1655747144372 cy=450 r=13.670543127158245 stroke=""none"" stroke-width=""1.5"" fill=""none"" />
    <circle cx=766.5 cy=498.6655747144371 r=13.670543127158245 stroke=""none"" stroke-width=""1.5"" fill=""none"" />
    <circle cx=717.8344252855628 cy=450 r=13.670543127158245 stroke=""none"" stroke-width=""1.5"" fill=""none"" />
    <circle cx=766.5 cy=401.3344252855629 r=13.670543127158245 stroke=""none"" stroke-width=""1.5"" fill=""none"" />
    <polygon points = ""766.5,450 770.345455428954,436.3294568728418 762.654544571046,436.3294568728418"" stroke=""none"" stroke-width=""3"" fill = ""none"" />
    
    </svg>
    </div>
        ",,,,,,,,,,,,get_response,True,p17gKbbNI6EjdyaI,,,False,True,True,109.5,4.0,488.002,48.66557471443714,1.78,1.0,0.0,,,,19
91,html-keyboard-response,91,182710,0.0-91.0,,,,"
    <div style="" display: block;  position: relative;"">
    
    <svg width=1440 height=900>
    <circle cx=657 cy=450 r=9.56938018901077 stroke=""black"" stroke-width=""1"" fill=""black"" />
    <circle cx=815.1655747144372 cy=450 r=13.670543127158245 stroke=""none"" stroke-width=""1.5"" fill=""none"" />
    <circle cx=766.5 cy=498.6655747144371 r=13.670543127158245 stroke=""none"" stroke-width=""1.5"" fill=""none"" />
    <circle cx=717.8344252855628 cy=450 r=13.670543127158245 stroke=""none"" stroke-width=""1.5"" fill=""none"" />
    <circle cx=766.5 cy=401.3344252855629 r=13.670543127158245 stroke=""none"" stroke-width=""1.5"" fill=""none"" />
    <polygon points = ""766.5,450 770.345455428954,436.3294568728418 762.654544571046,436.3294568728418"" stroke=""none"" stroke-width=""3"" fill = ""none"" />
    
    </svg>
    </div>
        ",,,,,,,,,,,,,,,,,,,,,,,,,,,,,,19
92,html-keyboard-response,92,182864,0.0-92.0,,,,"
    <div style="" display: block;  position: relative;"">
    <svg width=1440 height=900>
    
    <circle cx=657 cy=450 r=9.56938018901077 stroke=""black"" stroke-width=""1"" fill=""black"" />
    <circle cx=547.5 cy=450 r=13.670543127158245 stroke=""black"" stroke-width=""1.5"" fill=""none"" />
    <circle cx=591.7414315585792 cy=450 r=13.670543127158245 stroke=""black"" stroke-width=""1.5"" fill=""none"" />
    <circle cx=547.5 cy=494.2414315585792 r=13.670543127158245 stroke=""black"" stroke-width=""1.5"" fill=""none"" />
    <circle cx=503.2585684414208 cy=450 r=13.670543127158245 stroke=""black"" stroke-width=""1.5"" fill=""none"" />
    <circle cx=547.5 cy=405.7585684414208 r=13.670543127158245 stroke=""black"" stroke-width=""1.5"" fill=""none"" />
    <polygon points = ""547.5,450 551.345455428954,436.3294568728418 543.654544571046,436.3294568728418"" stroke=""white"" stroke-width=""3"" fill = ""white"" />
    
    </svg>
    </div>
        ",,,,,,,,,,,,stimulus,,,,,,,,,,,,,,,,,,19
93,html-keyboard-response,93,183324,0.0-93.0,459.2000000476837,arrowup,,"
    <div style="" display: block;  position: relative;"">
    
    <svg width=1440 height=900>
    <circle cx=657 cy=450 r=9.56938018901077 stroke=""black"" stroke-width=""1"" fill=""black"" />
    <circle cx=591.7414315585792 cy=450 r=13.670543127158245 stroke=""none"" stroke-width=""1.5"" fill=""none"" />
    <circle cx=547.5 cy=494.2414315585792 r=13.670543127158245 stroke=""none"" stroke-width=""1.5"" fill=""none"" />
    <circle cx=503.2585684414208 cy=450 r=13.670543127158245 stroke=""none"" stroke-width=""1.5"" fill=""none"" />
    <circle cx=547.5 cy=405.7585684414208 r=13.670543127158245 stroke=""none"" stroke-width=""1.5"" fill=""none"" />
    <polygon points = ""547.5,450 551.345455428954,436.3294568728418 543.654544571046,436.3294568728418"" stroke=""none"" stroke-width=""3"" fill = ""none"" />
    
    </svg>
    </div>
        ",,,,,,,,,,,,get_response,True,p17gKbbNI6EjdyaI,,,True,True,True,109.5,4.0,488.002,44.241431558579215,1.61,1.0,0.0,,,,19
94,html-keyboard-response,94,183825,0.0-94.0,,,,"
    <div style="" display: block;  position: relative;"">
    
    <svg width=1440 height=900>
    <circle cx=657 cy=450 r=9.56938018901077 stroke=""black"" stroke-width=""1"" fill=""black"" />
    <circle cx=591.7414315585792 cy=450 r=13.670543127158245 stroke=""none"" stroke-width=""1.5"" fill=""none"" />
    <circle cx=547.5 cy=494.2414315585792 r=13.670543127158245 stroke=""none"" stroke-width=""1.5"" fill=""none"" />
    <circle cx=503.2585684414208 cy=450 r=13.670543127158245 stroke=""none"" stroke-width=""1.5"" fill=""none"" />
    <circle cx=547.5 cy=405.7585684414208 r=13.670543127158245 stroke=""none"" stroke-width=""1.5"" fill=""none"" />
    <polygon points = ""547.5,450 551.345455428954,436.3294568728418 543.654544571046,436.3294568728418"" stroke=""none"" stroke-width=""3"" fill = ""none"" />
    
    </svg>
    </div>
        ",,,,,,,,,,,,,,,,,,,,,,,,,,,,,,19
95,html-keyboard-response,95,183979,0.0-95.0,,,,"
    <div style="" display: block;  position: relative;"">
    <svg width=1440 height=900>
    
    <circle cx=657 cy=450 r=9.56938018901077 stroke=""black"" stroke-width=""1"" fill=""black"" />
    <circle cx=547.5 cy=450 r=13.670543127158245 stroke=""black"" stroke-width=""1.5"" fill=""none"" />
    <circle cx=587.7194832350721 cy=450 r=13.670543127158245 stroke=""black"" stroke-width=""1.5"" fill=""none"" />
    <circle cx=547.5 cy=490.219483235072 r=13.670543127158245 stroke=""black"" stroke-width=""1.5"" fill=""none"" />
    <circle cx=507.280516764928 cy=450 r=13.670543127158245 stroke=""black"" stroke-width=""1.5"" fill=""none"" />
    <circle cx=547.5 cy=409.780516764928 r=13.670543127158245 stroke=""black"" stroke-width=""1.5"" fill=""none"" />
    <polygon points = ""547.5,450 551.345455428954,463.6705431271582 543.654544571046,463.6705431271582"" stroke=""white"" stroke-width=""3"" fill = ""white"" />
    
    </svg>
    </div>
        ",,,,,,,,,,,,stimulus,,,,,,,,,,,,,,,,,,19
96,html-keyboard-response,96,184724,0.0-96.0,743.6999999284744,arrowdown,,"
    <div style="" display: block;  position: relative;"">
    
    <svg width=1440 height=900>
    <circle cx=657 cy=450 r=9.56938018901077 stroke=""black"" stroke-width=""1"" fill=""black"" />
    <circle cx=587.7194832350721 cy=450 r=13.670543127158245 stroke=""none"" stroke-width=""1.5"" fill=""none"" />
    <circle cx=547.5 cy=490.219483235072 r=13.670543127158245 stroke=""none"" stroke-width=""1.5"" fill=""none"" />
    <circle cx=507.280516764928 cy=450 r=13.670543127158245 stroke=""none"" stroke-width=""1.5"" fill=""none"" />
    <circle cx=547.5 cy=409.780516764928 r=13.670543127158245 stroke=""none"" stroke-width=""1.5"" fill=""none"" />
    <polygon points = ""547.5,450 551.345455428954,463.6705431271582 543.654544571046,463.6705431271582"" stroke=""none"" stroke-width=""3"" fill = ""none"" />
    
    </svg>
    </div>
        ",,,,,,,,,,,,get_response,True,p17gKbbNI6EjdyaI,,,True,False,True,109.5,4.0,488.002,40.21948323507201,1.47,1.0,0.0,,,,19
97,html-keyboard-response,97,185227,0.0-97.0,,,,"
    <div style="" display: block;  position: relative;"">
    
    <svg width=1440 height=900>
    <circle cx=657 cy=450 r=9.56938018901077 stroke=""black"" stroke-width=""1"" fill=""black"" />
    <circle cx=587.7194832350721 cy=450 r=13.670543127158245 stroke=""none"" stroke-width=""1.5"" fill=""none"" />
    <circle cx=547.5 cy=490.219483235072 r=13.670543127158245 stroke=""none"" stroke-width=""1.5"" fill=""none"" />
    <circle cx=507.280516764928 cy=450 r=13.670543127158245 stroke=""none"" stroke-width=""1.5"" fill=""none"" />
    <circle cx=547.5 cy=409.780516764928 r=13.670543127158245 stroke=""none"" stroke-width=""1.5"" fill=""none"" />
    <polygon points = ""547.5,450 551.345455428954,463.6705431271582 543.654544571046,463.6705431271582"" stroke=""none"" stroke-width=""3"" fill = ""none"" />
    
    </svg>
    </div>
        ",,,,,,,,,,,,,,,,,,,,,,,,,,,,,,19
98,html-keyboard-response,98,185382,0.0-98.0,,,,"
    <div style="" display: block;  position: relative;"">
    <svg width=1440 height=900>
    
    <circle cx=657 cy=450 r=9.56938018901077 stroke=""black"" stroke-width=""1"" fill=""black"" />
    <circle cx=766.5 cy=450 r=13.670543127158245 stroke=""black"" stroke-width=""1.5"" fill=""none"" />
    <circle cx=803.0631665773382 cy=450 r=13.670543127158245 stroke=""black"" stroke-width=""1.5"" fill=""none"" />
    <circle cx=766.5 cy=486.56316657733817 r=13.670543127158245 stroke=""black"" stroke-width=""1.5"" fill=""none"" />
    <circle cx=729.9368334226618 cy=450 r=13.670543127158245 stroke=""black"" stroke-width=""1.5"" fill=""none"" />
    <circle cx=766.5 cy=413.43683342266183 r=13.670543127158245 stroke=""black"" stroke-width=""1.5"" fill=""none"" />
    <polygon points = ""766.5,450 770.345455428954,463.6705431271582 762.654544571046,463.6705431271582"" stroke=""white"" stroke-width=""3"" fill = ""white"" />
    
    </svg>
    </div>
        ",,,,,,,,,,,,stimulus,,,,,,,,,,,,,,,,,,19
99,html-keyboard-response,99,185948,0.0-99.0,565.1000000238419,arrowdown,,"
    <div style="" display: block;  position: relative;"">
    
    <svg width=1440 height=900>
    <circle cx=657 cy=450 r=9.56938018901077 stroke=""black"" stroke-width=""1"" fill=""black"" />
    <circle cx=803.0631665773382 cy=450 r=13.670543127158245 stroke=""none"" stroke-width=""1.5"" fill=""none"" />
    <circle cx=766.5 cy=486.56316657733817 r=13.670543127158245 stroke=""none"" stroke-width=""1.5"" fill=""none"" />
    <circle cx=729.9368334226618 cy=450 r=13.670543127158245 stroke=""none"" stroke-width=""1.5"" fill=""none"" />
    <circle cx=766.5 cy=413.43683342266183 r=13.670543127158245 stroke=""none"" stroke-width=""1.5"" fill=""none"" />
    <polygon points = ""766.5,450 770.345455428954,463.6705431271582 762.654544571046,463.6705431271582"" stroke=""none"" stroke-width=""3"" fill = ""none"" />
    
    </svg>
    </div>
        ",,,,,,,,,,,,get_response,True,p17gKbbNI6EjdyaI,,,False,False,True,109.5,4.0,488.002,36.56316657733819,1.33,1.0,0.88,,,,19
100,html-keyboard-response,100,189382,0.0-100.0,3433.899999976158,arrowdown,,"<div id=""continue""> 
<h2 class=""bolded-blue"">Great Job! You have completed half of the study!</h2>
<p>Before you start the session 2, let&#39;s measure your viewing distance again using the virtual chinrest.</p>
<p>Please press the <b>down</b> arrow key to continue. </p>
</div>",,,,,,,,,,,,,,,,,,,,,,,,,,,,,,19
101,virtual-chinrest,101,217372,0.0-101.0,27990.29999995232,,,,,,85.6,53.98,285.0,3.33,498.85,9.807632050123864,29.05900206527432,49.55435141115216,30.9714696319701,,,,,,,,,,,,,,,,,,,19
102,html-keyboard-response,102,227284,0.0-102.0,9910.800000071526,arrowdown,,"<div><h2 class=""bolded-blue"">Alright, let&#39;s do the peripheral vision test one more time!</h2>
<p>Please do not move around and keep your eye on the <b>black dot</b> all the time. Click <b>up</b> or <b>down</b> to indicate the opening
    of the center circle. The test is difficult for everyone, so if you are not sure, just take your best guess! </p> 
    <p>Now, press the <b>down</b> arrow key to start the task when you are ready!</p></div>",,,,,,,,,,,,,,,,,,,,,,,,,,,,,,19
103,html-keyboard-response,103,227785,0.0-103.0,,,,"
    <div style="" display: block;  position: relative;"">
    
    <svg width=1440 height=900>
    <circle cx=657 cy=450 r=10.123032846036166 stroke=""black"" stroke-width=""1"" fill=""black"" />
    <circle cx=577.7231665773381 cy=450 r=14.461475494337382 stroke=""none"" stroke-width=""1.5"" fill=""none"" />
    <circle cx=541.16 cy=486.56316657733817 r=14.461475494337382 stroke=""none"" stroke-width=""1.5"" fill=""none"" />
    <circle cx=504.5968334226618 cy=450 r=14.461475494337382 stroke=""none"" stroke-width=""1.5"" fill=""none"" />
    <circle cx=541.16 cy=413.43683342266183 r=14.461475494337382 stroke=""none"" stroke-width=""1.5"" fill=""none"" />
    <polygon points = ""541.16,450 545.2279407491797,464.4614754943374 537.0920592508203,464.4614754943374"" stroke=""none"" stroke-width=""3"" fill = ""none"" />
    
    </svg>
    </div>
        ",,,,,,,,,,,,,,,,,,,,,,,,,,,,,,19
104,html-keyboard-response,104,227940,0.0-104.0,,,,"
    <div style="" display: block;  position: relative;"">
    <svg width=1440 height=900>
    
    <circle cx=657 cy=450 r=10.123032846036166 stroke=""black"" stroke-width=""1"" fill=""black"" />
    <circle cx=541.16 cy=450 r=14.461475494337382 stroke=""black"" stroke-width=""1.5"" fill=""none"" />
    <circle cx=616.456 cy=450 r=14.461475494337382 stroke=""black"" stroke-width=""1.5"" fill=""none"" />
    <circle cx=541.16 cy=525.296 r=14.461475494337382 stroke=""black"" stroke-width=""1.5"" fill=""none"" />
    <circle cx=465.864 cy=450 r=14.461475494337382 stroke=""black"" stroke-width=""1.5"" fill=""none"" />
    <circle cx=541.16 cy=374.704 r=14.461475494337382 stroke=""black"" stroke-width=""1.5"" fill=""none"" />
    <polygon points = ""541.16,450 545.2279407491797,464.4614754943374 537.0920592508203,464.4614754943374"" stroke=""white"" stroke-width=""3"" fill = ""white"" />
    
    </svg>
    </div>
        ",,,,,,,,,,,,stimulus,,,,,,,,,,,,,,,,,,19
105,html-keyboard-response,105,228346,0.0-105.0,405.2999999523163,arrowdown,,"
    <div style="" display: block;  position: relative;"">
    
    <svg width=1440 height=900>
    <circle cx=657 cy=450 r=10.123032846036166 stroke=""black"" stroke-width=""1"" fill=""black"" />
    <circle cx=616.456 cy=450 r=14.461475494337382 stroke=""none"" stroke-width=""1.5"" fill=""none"" />
    <circle cx=541.16 cy=525.296 r=14.461475494337382 stroke=""none"" stroke-width=""1.5"" fill=""none"" />
    <circle cx=465.864 cy=450 r=14.461475494337382 stroke=""none"" stroke-width=""1.5"" fill=""none"" />
    <circle cx=541.16 cy=374.704 r=14.461475494337382 stroke=""none"" stroke-width=""1.5"" fill=""none"" />
    <polygon points = ""541.16,450 545.2279407491797,464.4614754943374 537.0920592508203,464.4614754943374"" stroke=""none"" stroke-width=""3"" fill = ""none"" />
    
    </svg>
    </div>
        ",,,,,,,,,,,,get_response,True,p17gKbbNI6EjdyaI,,,True,False,True,115.84,4.0,499.1833333333334,75.296,2.6,2.0,0.0,,,,19
106,html-keyboard-response,106,228851,0.0-106.0,,,,"
    <div style="" display: block;  position: relative;"">
    
    <svg width=1440 height=900>
    <circle cx=657 cy=450 r=10.123032846036166 stroke=""black"" stroke-width=""1"" fill=""black"" />
    <circle cx=616.456 cy=450 r=14.461475494337382 stroke=""none"" stroke-width=""1.5"" fill=""none"" />
    <circle cx=541.16 cy=525.296 r=14.461475494337382 stroke=""none"" stroke-width=""1.5"" fill=""none"" />
    <circle cx=465.864 cy=450 r=14.461475494337382 stroke=""none"" stroke-width=""1.5"" fill=""none"" />
    <circle cx=541.16 cy=374.704 r=14.461475494337382 stroke=""none"" stroke-width=""1.5"" fill=""none"" />
    <polygon points = ""541.16,450 545.2279407491797,464.4614754943374 537.0920592508203,464.4614754943374"" stroke=""none"" stroke-width=""3"" fill = ""none"" />
