"trial_type","trial_index","time_elapsed","internal_node_id","rt","response","success","stimulus","start_time","start_time_unix","item_width_mm","item_height_mm","item_width_px","px2mm","view_dist_mm","item_width_deg","px2deg","win_width_deg","win_height_deg","trialType","correct","participantID","criticalSpacing","criticalSpacing_deg","isLeft","isUp","isEccen4","eccentricity","eccentricity_deg","viewingDistanceMean","critical_spacing","critical_spacing_deg","crowding_session","correctRate","viewDistance_1","viewDistance_2","viewDistance_3"
"pavlovia","0","7","0.0-0.0","","","","","","","","","","","","","","","","","","","","","","","","","","","","","","","","",""
"survey-text","1","20075","0.0-1.0","20035.100000023842","{""Q0"":""""}","","","","","","","","","","","","","","","","","","","","","","","","","","","","","","",""
"fullscreen","2","25694","0.0-2.0","","","true","","","","","","","","","","","","","","","","","","","","","","","","","","","","","",""
"html-keyboard-response","3","55036","0.0-3.0","29339.899999976158"," ","","<h1>Consent Form</h1>
       <p>By answering the following questions, you are participating in a study being performed by cognitive scientists in the Stanford Department of Psychology. If you have questions about this research, please contact us at stanfordpsych251@gmail.com. You must be at least 18 years old to participate. Your participation in this research is voluntary. You may decline to answer any or all of the following questions. You may decline further participation by closing the window, at any time, without adverse consequences. Your anonymity is assured; the researchers who have requested your participation will not receive any personal information about you.</p>
       <p>Press <b>any key</b> to start the experiment!</p>","","","","","","","","","","","","","","","","","","","","","","","","","","","","",""
"html-keyboard-response","4","59800","0.0-4.0","4771.199999988079"," ","","<h1>Welcome to the Visual Crowding Experiment!</h1>
       <p>This test will take <b>10-12</b> minutes to complete.</p>
       <p>Press any key to start the experiment!</p>","30/11/2021 23:56:53","1638338213638","","","","","","","","","","","","","","","","","","","","","","","","","","",""
"html-keyboard-response","5","93844","0.0-5.0","34041.60000002384","arrowdown","","<div> 
<p> Before you begin this study, let&#39;s quickly test how far away you are sitting. You might know that vision tests at a doctor&#39;s practice often involve chinrests, the doctor basically asks you to sit away from a screen in a specific distance. We do this here with a <b>virtual chinrest</b>. </p>
<p> Please press the <b>down</b> arrow to continue.
</p>
</div>","","","","","","","","","","","","","","","","","","","","","","","","","","","","",""
"virtual-chinrest","6","220582","0.0-6.0","126729.60000002384","","","","","","85.6","53.98","382","4.46","436.49","11.200463191995581","34.105732365871845","40.05191811587949","22.518208721080125","","","","","","","","","","","","","","","","","",""
"html-keyboard-response","7","270755","0.0-7.0","50163.09999996424","arrowdown","","
	<h2 class=""bolded-blue"">Now, you will take a peripheral vision test!</h2>
<p> 
	<b>
		<font size=""140%"">1. </font>
	</b>
	<em><b>Please use both eyes for the following task.</b></em> First, you will see a screen (like the one in the image below) showing a <b>black dot</b> in the middle of the screen, with a group of circles displayed on either the <span class=""bolded-blue"">left</span> or <span class=""bolded-blue"">right</span> of the black dot for 150 ms. <span class=""bolded-blue"">Please make sure to focus on the black dot all the time!</span>

	<div>
		<img src=""example.png"" alt=""example"" style=""border: 2px solid black"" width=""600""/> 
	</div>
	
	<b>
		<font size=""140%"">2. </font>
	</b>
	Your task is to identify whether the opening of the <b class=""bolded-blue"">center circle</b> is upward by pressing UP or downward by pressing DOWN on your keyboard. The opening of the circle will only be upward or downward, not towards left or right.

	<div>
		<img src=""arrow_keys+.png"" alt=""arrows"" style=""border: 2px solid black"" width=""600""/>
	</div>
	<br>

<p>Please press the <b>down</b> arrow key to start the <span class=""bolded-blue"">practice task</span> (this first practice task will not count toward your final results).</p>
</p>
","","","","","","","","","","","","","","","","","","","","","","","","","","","","",""
"html-keyboard-response","8","271273","0.0-8.0","null","null","","
    <div style="" display: block;  position: relative;"">
    
    <svg width=1366 height=768>
    <circle cx=620 cy=384 r=12.17196567190433 stroke=""black"" stroke-width=""1"" fill=""black"" />
    <circle cx=NaN cy=384 r=17.388522388434758 stroke=""none"" stroke-width=""1.5"" fill=""none"" />
    <circle cx=480.71000000000004 cy=NaN r=17.388522388434758 stroke=""none"" stroke-width=""1.5"" fill=""none"" />
    <circle cx=NaN cy=384 r=17.388522388434758 stroke=""none"" stroke-width=""1.5"" fill=""none"" />
    <circle cx=480.71000000000004 cy=NaN r=17.388522388434758 stroke=""none"" stroke-width=""1.5"" fill=""none"" />
    <polygon points = ""480.71000000000004,384 485.6013044052548,401.38852238843475 475.8186955947453,401.38852238843475"" stroke=""none"" stroke-width=""3"" fill = ""none"" />
    
    </svg>
    </div>
        ","","","","","","","","","","","","","","","","","","","","","","","","","","","","",""
"html-keyboard-response","9","271435","0.0-9.0","null","null","","
    <div style="" display: block;  position: relative;"">
    <svg width=1366 height=768>
    
    <circle cx=620 cy=384 r=12.17196567190433 stroke=""black"" stroke-width=""1"" fill=""black"" />
    <circle cx=480.71000000000004 cy=384 r=17.388522388434758 stroke=""black"" stroke-width=""1.5"" fill=""none"" />
    <circle cx=571.2485 cy=384 r=17.388522388434758 stroke=""black"" stroke-width=""1.5"" fill=""none"" />
    <circle cx=480.71000000000004 cy=474.5385 r=17.388522388434758 stroke=""black"" stroke-width=""1.5"" fill=""none"" />
    <circle cx=390.17150000000004 cy=384 r=17.388522388434758 stroke=""black"" stroke-width=""1.5"" fill=""none"" />
    <circle cx=480.71000000000004 cy=293.4615 r=17.388522388434758 stroke=""black"" stroke-width=""1.5"" fill=""none"" />
    <polygon points = ""480.71000000000004,384 485.6013044052548,366.61147761156525 475.8186955947453,366.61147761156525"" stroke=""white"" stroke-width=""3"" fill = ""white"" />
    
    </svg>
    </div>
        ","","","","","","","","","","","","stimulus","","","","","","","","","","","","","","","","",""
"html-keyboard-response","10","278416","0.0-10.0","6978.800000011921","arrowup","","
    <div style="" display: block;  position: relative;"">
    
    <svg width=1366 height=768>
    <circle cx=620 cy=384 r=12.17196567190433 stroke=""black"" stroke-width=""1"" fill=""black"" />
    <circle cx=571.2485 cy=384 r=17.388522388434758 stroke=""none"" stroke-width=""1.5"" fill=""none"" />
    <circle cx=480.71000000000004 cy=474.5385 r=17.388522388434758 stroke=""none"" stroke-width=""1.5"" fill=""none"" />
    <circle cx=390.17150000000004 cy=384 r=17.388522388434758 stroke=""none"" stroke-width=""1.5"" fill=""none"" />
    <circle cx=480.71000000000004 cy=293.4615 r=17.388522388434758 stroke=""none"" stroke-width=""1.5"" fill=""none"" />
    <polygon points = ""480.71000000000004,384 485.6013044052548,366.61147761156525 475.8186955947453,366.61147761156525"" stroke=""none"" stroke-width=""3"" fill = ""none"" />
    
    </svg>
    </div>
        ","","","","","","","","","","","","practice_get_response","true","xXpnBRTCjQPtJp2d","90.5385","2.6","true","true","true","139.29","4","448.146","","","","","","",""
"html-keyboard-response","11","278926","0.0-11.0","null","null","","
    <div style="" display: block;  position: relative;"">
    
    <svg width=1366 height=768>
    <circle cx=620 cy=384 r=12.17196567190433 stroke=""black"" stroke-width=""1"" fill=""black"" />
    <circle cx=571.2485 cy=384 r=17.388522388434758 stroke=""none"" stroke-width=""1.5"" fill=""none"" />
    <circle cx=480.71000000000004 cy=474.5385 r=17.388522388434758 stroke=""none"" stroke-width=""1.5"" fill=""none"" />
    <circle cx=390.17150000000004 cy=384 r=17.388522388434758 stroke=""none"" stroke-width=""1.5"" fill=""none"" />
    <circle cx=480.71000000000004 cy=293.4615 r=17.388522388434758 stroke=""none"" stroke-width=""1.5"" fill=""none"" />
    <polygon points = ""480.71000000000004,384 485.6013044052548,366.61147761156525 475.8186955947453,366.61147761156525"" stroke=""none"" stroke-width=""3"" fill = ""none"" />
    
    </svg>
    </div>
        ","","","","","","","","","","","","","","","","","","","","","","","","","","","","",""
"html-keyboard-response","12","278964","0.0-12.0","35.700000047683716","arrowup","","
    <div style="" display: block;  position: relative;"">
    <svg width=1366 height=768>
    
    <circle cx=620 cy=384 r=12.17196567190433 stroke=""black"" stroke-width=""1"" fill=""black"" />
    <circle cx=480.71000000000004 cy=384 r=17.388522388434758 stroke=""black"" stroke-width=""1.5"" fill=""none"" />
    <circle cx=571.2485 cy=384 r=17.388522388434758 stroke=""black"" stroke-width=""1.5"" fill=""none"" />
    <circle cx=480.71000000000004 cy=474.5385 r=17.388522388434758 stroke=""black"" stroke-width=""1.5"" fill=""none"" />
    <circle cx=390.17150000000004 cy=384 r=17.388522388434758 stroke=""black"" stroke-width=""1.5"" fill=""none"" />
    <circle cx=480.71000000000004 cy=293.4615 r=17.388522388434758 stroke=""black"" stroke-width=""1.5"" fill=""none"" />
    <polygon points = ""480.71000000000004,384 485.6013044052548,401.38852238843475 475.8186955947453,401.38852238843475"" stroke=""white"" stroke-width=""3"" fill = ""white"" />
    
    </svg>
    </div>
        ","","","","","","","","","","","","stimulus","","","","","","","","","","","","","","","","",""
"html-keyboard-response","13","279709","0.0-13.0","743","arrowup","","
    <div style="" display: block;  position: relative;"">
    
    <svg width=1366 height=768>
    <circle cx=620 cy=384 r=12.17196567190433 stroke=""black"" stroke-width=""1"" fill=""black"" />
    <circle cx=571.2485 cy=384 r=17.388522388434758 stroke=""none"" stroke-width=""1.5"" fill=""none"" />
    <circle cx=480.71000000000004 cy=474.5385 r=17.388522388434758 stroke=""none"" stroke-width=""1.5"" fill=""none"" />
    <circle cx=390.17150000000004 cy=384 r=17.388522388434758 stroke=""none"" stroke-width=""1.5"" fill=""none"" />
    <circle cx=480.71000000000004 cy=293.4615 r=17.388522388434758 stroke=""none"" stroke-width=""1.5"" fill=""none"" />
    <polygon points = ""480.71000000000004,384 485.6013044052548,401.38852238843475 475.8186955947453,401.38852238843475"" stroke=""none"" stroke-width=""3"" fill = ""none"" />
    
    </svg>
    </div>
        ","","","","","","","","","","","","practice_get_response","false","xXpnBRTCjQPtJp2d","90.5385","2.6","true","false","true","139.29","4","448.146","","","","","","",""
"html-keyboard-response","14","280099","0.0-14.0","387.5","arrowdown","","
    <div style="" display: block;  position: relative;"">
    
    <svg width=1366 height=768>
    <circle cx=620 cy=384 r=12.17196567190433 stroke=""black"" stroke-width=""1"" fill=""black"" />
    <circle cx=571.2485 cy=384 r=17.388522388434758 stroke=""none"" stroke-width=""1.5"" fill=""none"" />
    <circle cx=480.71000000000004 cy=474.5385 r=17.388522388434758 stroke=""none"" stroke-width=""1.5"" fill=""none"" />
    <circle cx=390.17150000000004 cy=384 r=17.388522388434758 stroke=""none"" stroke-width=""1.5"" fill=""none"" />
    <circle cx=480.71000000000004 cy=293.4615 r=17.388522388434758 stroke=""none"" stroke-width=""1.5"" fill=""none"" />
    <polygon points = ""480.71000000000004,384 485.6013044052548,401.38852238843475 475.8186955947453,401.38852238843475"" stroke=""none"" stroke-width=""3"" fill = ""none"" />
    
    </svg>
    </div>
        ","","","","","","","","","","","","","","","","","","","","","","","","","","","","",""
"html-keyboard-response","15","280259","0.0-15.0","null","null","","
    <div style="" display: block;  position: relative;"">
    <svg width=1366 height=768>
    
    <circle cx=620 cy=384 r=12.17196567190433 stroke=""black"" stroke-width=""1"" fill=""black"" />
    <circle cx=759.29 cy=384 r=17.388522388434758 stroke=""black"" stroke-width=""1.5"" fill=""none"" />
    <circle cx=863.8029552231304 cy=384 r=17.388522388434758 stroke=""black"" stroke-width=""1.5"" fill=""none"" />
    <circle cx=759.29 cy=488.51295522313046 r=17.388522388434758 stroke=""black"" stroke-width=""1.5"" fill=""none"" />
    <circle cx=654.7770447768695 cy=384 r=17.388522388434758 stroke=""black"" stroke-width=""1.5"" fill=""none"" />
    <circle cx=759.29 cy=279.48704477686954 r=17.388522388434758 stroke=""black"" stroke-width=""1.5"" fill=""none"" />
    <polygon points = ""759.29,384 764.1813044052548,366.61147761156525 754.3986955947452,366.61147761156525"" stroke=""white"" stroke-width=""3"" fill = ""white"" />
    
    </svg>
    </div>
        ","","","","","","","","","","","","stimulus","","","","","","","","","","","","","","","","",""
"html-keyboard-response","16","281043","0.0-16.0","781.8000000119209","arrowdown","","
    <div style="" display: block;  position: relative;"">
    
    <svg width=1366 height=768>
    <circle cx=620 cy=384 r=12.17196567190433 stroke=""black"" stroke-width=""1"" fill=""black"" />
    <circle cx=863.8029552231304 cy=384 r=17.388522388434758 stroke=""none"" stroke-width=""1.5"" fill=""none"" />
    <circle cx=759.29 cy=488.51295522313046 r=17.388522388434758 stroke=""none"" stroke-width=""1.5"" fill=""none"" />
    <circle cx=654.7770447768695 cy=384 r=17.388522388434758 stroke=""none"" stroke-width=""1.5"" fill=""none"" />
    <circle cx=759.29 cy=279.48704477686954 r=17.388522388434758 stroke=""none"" stroke-width=""1.5"" fill=""none"" />
    <polygon points = ""759.29,384 764.1813044052548,366.61147761156525 754.3986955947452,366.61147761156525"" stroke=""none"" stroke-width=""3"" fill = ""none"" />
    
    </svg>
    </div>
        ","","","","","","","","","","","","practice_get_response","false","xXpnBRTCjQPtJp2d","104.51295522313048","3","false","true","true","139.29","4","448.146","","","","","","",""
"html-keyboard-response","17","281547","0.0-17.0","null","null","","
    <div style="" display: block;  position: relative;"">
    
    <svg width=1366 height=768>
    <circle cx=620 cy=384 r=12.17196567190433 stroke=""black"" stroke-width=""1"" fill=""black"" />
    <circle cx=863.8029552231304 cy=384 r=17.388522388434758 stroke=""none"" stroke-width=""1.5"" fill=""none"" />
    <circle cx=759.29 cy=488.51295522313046 r=17.388522388434758 stroke=""none"" stroke-width=""1.5"" fill=""none"" />
    <circle cx=654.7770447768695 cy=384 r=17.388522388434758 stroke=""none"" stroke-width=""1.5"" fill=""none"" />
    <circle cx=759.29 cy=279.48704477686954 r=17.388522388434758 stroke=""none"" stroke-width=""1.5"" fill=""none"" />
    <polygon points = ""759.29,384 764.1813044052548,366.61147761156525 754.3986955947452,366.61147761156525"" stroke=""none"" stroke-width=""3"" fill = ""none"" />
    
    </svg>
    </div>
        ","","","","","","","","","","","","","","","","","","","","","","","","","","","","",""
"html-keyboard-response","18","281579","0.0-18.0","30.899999976158142","arrowdown","","
    <div style="" display: block;  position: relative;"">
    <svg width=1366 height=768>
    
    <circle cx=620 cy=384 r=12.17196567190433 stroke=""black"" stroke-width=""1"" fill=""black"" />
    <circle cx=480.71000000000004 cy=384 r=17.388522388434758 stroke=""black"" stroke-width=""1.5"" fill=""none"" />
    <circle cx=585.2229552231305 cy=384 r=17.388522388434758 stroke=""black"" stroke-width=""1.5"" fill=""none"" />
    <circle cx=480.71000000000004 cy=488.51295522313046 r=17.388522388434758 stroke=""black"" stroke-width=""1.5"" fill=""none"" />
    <circle cx=376.1970447768696 cy=384 r=17.388522388434758 stroke=""black"" stroke-width=""1.5"" fill=""none"" />
    <circle cx=480.71000000000004 cy=279.48704477686954 r=17.388522388434758 stroke=""black"" stroke-width=""1.5"" fill=""none"" />
    <polygon points = ""480.71000000000004,384 485.6013044052548,366.61147761156525 475.8186955947453,366.61147761156525"" stroke=""white"" stroke-width=""3"" fill = ""white"" />
    
    </svg>
    </div>
        ","","","","","","","","","","","","stimulus","","","","","","","","","","","","","","","","",""
"html-keyboard-response","19","281968","0.0-19.0","387","arrowdown","","
    <div style="" display: block;  position: relative;"">
    
    <svg width=1366 height=768>
    <circle cx=620 cy=384 r=12.17196567190433 stroke=""black"" stroke-width=""1"" fill=""black"" />
    <circle cx=585.2229552231305 cy=384 r=17.388522388434758 stroke=""none"" stroke-width=""1.5"" fill=""none"" />
    <circle cx=480.71000000000004 cy=488.51295522313046 r=17.388522388434758 stroke=""none"" stroke-width=""1.5"" fill=""none"" />
    <circle cx=376.1970447768696 cy=384 r=17.388522388434758 stroke=""none"" stroke-width=""1.5"" fill=""none"" />
    <circle cx=480.71000000000004 cy=279.48704477686954 r=17.388522388434758 stroke=""none"" stroke-width=""1.5"" fill=""none"" />
    <polygon points = ""480.71000000000004,384 485.6013044052548,366.61147761156525 475.8186955947453,366.61147761156525"" stroke=""none"" stroke-width=""3"" fill = ""none"" />
    
    </svg>
    </div>
        ","","","","","","","","","","","","practice_get_response","false","xXpnBRTCjQPtJp2d","104.51295522313048","3","true","true","true","139.29","4","448.146","","","","","","",""
"html-keyboard-response","20","282390","0.0-20.0","421.5","arrowup","","
    <div style="" display: block;  position: relative;"">
    
    <svg width=1366 height=768>
    <circle cx=620 cy=384 r=12.17196567190433 stroke=""black"" stroke-width=""1"" fill=""black"" />
    <circle cx=585.2229552231305 cy=384 r=17.388522388434758 stroke=""none"" stroke-width=""1.5"" fill=""none"" />
    <circle cx=480.71000000000004 cy=488.51295522313046 r=17.388522388434758 stroke=""none"" stroke-width=""1.5"" fill=""none"" />
    <circle cx=376.1970447768696 cy=384 r=17.388522388434758 stroke=""none"" stroke-width=""1.5"" fill=""none"" />
    <circle cx=480.71000000000004 cy=279.48704477686954 r=17.388522388434758 stroke=""none"" stroke-width=""1.5"" fill=""none"" />
    <polygon points = ""480.71000000000004,384 485.6013044052548,366.61147761156525 475.8186955947453,366.61147761156525"" stroke=""none"" stroke-width=""3"" fill = ""none"" />
    
    </svg>
    </div>
        ","","","","","","","","","","","","","","","","","","","","","","","","","","","","",""
"html-keyboard-response","21","282543","0.0-21.0","null","null","","
    <div style="" display: block;  position: relative;"">
    <svg width=1366 height=768>
    
    <circle cx=620 cy=384 r=12.17196567190433 stroke=""black"" stroke-width=""1"" fill=""black"" />
    <circle cx=480.71000000000004 cy=384 r=17.388522388434758 stroke=""black"" stroke-width=""1.5"" fill=""none"" />
    <circle cx=585.2229552231305 cy=384 r=17.388522388434758 stroke=""black"" stroke-width=""1.5"" fill=""none"" />
    <circle cx=480.71000000000004 cy=488.51295522313046 r=17.388522388434758 stroke=""black"" stroke-width=""1.5"" fill=""none"" />
    <circle cx=376.1970447768696 cy=384 r=17.388522388434758 stroke=""black"" stroke-width=""1.5"" fill=""none"" />
    <circle cx=480.71000000000004 cy=279.48704477686954 r=17.388522388434758 stroke=""black"" stroke-width=""1.5"" fill=""none"" />
    <polygon points = ""480.71000000000004,384 485.6013044052548,401.38852238843475 475.8186955947453,401.38852238843475"" stroke=""white"" stroke-width=""3"" fill = ""white"" />
    
    </svg>
    </div>
        ","","","","","","","","","","","","stimulus","","","","","","","","","","","","","","","","",""
"html-keyboard-response","22","283211","0.0-22.0","666","arrowup","","
    <div style="" display: block;  position: relative;"">
    
    <svg width=1366 height=768>
    <circle cx=620 cy=384 r=12.17196567190433 stroke=""black"" stroke-width=""1"" fill=""black"" />
    <circle cx=585.2229552231305 cy=384 r=17.388522388434758 stroke=""none"" stroke-width=""1.5"" fill=""none"" />
    <circle cx=480.71000000000004 cy=488.51295522313046 r=17.388522388434758 stroke=""none"" stroke-width=""1.5"" fill=""none"" />
    <circle cx=376.1970447768696 cy=384 r=17.388522388434758 stroke=""none"" stroke-width=""1.5"" fill=""none"" />
    <circle cx=480.71000000000004 cy=279.48704477686954 r=17.388522388434758 stroke=""none"" stroke-width=""1.5"" fill=""none"" />
    <polygon points = ""480.71000000000004,384 485.6013044052548,401.38852238843475 475.8186955947453,401.38852238843475"" stroke=""none"" stroke-width=""3"" fill = ""none"" />
    
    </svg>
    </div>
        ","","","","","","","","","","","","practice_get_response","false","xXpnBRTCjQPtJp2d","104.51295522313048","3","true","false","true","139.29","4","448.146","","","","","","",""
"html-keyboard-response","23","292040","0.0-23.0","8828.600000023842","arrowdown","","<div> 
<h2 class=""bolded-blue"">Well done!</h2>
<p> Now that you have the hang of it, we&#39;ll start the study. This session has 25 trials and takes about 2 minute to complete. </p> 
<p>If you are ready for the real deal, please press the <b>down</b> arrow to continue.
</p>
</div>","","","","","","","","","","","","","","","","","","","","","","","","","","","","",""
"html-keyboard-response","24","326577","0.0-24.0","34533.39999997616","arrowdown","","<div id=""continue""> 
<p>Again, please keep the <b>full screen</b> mode for the best experience.</p>
<p>Please do not move around and keep your eye on the black dot. Click <b>up</b> or <b>down</b> key on your keyboard to indicate the opening of the center circle. Make your best guess!</p>
<p>Please press the <b>down</b> arrow key to start the session 1. </p>
</div>","","","","","","","","","","","","","","","","","","","","","","","","","","","","",""
"html-keyboard-response","25","327082","0.0-25.0","null","null","","
    <div style="" display: block;  position: relative;"">
    
    <svg width=1366 height=768>
    <circle cx=620 cy=384 r=12.17196567190433 stroke=""black"" stroke-width=""1"" fill=""black"" />
    <circle cx=585.2229552231305 cy=384 r=17.388522388434758 stroke=""none"" stroke-width=""1.5"" fill=""none"" />
    <circle cx=480.71000000000004 cy=488.51295522313046 r=17.388522388434758 stroke=""none"" stroke-width=""1.5"" fill=""none"" />
    <circle cx=376.1970447768696 cy=384 r=17.388522388434758 stroke=""none"" stroke-width=""1.5"" fill=""none"" />
    <circle cx=480.71000000000004 cy=279.48704477686954 r=17.388522388434758 stroke=""none"" stroke-width=""1.5"" fill=""none"" />
    <polygon points = ""480.71000000000004,384 485.6013044052548,401.38852238843475 475.8186955947453,401.38852238843475"" stroke=""none"" stroke-width=""3"" fill = ""none"" />
    
    </svg>
    </div>
        ","","","","","","","","","","","","","","","","","","","","","","","","","","","","",""
"html-keyboard-response","26","327242","0.0-26.0","null","null","","
    <div style="" display: block;  position: relative;"">
    <svg width=1366 height=768>
    
    <circle cx=620 cy=384 r=12.17196567190433 stroke=""black"" stroke-width=""1"" fill=""black"" />
    <circle cx=759.29 cy=384 r=17.388522388434758 stroke=""black"" stroke-width=""1.5"" fill=""none"" />
    <circle cx=849.8285 cy=384 r=17.388522388434758 stroke=""black"" stroke-width=""1.5"" fill=""none"" />
    <circle cx=759.29 cy=474.5385 r=17.388522388434758 stroke=""black"" stroke-width=""1.5"" fill=""none"" />
    <circle cx=668.7515 cy=384 r=17.388522388434758 stroke=""black"" stroke-width=""1.5"" fill=""none"" />
    <circle cx=759.29 cy=293.4615 r=17.388522388434758 stroke=""black"" stroke-width=""1.5"" fill=""none"" />
    <polygon points = ""759.29,384 764.1813044052548,401.38852238843475 754.3986955947452,401.38852238843475"" stroke=""white"" stroke-width=""3"" fill = ""white"" />
    
    </svg>
    </div>
        ","","","","","","","","","","","","stimulus","","","","","","","","","","","","","","","","",""
"html-keyboard-response","27","328605","0.0-27.0","1360.4000000357628","arrowdown","","
    <div style="" display: block;  position: relative;"">
    
    <svg width=1366 height=768>
    <circle cx=620 cy=384 r=12.17196567190433 stroke=""black"" stroke-width=""1"" fill=""black"" />
    <circle cx=849.8285 cy=384 r=17.388522388434758 stroke=""none"" stroke-width=""1.5"" fill=""none"" />
    <circle cx=759.29 cy=474.5385 r=17.388522388434758 stroke=""none"" stroke-width=""1.5"" fill=""none"" />
    <circle cx=668.7515 cy=384 r=17.388522388434758 stroke=""none"" stroke-width=""1.5"" fill=""none"" />
    <circle cx=759.29 cy=293.4615 r=17.388522388434758 stroke=""none"" stroke-width=""1.5"" fill=""none"" />
    <polygon points = ""759.29,384 764.1813044052548,401.38852238843475 754.3986955947452,401.38852238843475"" stroke=""none"" stroke-width=""3"" fill = ""none"" />
    
    </svg>
    </div>
        ","","","","","","","","","","","","get_response","true","xXpnBRTCjQPtJp2d","","","false","false","true","139.29","4","448.146","90.5385","2.6","1","0","","",""
"html-keyboard-response","28","329115","0.0-28.0","null","null","","
    <div style="" display: block;  position: relative;"">
    
    <svg width=1366 height=768>
    <circle cx=620 cy=384 r=12.17196567190433 stroke=""black"" stroke-width=""1"" fill=""black"" />
    <circle cx=849.8285 cy=384 r=17.388522388434758 stroke=""none"" stroke-width=""1.5"" fill=""none"" />
    <circle cx=759.29 cy=474.5385 r=17.388522388434758 stroke=""none"" stroke-width=""1.5"" fill=""none"" />
    <circle cx=668.7515 cy=384 r=17.388522388434758 stroke=""none"" stroke-width=""1.5"" fill=""none"" />
    <circle cx=759.29 cy=293.4615 r=17.388522388434758 stroke=""none"" stroke-width=""1.5"" fill=""none"" />
    <polygon points = ""759.29,384 764.1813044052548,401.38852238843475 754.3986955947452,401.38852238843475"" stroke=""none"" stroke-width=""3"" fill = ""none"" />
    
    </svg>
    </div>
        ","","","","","","","","","","","","","","","","","","","","","","","","","","","","",""
"html-keyboard-response","29","329276","0.0-29.0","null","null","","
    <div style="" display: block;  position: relative;"">
    <svg width=1366 height=768>
    
    <circle cx=620 cy=384 r=12.17196567190433 stroke=""black"" stroke-width=""1"" fill=""black"" />
    <circle cx=759.29 cy=384 r=17.388522388434758 stroke=""black"" stroke-width=""1.5"" fill=""none"" />
    <circle cx=849.8285 cy=384 r=17.388522388434758 stroke=""black"" stroke-width=""1.5"" fill=""none"" />
    <circle cx=759.29 cy=474.5385 r=17.388522388434758 stroke=""black"" stroke-width=""1.5"" fill=""none"" />
    <circle cx=668.7515 cy=384 r=17.388522388434758 stroke=""black"" stroke-width=""1.5"" fill=""none"" />
    <circle cx=759.29 cy=293.4615 r=17.388522388434758 stroke=""black"" stroke-width=""1.5"" fill=""none"" />
    <polygon points = ""759.29,384 764.1813044052548,401.38852238843475 754.3986955947452,401.38852238843475"" stroke=""white"" stroke-width=""3"" fill = ""white"" />
    
    </svg>
    </div>
        ","","","","","","","","","","","","stimulus","","","","","","","","","","","","","","","","",""
"html-keyboard-response","30","330440","0.0-30.0","1162.3999999761581","arrowdown","","
    <div style="" display: block;  position: relative;"">
    
    <svg width=1366 height=768>
    <circle cx=620 cy=384 r=12.17196567190433 stroke=""black"" stroke-width=""1"" fill=""black"" />
    <circle cx=849.8285 cy=384 r=17.388522388434758 stroke=""none"" stroke-width=""1.5"" fill=""none"" />
    <circle cx=759.29 cy=474.5385 r=17.388522388434758 stroke=""none"" stroke-width=""1.5"" fill=""none"" />
    <circle cx=668.7515 cy=384 r=17.388522388434758 stroke=""none"" stroke-width=""1.5"" fill=""none"" />
    <circle cx=759.29 cy=293.4615 r=17.388522388434758 stroke=""none"" stroke-width=""1.5"" fill=""none"" />
    <polygon points = ""759.29,384 764.1813044052548,401.38852238843475 754.3986955947452,401.38852238843475"" stroke=""none"" stroke-width=""3"" fill = ""none"" />
    
    </svg>
    </div>
        ","","","","","","","","","","","","get_response","true","xXpnBRTCjQPtJp2d","","","false","false","true","139.29","4","448.146","90.5385","2.6","1","0","","",""
"html-keyboard-response","31","330949","0.0-31.0","null","null","","
    <div style="" display: block;  position: relative;"">
    
    <svg width=1366 height=768>
    <circle cx=620 cy=384 r=12.17196567190433 stroke=""black"" stroke-width=""1"" fill=""black"" />
    <circle cx=849.8285 cy=384 r=17.388522388434758 stroke=""none"" stroke-width=""1.5"" fill=""none"" />
    <circle cx=759.29 cy=474.5385 r=17.388522388434758 stroke=""none"" stroke-width=""1.5"" fill=""none"" />
    <circle cx=668.7515 cy=384 r=17.388522388434758 stroke=""none"" stroke-width=""1.5"" fill=""none"" />
    <circle cx=759.29 cy=293.4615 r=17.388522388434758 stroke=""none"" stroke-width=""1.5"" fill=""none"" />
    <polygon points = ""759.29,384 764.1813044052548,401.38852238843475 754.3986955947452,401.38852238843475"" stroke=""none"" stroke-width=""3"" fill = ""none"" />
    
    </svg>
    </div>
        ","","","","","","","","","","","","","","","","","","","","","","","","","","","","",""
"html-keyboard-response","32","331109","0.0-32.0","null","null","","
    <div style="" display: block;  position: relative;"">
    <svg width=1366 height=768>
    
    <circle cx=620 cy=384 r=12.17196567190433 stroke=""black"" stroke-width=""1"" fill=""black"" />
    <circle cx=480.71000000000004 cy=384 r=17.388522388434758 stroke=""black"" stroke-width=""1.5"" fill=""none"" />
    <circle cx=571.2485 cy=384 r=17.388522388434758 stroke=""black"" stroke-width=""1.5"" fill=""none"" />
    <circle cx=480.71000000000004 cy=474.5385 r=17.388522388434758 stroke=""black"" stroke-width=""1.5"" fill=""none"" />
    <circle cx=390.17150000000004 cy=384 r=17.388522388434758 stroke=""black"" stroke-width=""1.5"" fill=""none"" />
    <circle cx=480.71000000000004 cy=293.4615 r=17.388522388434758 stroke=""black"" stroke-width=""1.5"" fill=""none"" />
    <polygon points = ""480.71000000000004,384 485.6013044052548,366.61147761156525 475.8186955947453,366.61147761156525"" stroke=""white"" stroke-width=""3"" fill = ""white"" />
    
    </svg>
    </div>
        ","","","","","","","","","","","","stimulus","","","","","","","","","","","","","","","","",""
"html-keyboard-response","33","331952","0.0-33.0","840.1000000238419","arrowup","","
    <div style="" display: block;  position: relative;"">
    
    <svg width=1366 height=768>
    <circle cx=620 cy=384 r=12.17196567190433 stroke=""black"" stroke-width=""1"" fill=""black"" />
    <circle cx=571.2485 cy=384 r=17.388522388434758 stroke=""none"" stroke-width=""1.5"" fill=""none"" />
    <circle cx=480.71000000000004 cy=474.5385 r=17.388522388434758 stroke=""none"" stroke-width=""1.5"" fill=""none"" />
    <circle cx=390.17150000000004 cy=384 r=17.388522388434758 stroke=""none"" stroke-width=""1.5"" fill=""none"" />
    <circle cx=480.71000000000004 cy=293.4615 r=17.388522388434758 stroke=""none"" stroke-width=""1.5"" fill=""none"" />
    <polygon points = ""480.71000000000004,384 485.6013044052548,366.61147761156525 475.8186955947453,366.61147761156525"" stroke=""none"" stroke-width=""3"" fill = ""none"" />
    
    </svg>
    </div>
        ","","","","","","","","","","","","get_response","true","xXpnBRTCjQPtJp2d","","","true","true","true","139.29","4","448.146","90.5385","2.6","1","0","","",""
"html-keyboard-response","34","332465","0.0-34.0","null","null","","
    <div style="" display: block;  position: relative;"">
    
    <svg width=1366 height=768>
    <circle cx=620 cy=384 r=12.17196567190433 stroke=""black"" stroke-width=""1"" fill=""black"" />
    <circle cx=571.2485 cy=384 r=17.388522388434758 stroke=""none"" stroke-width=""1.5"" fill=""none"" />
    <circle cx=480.71000000000004 cy=474.5385 r=17.388522388434758 stroke=""none"" stroke-width=""1.5"" fill=""none"" />
    <circle cx=390.17150000000004 cy=384 r=17.388522388434758 stroke=""none"" stroke-width=""1.5"" fill=""none"" />
    <circle cx=480.71000000000004 cy=293.4615 r=17.388522388434758 stroke=""none"" stroke-width=""1.5"" fill=""none"" />
    <polygon points = ""480.71000000000004,384 485.6013044052548,366.61147761156525 475.8186955947453,366.61147761156525"" stroke=""none"" stroke-width=""3"" fill = ""none"" />
    
    </svg>
    </div>
        ","","","","","","","","","","","","","","","","","","","","","","","","","","","","",""
"html-keyboard-response","35","332626","0.0-35.0","null","null","","
    <div style="" display: block;  position: relative;"">
    <svg width=1366 height=768>
    
    <circle cx=620 cy=384 r=12.17196567190433 stroke=""black"" stroke-width=""1"" fill=""black"" />
    <circle cx=480.71000000000004 cy=384 r=17.388522388434758 stroke=""black"" stroke-width=""1.5"" fill=""none"" />
    <circle cx=563.0177272727273 cy=384 r=17.388522388434758 stroke=""black"" stroke-width=""1.5"" fill=""none"" />
    <circle cx=480.71000000000004 cy=466.3077272727273 r=17.388522388434758 stroke=""black"" stroke-width=""1.5"" fill=""none"" />
    <circle cx=398.40227272727276 cy=384 r=17.388522388434758 stroke=""black"" stroke-width=""1.5"" fill=""none"" />
    <circle cx=480.71000000000004 cy=301.6922727272727 r=17.388522388434758 stroke=""black"" stroke-width=""1.5"" fill=""none"" />
    <polygon points = ""480.71000000000004,384 485.6013044052548,366.61147761156525 475.8186955947453,366.61147761156525"" stroke=""white"" stroke-width=""3"" fill = ""white"" />
    
    </svg>
    </div>
        ","","","","","","","","","","","","stimulus","","","","","","","","","","","","","","","","",""
"html-keyboard-response","36","333241","0.0-36.0","613.1999999880791","arrowup","","
    <div style="" display: block;  position: relative;"">
    
    <svg width=1366 height=768>
    <circle cx=620 cy=384 r=12.17196567190433 stroke=""black"" stroke-width=""1"" fill=""black"" />
    <circle cx=563.0177272727273 cy=384 r=17.388522388434758 stroke=""none"" stroke-width=""1.5"" fill=""none"" />
    <circle cx=480.71000000000004 cy=466.3077272727273 r=17.388522388434758 stroke=""none"" stroke-width=""1.5"" fill=""none"" />
    <circle cx=398.40227272727276 cy=384 r=17.388522388434758 stroke=""none"" stroke-width=""1.5"" fill=""none"" />
    <circle cx=480.71000000000004 cy=301.6922727272727 r=17.388522388434758 stroke=""none"" stroke-width=""1.5"" fill=""none"" />
    <polygon points = ""480.71000000000004,384 485.6013044052548,366.61147761156525 475.8186955947453,366.61147761156525"" stroke=""none"" stroke-width=""3"" fill = ""none"" />
    
    </svg>
    </div>
        ","","","","","","","","","","","","get_response","true","xXpnBRTCjQPtJp2d","","","true","true","true","139.29","4","448.146","82.30772727272726","2.36","1","0","","",""
"html-keyboard-response","37","333749","0.0-37.0","null","null","","
    <div style="" display: block;  position: relative;"">
    
    <svg width=1366 height=768>
    <circle cx=620 cy=384 r=12.17196567190433 stroke=""black"" stroke-width=""1"" fill=""black"" />
    <circle cx=563.0177272727273 cy=384 r=17.388522388434758 stroke=""none"" stroke-width=""1.5"" fill=""none"" />
    <circle cx=480.71000000000004 cy=466.3077272727273 r=17.388522388434758 stroke=""none"" stroke-width=""1.5"" fill=""none"" />
    <circle cx=398.40227272727276 cy=384 r=17.388522388434758 stroke=""none"" stroke-width=""1.5"" fill=""none"" />
    <circle cx=480.71000000000004 cy=301.6922727272727 r=17.388522388434758 stroke=""none"" stroke-width=""1.5"" fill=""none"" />
    <polygon points = ""480.71000000000004,384 485.6013044052548,366.61147761156525 475.8186955947453,366.61147761156525"" stroke=""none"" stroke-width=""3"" fill = ""none"" />
    
    </svg>
    </div>
        ","","","","","","","","","","","","","","","","","","","","","","","","","","","","",""
"html-keyboard-response","38","333909","0.0-38.0","null","null","","
    <div style="" display: block;  position: relative;"">
    <svg width=1366 height=768>
    
    <circle cx=620 cy=384 r=12.17196567190433 stroke=""black"" stroke-width=""1"" fill=""black"" />
    <circle cx=759.29 cy=384 r=17.388522388434758 stroke=""black"" stroke-width=""1.5"" fill=""none"" />
    <circle cx=834.1152066115702 cy=384 r=17.388522388434758 stroke=""black"" stroke-width=""1.5"" fill=""none"" />
    <circle cx=759.29 cy=458.82520661157025 r=17.388522388434758 stroke=""black"" stroke-width=""1.5"" fill=""none"" />
    <circle cx=684.4647933884297 cy=384 r=17.388522388434758 stroke=""black"" stroke-width=""1.5"" fill=""none"" />
    <circle cx=759.29 cy=309.17479338842975 r=17.388522388434758 stroke=""black"" stroke-width=""1.5"" fill=""none"" />
    <polygon points = ""759.29,384 764.1813044052548,401.38852238843475 754.3986955947452,401.38852238843475"" stroke=""white"" stroke-width=""3"" fill = ""white"" />
    
    </svg>
    </div>
        ","","","","","","","","","","","","stimulus","","","","","","","","","","","","","","","","",""
"html-keyboard-response","39","334337","0.0-39.0","426","arrowdown","","
    <div style="" display: block;  position: relative;"">
    
    <svg width=1366 height=768>
    <circle cx=620 cy=384 r=12.17196567190433 stroke=""black"" stroke-width=""1"" fill=""black"" />
    <circle cx=834.1152066115702 cy=384 r=17.388522388434758 stroke=""none"" stroke-width=""1.5"" fill=""none"" />
    <circle cx=759.29 cy=458.82520661157025 r=17.388522388434758 stroke=""none"" stroke-width=""1.5"" fill=""none"" />
    <circle cx=684.4647933884297 cy=384 r=17.388522388434758 stroke=""none"" stroke-width=""1.5"" fill=""none"" />
    <circle cx=759.29 cy=309.17479338842975 r=17.388522388434758 stroke=""none"" stroke-width=""1.5"" fill=""none"" />
    <polygon points = ""759.29,384 764.1813044052548,401.38852238843475 754.3986955947452,401.38852238843475"" stroke=""none"" stroke-width=""3"" fill = ""none"" />
    
    </svg>
    </div>
        ","","","","","","","","","","","","get_response","true","xXpnBRTCjQPtJp2d","","","false","false","true","139.29","4","448.146","74.82520661157024","2.15","1","0","","",""
"html-keyboard-response","40","334849","0.0-40.0","null","null","","
    <div style="" display: block;  position: relative;"">
    
    <svg width=1366 height=768>
    <circle cx=620 cy=384 r=12.17196567190433 stroke=""black"" stroke-width=""1"" fill=""black"" />
    <circle cx=834.1152066115702 cy=384 r=17.388522388434758 stroke=""none"" stroke-width=""1.5"" fill=""none"" />
    <circle cx=759.29 cy=458.82520661157025 r=17.388522388434758 stroke=""none"" stroke-width=""1.5"" fill=""none"" />
    <circle cx=684.4647933884297 cy=384 r=17.388522388434758 stroke=""none"" stroke-width=""1.5"" fill=""none"" />
    <circle cx=759.29 cy=309.17479338842975 r=17.388522388434758 stroke=""none"" stroke-width=""1.5"" fill=""none"" />
    <polygon points = ""759.29,384 764.1813044052548,401.38852238843475 754.3986955947452,401.38852238843475"" stroke=""none"" stroke-width=""3"" fill = ""none"" />
    
    </svg>
    </div>
        ","","","","","","","","","","","","","","","","","","","","","","","","","","","","",""
"html-keyboard-response","41","335010","0.0-41.0","null","null","","
    <div style="" display: block;  position: relative;"">
    <svg width=1366 height=768>
    
    <circle cx=620 cy=384 r=12.17196567190433 stroke=""black"" stroke-width=""1"" fill=""black"" />
    <circle cx=480.71000000000004 cy=384 r=17.388522388434758 stroke=""black"" stroke-width=""1.5"" fill=""none"" />
    <circle cx=548.7329151014276 cy=384 r=17.388522388434758 stroke=""black"" stroke-width=""1.5"" fill=""none"" />
    <circle cx=480.71000000000004 cy=452.0229151014275 r=17.388522388434758 stroke=""black"" stroke-width=""1.5"" fill=""none"" />
    <circle cx=412.68708489857255 cy=384 r=17.388522388434758 stroke=""black"" stroke-width=""1.5"" fill=""none"" />
    <circle cx=480.71000000000004 cy=315.9770848985725 r=17.388522388434758 stroke=""black"" stroke-width=""1.5"" fill=""none"" />
    <polygon points = ""480.71000000000004,384 485.6013044052548,366.61147761156525 475.8186955947453,366.61147761156525"" stroke=""white"" stroke-width=""3"" fill = ""white"" />
    
    </svg>
    </div>
        ","","","","","","","","","","","","stimulus","","","","","","","","","","","","","","","","",""
"html-keyboard-response","42","335855","0.0-42.0","843.8999999761581","arrowup","","
    <div style="" display: block;  position: relative;"">
    
    <svg width=1366 height=768>
    <circle cx=620 cy=384 r=12.17196567190433 stroke=""black"" stroke-width=""1"" fill=""black"" />
    <circle cx=548.7329151014276 cy=384 r=17.388522388434758 stroke=""none"" stroke-width=""1.5"" fill=""none"" />
    <circle cx=480.71000000000004 cy=452.0229151014275 r=17.388522388434758 stroke=""none"" stroke-width=""1.5"" fill=""none"" />
    <circle cx=412.68708489857255 cy=384 r=17.388522388434758 stroke=""none"" stroke-width=""1.5"" fill=""none"" />
    <circle cx=480.71000000000004 cy=315.9770848985725 r=17.388522388434758 stroke=""none"" stroke-width=""1.5"" fill=""none"" />
    <polygon points = ""480.71000000000004,384 485.6013044052548,366.61147761156525 475.8186955947453,366.61147761156525"" stroke=""none"" stroke-width=""3"" fill = ""none"" />
    
    </svg>
    </div>
        ","","","","","","","","","","","","get_response","true","xXpnBRTCjQPtJp2d","","","true","true","true","139.29","4","448.146","68.02291510142749","1.95","1","0","","",""
"html-keyboard-response","43","336364","0.0-43.0","null","null","","
    <div style="" display: block;  position: relative;"">
    
    <svg width=1366 height=768>
    <circle cx=620 cy=384 r=12.17196567190433 stroke=""black"" stroke-width=""1"" fill=""black"" />
    <circle cx=548.7329151014276 cy=384 r=17.388522388434758 stroke=""none"" stroke-width=""1.5"" fill=""none"" />
    <circle cx=480.71000000000004 cy=452.0229151014275 r=17.388522388434758 stroke=""none"" stroke-width=""1.5"" fill=""none"" />
    <circle cx=412.68708489857255 cy=384 r=17.388522388434758 stroke=""none"" stroke-width=""1.5"" fill=""none"" />
    <circle cx=480.71000000000004 cy=315.9770848985725 r=17.388522388434758 stroke=""none"" stroke-width=""1.5"" fill=""none"" />
    <polygon points = ""480.71000000000004,384 485.6013044052548,366.61147761156525 475.8186955947453,366.61147761156525"" stroke=""none"" stroke-width=""3"" fill = ""none"" />
    
    </svg>
    </div>
        ","","","","","","","","","","","","","","","","","","","","","","","","","","","","",""
"html-keyboard-response","44","336525","0.0-44.0","null","null","","
    <div style="" display: block;  position: relative;"">
    <svg width=1366 height=768>
    
    <circle cx=620 cy=384 r=12.17196567190433 stroke=""black"" stroke-width=""1"" fill=""black"" />
    <circle cx=759.29 cy=384 r=17.388522388434758 stroke=""black"" stroke-width=""1.5"" fill=""none"" />
    <circle cx=821.1290137285704 cy=384 r=17.388522388434758 stroke=""black"" stroke-width=""1.5"" fill=""none"" />
    <circle cx=759.29 cy=445.8390137285704 r=17.388522388434758 stroke=""black"" stroke-width=""1.5"" fill=""none"" />
    <circle cx=697.4509862714295 cy=384 r=17.388522388434758 stroke=""black"" stroke-width=""1.5"" fill=""none"" />
    <circle cx=759.29 cy=322.1609862714296 r=17.388522388434758 stroke=""black"" stroke-width=""1.5"" fill=""none"" />
    <polygon points = ""759.29,384 764.1813044052548,401.38852238843475 754.3986955947452,401.38852238843475"" stroke=""white"" stroke-width=""3"" fill = ""white"" />
    
    </svg>
    </div>
        ","","","","","","","","","","","","stimulus","","","","","","","","","","","","","","","","",""
"html-keyboard-response","45","336939","0.0-45.0","412","arrowdown","","
    <div style="" display: block;  position: relative;"">
    
    <svg width=1366 height=768>
    <circle cx=620 cy=384 r=12.17196567190433 stroke=""black"" stroke-width=""1"" fill=""black"" />
    <circle cx=821.1290137285704 cy=384 r=17.388522388434758 stroke=""none"" stroke-width=""1.5"" fill=""none"" />
    <circle cx=759.29 cy=445.8390137285704 r=17.388522388434758 stroke=""none"" stroke-width=""1.5"" fill=""none"" />
    <circle cx=697.4509862714295 cy=384 r=17.388522388434758 stroke=""none"" stroke-width=""1.5"" fill=""none"" />
    <circle cx=759.29 cy=322.1609862714296 r=17.388522388434758 stroke=""none"" stroke-width=""1.5"" fill=""none"" />
    <polygon points = ""759.29,384 764.1813044052548,401.38852238843475 754.3986955947452,401.38852238843475"" stroke=""none"" stroke-width=""3"" fill = ""none"" />
    
    </svg>
    </div>
        ","","","","","","","","","","","","get_response","true","xXpnBRTCjQPtJp2d","","","false","false","true","139.29","4","448.146","61.839013728570436","1.77","1","0","","",""
"html-keyboard-response","46","337448","0.0-46.0","null","null","","
    <div style="" display: block;  position: relative;"">
    
    <svg width=1366 height=768>
    <circle cx=620 cy=384 r=12.17196567190433 stroke=""black"" stroke-width=""1"" fill=""black"" />
    <circle cx=821.1290137285704 cy=384 r=17.388522388434758 stroke=""none"" stroke-width=""1.5"" fill=""none"" />
    <circle cx=759.29 cy=445.8390137285704 r=17.388522388434758 stroke=""none"" stroke-width=""1.5"" fill=""none"" />
    <circle cx=697.4509862714295 cy=384 r=17.388522388434758 stroke=""none"" stroke-width=""1.5"" fill=""none"" />
    <circle cx=759.29 cy=322.1609862714296 r=17.388522388434758 stroke=""none"" stroke-width=""1.5"" fill=""none"" />
    <polygon points = ""759.29,384 764.1813044052548,401.38852238843475 754.3986955947452,401.38852238843475"" stroke=""none"" stroke-width=""3"" fill = ""none"" />
    
    </svg>
    </div>
        ","","","","","","","","","","","","","","","","","","","","","","","","","","","","",""
"html-keyboard-response","47","337600","0.0-47.0","null","null","","
    <div style="" display: block;  position: relative;"">
    <svg width=1366 height=768>
    
    <circle cx=620 cy=384 r=12.17196567190433 stroke=""black"" stroke-width=""1"" fill=""black"" />
    <circle cx=759.29 cy=384 r=17.388522388434758 stroke=""black"" stroke-width=""1.5"" fill=""none"" />
    <circle cx=815.5072852077913 cy=384 r=17.388522388434758 stroke=""black"" stroke-width=""1.5"" fill=""none"" />
    <circle cx=759.29 cy=440.2172852077913 r=17.388522388434758 stroke=""black"" stroke-width=""1.5"" fill=""none"" />
    <circle cx=703.0727147922087 cy=384 r=17.388522388434758 stroke=""black"" stroke-width=""1.5"" fill=""none"" />
    <circle cx=759.29 cy=327.7827147922087 r=17.388522388434758 stroke=""black"" stroke-width=""1.5"" fill=""none"" />
    <polygon points = ""759.29,384 764.1813044052548,366.61147761156525 754.3986955947452,366.61147761156525"" stroke=""white"" stroke-width=""3"" fill = ""white"" />
    
    </svg>
    </div>
        ","","","","","","","","","","","","stimulus","","","","","","","","","","","","","","","","",""
"html-keyboard-response","48","338668","0.0-48.0","1066.2000000476837","arrowdown","","
    <div style="" display: block;  position: relative;"">
    
    <svg width=1366 height=768>
    <circle cx=620 cy=384 r=12.17196567190433 stroke=""black"" stroke-width=""1"" fill=""black"" />
    <circle cx=815.5072852077913 cy=384 r=17.388522388434758 stroke=""none"" stroke-width=""1.5"" fill=""none"" />
    <circle cx=759.29 cy=440.2172852077913 r=17.388522388434758 stroke=""none"" stroke-width=""1.5"" fill=""none"" />
    <circle cx=703.0727147922087 cy=384 r=17.388522388434758 stroke=""none"" stroke-width=""1.5"" fill=""none"" />
    <circle cx=759.29 cy=327.7827147922087 r=17.388522388434758 stroke=""none"" stroke-width=""1.5"" fill=""none"" />
    <polygon points = ""759.29,384 764.1813044052548,366.61147761156525 754.3986955947452,366.61147761156525"" stroke=""none"" stroke-width=""3"" fill = ""none"" />
    
    </svg>
    </div>
        ","","","","","","","","","","","","get_response","false","xXpnBRTCjQPtJp2d","","","false","true","true","139.29","4","448.146","56.2172852077913","1.61","1","0","","",""
"html-keyboard-response","49","339170","0.0-49.0","null","null","","
    <div style="" display: block;  position: relative;"">
    
    <svg width=1366 height=768>
    <circle cx=620 cy=384 r=12.17196567190433 stroke=""black"" stroke-width=""1"" fill=""black"" />
    <circle cx=815.5072852077913 cy=384 r=17.388522388434758 stroke=""none"" stroke-width=""1.5"" fill=""none"" />
    <circle cx=759.29 cy=440.2172852077913 r=17.388522388434758 stroke=""none"" stroke-width=""1.5"" fill=""none"" />
    <circle cx=703.0727147922087 cy=384 r=17.388522388434758 stroke=""none"" stroke-width=""1.5"" fill=""none"" />
    <circle cx=759.29 cy=327.7827147922087 r=17.388522388434758 stroke=""none"" stroke-width=""1.5"" fill=""none"" />
    <polygon points = ""759.29,384 764.1813044052548,366.61147761156525 754.3986955947452,366.61147761156525"" stroke=""none"" stroke-width=""3"" fill = ""none"" />
    
    </svg>
    </div>
        ","","","","","","","","","","","","","","","","","","","","","","","","","","","","",""
"html-keyboard-response","50","339327","0.0-50.0","null","null","","
    <div style="" display: block;  position: relative;"">
    <svg width=1366 height=768>
    
    <circle cx=620 cy=384 r=12.17196567190433 stroke=""black"" stroke-width=""1"" fill=""black"" />
    <circle cx=480.71000000000004 cy=384 r=17.388522388434758 stroke=""black"" stroke-width=""1.5"" fill=""none"" />
    <circle cx=553.7924707701287 cy=384 r=17.388522388434758 stroke=""black"" stroke-width=""1.5"" fill=""none"" />
    <circle cx=480.71000000000004 cy=457.0824707701287 r=17.388522388434758 stroke=""black"" stroke-width=""1.5"" fill=""none"" />
    <circle cx=407.62752922987136 cy=384 r=17.388522388434758 stroke=""black"" stroke-width=""1.5"" fill=""none"" />
    <circle cx=480.71000000000004 cy=310.9175292298713 r=17.388522388434758 stroke=""black"" stroke-width=""1.5"" fill=""none"" />
    <polygon points = ""480.71000000000004,384 485.6013044052548,366.61147761156525 475.8186955947453,366.61147761156525"" stroke=""white"" stroke-width=""3"" fill = ""white"" />
    
    </svg>
    </div>
        ","","","","","","","","","","","","stimulus","","","","","","","","","","","","","","","","",""
"html-keyboard-response","51","339830","0.0-51.0","502.10000002384186","arrowup","","
    <div style="" display: block;  position: relative;"">
    
    <svg width=1366 height=768>
    <circle cx=620 cy=384 r=12.17196567190433 stroke=""black"" stroke-width=""1"" fill=""black"" />
    <circle cx=553.7924707701287 cy=384 r=17.388522388434758 stroke=""none"" stroke-width=""1.5"" fill=""none"" />
    <circle cx=480.71000000000004 cy=457.0824707701287 r=17.388522388434758 stroke=""none"" stroke-width=""1.5"" fill=""none"" />
    <circle cx=407.62752922987136 cy=384 r=17.388522388434758 stroke=""none"" stroke-width=""1.5"" fill=""none"" />
    <circle cx=480.71000000000004 cy=310.9175292298713 r=17.388522388434758 stroke=""none"" stroke-width=""1.5"" fill=""none"" />
    <polygon points = ""480.71000000000004,384 485.6013044052548,366.61147761156525 475.8186955947453,366.61147761156525"" stroke=""none"" stroke-width=""3"" fill = ""none"" />
    
    </svg>
    </div>
        ","","","","","","","","","","","","get_response","true","xXpnBRTCjQPtJp2d","","","true","true","true","139.29","4","448.146","73.0824707701287","2.1","1","0","","",""
"html-keyboard-response","52","340333","0.0-52.0","null","null","","
    <div style="" display: block;  position: relative;"">
    
    <svg width=1366 height=768>
    <circle cx=620 cy=384 r=12.17196567190433 stroke=""black"" stroke-width=""1"" fill=""black"" />
    <circle cx=553.7924707701287 cy=384 r=17.388522388434758 stroke=""none"" stroke-width=""1.5"" fill=""none"" />
    <circle cx=480.71000000000004 cy=457.0824707701287 r=17.388522388434758 stroke=""none"" stroke-width=""1.5"" fill=""none"" />
    <circle cx=407.62752922987136 cy=384 r=17.388522388434758 stroke=""none"" stroke-width=""1.5"" fill=""none"" />
    <circle cx=480.71000000000004 cy=310.9175292298713 r=17.388522388434758 stroke=""none"" stroke-width=""1.5"" fill=""none"" />
    <polygon points = ""480.71000000000004,384 485.6013044052548,366.61147761156525 475.8186955947453,366.61147761156525"" stroke=""none"" stroke-width=""3"" fill = ""none"" />
    
    </svg>
    </div>
        ","","","","","","","","","","","","","","","","","","","","","","","","","","","","",""
"html-keyboard-response","53","340494","0.0-53.0","null","null","","
    <div style="" display: block;  position: relative;"">
    <svg width=1366 height=768>
    
    <circle cx=620 cy=384 r=12.17196567190433 stroke=""black"" stroke-width=""1"" fill=""black"" />
    <circle cx=759.29 cy=384 r=17.388522388434758 stroke=""black"" stroke-width=""1.5"" fill=""none"" />
    <circle cx=832.3724707701286 cy=384 r=17.388522388434758 stroke=""black"" stroke-width=""1.5"" fill=""none"" />
    <circle cx=759.29 cy=457.0824707701287 r=17.388522388434758 stroke=""black"" stroke-width=""1.5"" fill=""none"" />
    <circle cx=686.2075292298713 cy=384 r=17.388522388434758 stroke=""black"" stroke-width=""1.5"" fill=""none"" />
    <circle cx=759.29 cy=310.9175292298713 r=17.388522388434758 stroke=""black"" stroke-width=""1.5"" fill=""none"" />
    <polygon points = ""759.29,384 764.1813044052548,401.38852238843475 754.3986955947452,401.38852238843475"" stroke=""white"" stroke-width=""3"" fill = ""white"" />
    
    </svg>
    </div>
        ","","","","","","","","","","","","stimulus","","","","","","","","","","","","","","","","",""
"html-keyboard-response","54","340896","0.0-54.0","400.89999997615814","arrowdown","","
    <div style="" display: block;  position: relative;"">
    
    <svg width=1366 height=768>
    <circle cx=620 cy=384 r=12.17196567190433 stroke=""black"" stroke-width=""1"" fill=""black"" />
    <circle cx=832.3724707701286 cy=384 r=17.388522388434758 stroke=""none"" stroke-width=""1.5"" fill=""none"" />
    <circle cx=759.29 cy=457.0824707701287 r=17.388522388434758 stroke=""none"" stroke-width=""1.5"" fill=""none"" />
    <circle cx=686.2075292298713 cy=384 r=17.388522388434758 stroke=""none"" stroke-width=""1.5"" fill=""none"" />
    <circle cx=759.29 cy=310.9175292298713 r=17.388522388434758 stroke=""none"" stroke-width=""1.5"" fill=""none"" />
    <polygon points = ""759.29,384 764.1813044052548,401.38852238843475 754.3986955947452,401.38852238843475"" stroke=""none"" stroke-width=""3"" fill = ""none"" />
    
    </svg>
    </div>
        ","","","","","","","","","","","","get_response","true","xXpnBRTCjQPtJp2d","","","false","false","true","139.29","4","448.146","73.0824707701287","2.1","1","0","","",""
"html-keyboard-response","55","341399","0.0-55.0","null","null","","
    <div style="" display: block;  position: relative;"">
    
    <svg width=1366 height=768>
    <circle cx=620 cy=384 r=12.17196567190433 stroke=""black"" stroke-width=""1"" fill=""black"" />
    <circle cx=832.3724707701286 cy=384 r=17.388522388434758 stroke=""none"" stroke-width=""1.5"" fill=""none"" />
    <circle cx=759.29 cy=457.0824707701287 r=17.388522388434758 stroke=""none"" stroke-width=""1.5"" fill=""none"" />
    <circle cx=686.2075292298713 cy=384 r=17.388522388434758 stroke=""none"" stroke-width=""1.5"" fill=""none"" />
    <circle cx=759.29 cy=310.9175292298713 r=17.388522388434758 stroke=""none"" stroke-width=""1.5"" fill=""none"" />
    <polygon points = ""759.29,384 764.1813044052548,401.38852238843475 754.3986955947452,401.38852238843475"" stroke=""none"" stroke-width=""3"" fill = ""none"" />
    
    </svg>
    </div>
        ","","","","","","","","","","","","","","","","","","","","","","","","","","","","",""
"html-keyboard-response","56","341560","0.0-56.0","null","null","","
    <div style="" display: block;  position: relative;"">
    <svg width=1366 height=768>
    
    <circle cx=620 cy=384 r=12.17196567190433 stroke=""black"" stroke-width=""1"" fill=""black"" />
    <circle cx=480.71000000000004 cy=384 r=17.388522388434758 stroke=""black"" stroke-width=""1.5"" fill=""none"" />
    <circle cx=553.7924707701287 cy=384 r=17.388522388434758 stroke=""black"" stroke-width=""1.5"" fill=""none"" />
    <circle cx=480.71000000000004 cy=457.0824707701287 r=17.388522388434758 stroke=""black"" stroke-width=""1.5"" fill=""none"" />
    <circle cx=407.62752922987136 cy=384 r=17.388522388434758 stroke=""black"" stroke-width=""1.5"" fill=""none"" />
    <circle cx=480.71000000000004 cy=310.9175292298713 r=17.388522388434758 stroke=""black"" stroke-width=""1.5"" fill=""none"" />
    <polygon points = ""480.71000000000004,384 485.6013044052548,366.61147761156525 475.8186955947453,366.61147761156525"" stroke=""white"" stroke-width=""3"" fill = ""white"" />
    
    </svg>
    </div>
        ","","","","","","","","","","","","stimulus","","","","","","","","","","","","","","","","",""
"html-keyboard-response","57","342144","0.0-57.0","582.2999999523163","arrowup","","
    <div style="" display: block;  position: relative;"">
    
    <svg width=1366 height=768>
    <circle cx=620 cy=384 r=12.17196567190433 stroke=""black"" stroke-width=""1"" fill=""black"" />
    <circle cx=553.7924707701287 cy=384 r=17.388522388434758 stroke=""none"" stroke-width=""1.5"" fill=""none"" />
    <circle cx=480.71000000000004 cy=457.0824707701287 r=17.388522388434758 stroke=""none"" stroke-width=""1.5"" fill=""none"" />
    <circle cx=407.62752922987136 cy=384 r=17.388522388434758 stroke=""none"" stroke-width=""1.5"" fill=""none"" />
    <circle cx=480.71000000000004 cy=310.9175292298713 r=17.388522388434758 stroke=""none"" stroke-width=""1.5"" fill=""none"" />
    <polygon points = ""480.71000000000004,384 485.6013044052548,366.61147761156525 475.8186955947453,366.61147761156525"" stroke=""none"" stroke-width=""3"" fill = ""none"" />
    
    </svg>
    </div>
        ","","","","","","","","","","","","get_response","true","xXpnBRTCjQPtJp2d","","","true","true","true","139.29","4","448.146","73.0824707701287","2.1","1","0","","",""
"html-keyboard-response","58","342650","0.0-58.0","null","null","","
    <div style="" display: block;  position: relative;"">
    
    <svg width=1366 height=768>
    <circle cx=620 cy=384 r=12.17196567190433 stroke=""black"" stroke-width=""1"" fill=""black"" />
    <circle cx=553.7924707701287 cy=384 r=17.388522388434758 stroke=""none"" stroke-width=""1.5"" fill=""none"" />
    <circle cx=480.71000000000004 cy=457.0824707701287 r=17.388522388434758 stroke=""none"" stroke-width=""1.5"" fill=""none"" />
    <circle cx=407.62752922987136 cy=384 r=17.388522388434758 stroke=""none"" stroke-width=""1.5"" fill=""none"" />
    <circle cx=480.71000000000004 cy=310.9175292298713 r=17.388522388434758 stroke=""none"" stroke-width=""1.5"" fill=""none"" />
    <polygon points = ""480.71000000000004,384 485.6013044052548,366.61147761156525 475.8186955947453,366.61147761156525"" stroke=""none"" stroke-width=""3"" fill = ""none"" />
    
    </svg>
    </div>
        ","","","","","","","","","","","","","","","","","","","","","","","","","","","","",""
"html-keyboard-response","59","342810","0.0-59.0","null","null","","
    <div style="" display: block;  position: relative;"">
    <svg width=1366 height=768>
    
    <circle cx=620 cy=384 r=12.17196567190433 stroke=""black"" stroke-width=""1"" fill=""black"" />
    <circle cx=480.71000000000004 cy=384 r=17.388522388434758 stroke=""black"" stroke-width=""1.5"" fill=""none"" />
    <circle cx=547.1486097910262 cy=384 r=17.388522388434758 stroke=""black"" stroke-width=""1.5"" fill=""none"" />
    <circle cx=480.71000000000004 cy=450.43860979102607 r=17.388522388434758 stroke=""black"" stroke-width=""1.5"" fill=""none"" />
    <circle cx=414.27139020897397 cy=384 r=17.388522388434758 stroke=""black"" stroke-width=""1.5"" fill=""none"" />
    <circle cx=480.71000000000004 cy=317.56139020897393 r=17.388522388434758 stroke=""black"" stroke-width=""1.5"" fill=""none"" />
    <polygon points = ""480.71000000000004,384 485.6013044052548,401.38852238843475 475.8186955947453,401.38852238843475"" stroke=""white"" stroke-width=""3"" fill = ""white"" />
    
    </svg>
    </div>
        ","","","","","","","","","","","","stimulus","","","","","","","","","","","","","","","","",""
"html-keyboard-response","60","343353","0.0-60.0","541.3000000119209","arrowup","","
    <div style="" display: block;  position: relative;"">
    
    <svg width=1366 height=768>
    <circle cx=620 cy=384 r=12.17196567190433 stroke=""black"" stroke-width=""1"" fill=""black"" />
    <circle cx=547.1486097910262 cy=384 r=17.388522388434758 stroke=""none"" stroke-width=""1.5"" fill=""none"" />
    <circle cx=480.71000000000004 cy=450.43860979102607 r=17.388522388434758 stroke=""none"" stroke-width=""1.5"" fill=""none"" />
    <circle cx=414.27139020897397 cy=384 r=17.388522388434758 stroke=""none"" stroke-width=""1.5"" fill=""none"" />
    <circle cx=480.71000000000004 cy=317.56139020897393 r=17.388522388434758 stroke=""none"" stroke-width=""1.5"" fill=""none"" />
    <polygon points = ""480.71000000000004,384 485.6013044052548,401.38852238843475 475.8186955947453,401.38852238843475"" stroke=""none"" stroke-width=""3"" fill = ""none"" />
    
    </svg>
    </div>
        ","","","","","","","","","","","","get_response","false","xXpnBRTCjQPtJp2d","","","true","false","true","139.29","4","448.146","66.43860979102608","1.91","1","0","","",""
"html-keyboard-response","61","343866","0.0-61.0","null","null","","
    <div style="" display: block;  position: relative;"">
    
    <svg width=1366 height=768>
    <circle cx=620 cy=384 r=12.17196567190433 stroke=""black"" stroke-width=""1"" fill=""black"" />
    <circle cx=547.1486097910262 cy=384 r=17.388522388434758 stroke=""none"" stroke-width=""1.5"" fill=""none"" />
    <circle cx=480.71000000000004 cy=450.43860979102607 r=17.388522388434758 stroke=""none"" stroke-width=""1.5"" fill=""none"" />
    <circle cx=414.27139020897397 cy=384 r=17.388522388434758 stroke=""none"" stroke-width=""1.5"" fill=""none"" />
    <circle cx=480.71000000000004 cy=317.56139020897393 r=17.388522388434758 stroke=""none"" stroke-width=""1.5"" fill=""none"" />
    <polygon points = ""480.71000000000004,384 485.6013044052548,401.38852238843475 475.8186955947453,401.38852238843475"" stroke=""none"" stroke-width=""3"" fill = ""none"" />
    
    </svg>
    </div>
        ","","","","","","","","","","","","","","","","","","","","","","","","","","","","",""
"html-keyboard-response","62","344027","0.0-62.0","null","null","","
    <div style="" display: block;  position: relative;"">
    <svg width=1366 height=768>
    
    <circle cx=620 cy=384 r=12.17196567190433 stroke=""black"" stroke-width=""1"" fill=""black"" />
    <circle cx=480.71000000000004 cy=384 r=17.388522388434758 stroke=""black"" stroke-width=""1.5"" fill=""none"" />
    <circle cx=567.0801927283339 cy=384 r=17.388522388434758 stroke=""black"" stroke-width=""1.5"" fill=""none"" />
    <circle cx=480.71000000000004 cy=470.3701927283339 r=17.388522388434758 stroke=""black"" stroke-width=""1.5"" fill=""none"" />
    <circle cx=394.33980727166613 cy=384 r=17.388522388434758 stroke=""black"" stroke-width=""1.5"" fill=""none"" />
    <circle cx=480.71000000000004 cy=297.6298072716661 r=17.388522388434758 stroke=""black"" stroke-width=""1.5"" fill=""none"" />
    <polygon points = ""480.71000000000004,384 485.6013044052548,366.61147761156525 475.8186955947453,366.61147761156525"" stroke=""white"" stroke-width=""3"" fill = ""white"" />
    
    </svg>
    </div>
        ","","","","","","","","","","","","stimulus","","","","","","","","","","","","","","","","",""
"html-keyboard-response","63","344579","0.0-63.0","551.0999999642372","arrowup","","
    <div style="" display: block;  position: relative;"">
    
    <svg width=1366 height=768>
    <circle cx=620 cy=384 r=12.17196567190433 stroke=""black"" stroke-width=""1"" fill=""black"" />
    <circle cx=567.0801927283339 cy=384 r=17.388522388434758 stroke=""none"" stroke-width=""1.5"" fill=""none"" />
    <circle cx=480.71000000000004 cy=470.3701927283339 r=17.388522388434758 stroke=""none"" stroke-width=""1.5"" fill=""none"" />
    <circle cx=394.33980727166613 cy=384 r=17.388522388434758 stroke=""none"" stroke-width=""1.5"" fill=""none"" />
    <circle cx=480.71000000000004 cy=297.6298072716661 r=17.388522388434758 stroke=""none"" stroke-width=""1.5"" fill=""none"" />
    <polygon points = ""480.71000000000004,384 485.6013044052548,366.61147761156525 475.8186955947453,366.61147761156525"" stroke=""none"" stroke-width=""3"" fill = ""none"" />
    
    </svg>
    </div>
        ","","","","","","","","","","","","get_response","true","xXpnBRTCjQPtJp2d","","","true","true","true","139.29","4","448.146","86.3701927283339","2.48","1","0","","",""
"html-keyboard-response","64","345083","0.0-64.0","null","null","","
    <div style="" display: block;  position: relative;"">
    
    <svg width=1366 height=768>
    <circle cx=620 cy=384 r=12.17196567190433 stroke=""black"" stroke-width=""1"" fill=""black"" />
    <circle cx=567.0801927283339 cy=384 r=17.388522388434758 stroke=""none"" stroke-width=""1.5"" fill=""none"" />
    <circle cx=480.71000000000004 cy=470.3701927283339 r=17.388522388434758 stroke=""none"" stroke-width=""1.5"" fill=""none"" />
    <circle cx=394.33980727166613 cy=384 r=17.388522388434758 stroke=""none"" stroke-width=""1.5"" fill=""none"" />
    <circle cx=480.71000000000004 cy=297.6298072716661 r=17.388522388434758 stroke=""none"" stroke-width=""1.5"" fill=""none"" />
    <polygon points = ""480.71000000000004,384 485.6013044052548,366.61147761156525 475.8186955947453,366.61147761156525"" stroke=""none"" stroke-width=""3"" fill = ""none"" />
    
    </svg>
    </div>
        ","","","","","","","","","","","","","","","","","","","","","","","","","","","","",""
"html-keyboard-response","65","345244","0.0-65.0","null","null","","
    <div style="" display: block;  position: relative;"">
    <svg width=1366 height=768>
    
    <circle cx=620 cy=384 r=12.17196567190433 stroke=""black"" stroke-width=""1"" fill=""black"" />
    <circle cx=759.29 cy=384 r=17.388522388434758 stroke=""black"" stroke-width=""1.5"" fill=""none"" />
    <circle cx=845.6601927283339 cy=384 r=17.388522388434758 stroke=""black"" stroke-width=""1.5"" fill=""none"" />
    <circle cx=759.29 cy=470.3701927283339 r=17.388522388434758 stroke=""black"" stroke-width=""1.5"" fill=""none"" />
    <circle cx=672.9198072716661 cy=384 r=17.388522388434758 stroke=""black"" stroke-width=""1.5"" fill=""none"" />
    <circle cx=759.29 cy=297.6298072716661 r=17.388522388434758 stroke=""black"" stroke-width=""1.5"" fill=""none"" />
    <polygon points = ""759.29,384 764.1813044052548,401.38852238843475 754.3986955947452,401.38852238843475"" stroke=""white"" stroke-width=""3"" fill = ""white"" />
    
    </svg>
    </div>
        ","","","","","","","","","","","","stimulus","","","","","","","","","","","","","","","","",""
"html-keyboard-response","66","345528","0.0-66.0","282.10000002384186","arrowdown","","
    <div style="" display: block;  position: relative;"">
    
    <svg width=1366 height=768>
    <circle cx=620 cy=384 r=12.17196567190433 stroke=""black"" stroke-width=""1"" fill=""black"" />
    <circle cx=845.6601927283339 cy=384 r=17.388522388434758 stroke=""none"" stroke-width=""1.5"" fill=""none"" />
    <circle cx=759.29 cy=470.3701927283339 r=17.388522388434758 stroke=""none"" stroke-width=""1.5"" fill=""none"" />
    <circle cx=672.9198072716661 cy=384 r=17.388522388434758 stroke=""none"" stroke-width=""1.5"" fill=""none"" />
    <circle cx=759.29 cy=297.6298072716661 r=17.388522388434758 stroke=""none"" stroke-width=""1.5"" fill=""none"" />
    <polygon points = ""759.29,384 764.1813044052548,401.38852238843475 754.3986955947452,401.38852238843475"" stroke=""none"" stroke-width=""3"" fill = ""none"" />
    
    </svg>
    </div>
        ","","","","","","","","","","","","get_response","true","xXpnBRTCjQPtJp2d","","","false","false","true","139.29","4","448.146","86.3701927283339","2.48","1","0","","",""
"html-keyboard-response","67","346033","0.0-67.0","null","null","","
    <div style="" display: block;  position: relative;"">
    
    <svg width=1366 height=768>
    <circle cx=620 cy=384 r=12.17196567190433 stroke=""black"" stroke-width=""1"" fill=""black"" />
    <circle cx=845.6601927283339 cy=384 r=17.388522388434758 stroke=""none"" stroke-width=""1.5"" fill=""none"" />
    <circle cx=759.29 cy=470.3701927283339 r=17.388522388434758 stroke=""none"" stroke-width=""1.5"" fill=""none"" />
    <circle cx=672.9198072716661 cy=384 r=17.388522388434758 stroke=""none"" stroke-width=""1.5"" fill=""none"" />
    <circle cx=759.29 cy=297.6298072716661 r=17.388522388434758 stroke=""none"" stroke-width=""1.5"" fill=""none"" />
    <polygon points = ""759.29,384 764.1813044052548,401.38852238843475 754.3986955947452,401.38852238843475"" stroke=""none"" stroke-width=""3"" fill = ""none"" />
    
    </svg>
    </div>
        ","","","","","","","","","","","","","","","","","","","","","","","","","","","","",""
"html-keyboard-response","68","346194","0.0-68.0","null","null","","
    <div style="" display: block;  position: relative;"">
    <svg width=1366 height=768>
    
    <circle cx=620 cy=384 r=12.17196567190433 stroke=""black"" stroke-width=""1"" fill=""black"" />
    <circle cx=759.29 cy=384 r=17.388522388434758 stroke=""black"" stroke-width=""1.5"" fill=""none"" />
    <circle cx=845.6601927283339 cy=384 r=17.388522388434758 stroke=""black"" stroke-width=""1.5"" fill=""none"" />
    <circle cx=759.29 cy=470.3701927283339 r=17.388522388434758 stroke=""black"" stroke-width=""1.5"" fill=""none"" />
    <circle cx=672.9198072716661 cy=384 r=17.388522388434758 stroke=""black"" stroke-width=""1.5"" fill=""none"" />
    <circle cx=759.29 cy=297.6298072716661 r=17.388522388434758 stroke=""black"" stroke-width=""1.5"" fill=""none"" />
    <polygon points = ""759.29,384 764.1813044052548,366.61147761156525 754.3986955947452,366.61147761156525"" stroke=""white"" stroke-width=""3"" fill = ""white"" />
    
    </svg>
    </div>
        ","","","","","","","","","","","","stimulus","","","","","","","","","","","","","","","","",""
"html-keyboard-response","69","346844","0.0-69.0","648.1999999880791","arrowdown","","
    <div style="" display: block;  position: relative;"">
    
    <svg width=1366 height=768>
    <circle cx=620 cy=384 r=12.17196567190433 stroke=""black"" stroke-width=""1"" fill=""black"" />
    <circle cx=845.6601927283339 cy=384 r=17.388522388434758 stroke=""none"" stroke-width=""1.5"" fill=""none"" />
    <circle cx=759.29 cy=470.3701927283339 r=17.388522388434758 stroke=""none"" stroke-width=""1.5"" fill=""none"" />
    <circle cx=672.9198072716661 cy=384 r=17.388522388434758 stroke=""none"" stroke-width=""1.5"" fill=""none"" />
    <circle cx=759.29 cy=297.6298072716661 r=17.388522388434758 stroke=""none"" stroke-width=""1.5"" fill=""none"" />
    <polygon points = ""759.29,384 764.1813044052548,366.61147761156525 754.3986955947452,366.61147761156525"" stroke=""none"" stroke-width=""3"" fill = ""none"" />
    
    </svg>
    </div>
        ","","","","","","","","","","","","get_response","false","xXpnBRTCjQPtJp2d","","","false","true","true","139.29","4","448.146","86.3701927283339","2.48","1","0","","",""
"html-keyboard-response","70","347350","0.0-70.0","null","null","","
    <div style="" display: block;  position: relative;"">
    
    <svg width=1366 height=768>
    <circle cx=620 cy=384 r=12.17196567190433 stroke=""black"" stroke-width=""1"" fill=""black"" />
    <circle cx=845.6601927283339 cy=384 r=17.388522388434758 stroke=""none"" stroke-width=""1.5"" fill=""none"" />
    <circle cx=759.29 cy=470.3701927283339 r=17.388522388434758 stroke=""none"" stroke-width=""1.5"" fill=""none"" />
    <circle cx=672.9198072716661 cy=384 r=17.388522388434758 stroke=""none"" stroke-width=""1.5"" fill=""none"" />
    <circle cx=759.29 cy=297.6298072716661 r=17.388522388434758 stroke=""none"" stroke-width=""1.5"" fill=""none"" />
    <polygon points = ""759.29,384 764.1813044052548,366.61147761156525 754.3986955947452,366.61147761156525"" stroke=""none"" stroke-width=""3"" fill = ""none"" />
    
    </svg>
    </div>
        ","","","","","","","","","","","","","","","","","","","","","","","","","","","","",""
"html-keyboard-response","71","347510","0.0-71.0","null","null","","
    <div style="" display: block;  position: relative;"">
    <svg width=1366 height=768>
    
    <circle cx=620 cy=384 r=12.17196567190433 stroke=""black"" stroke-width=""1"" fill=""black"" />
    <circle cx=759.29 cy=384 r=17.388522388434758 stroke=""black"" stroke-width=""1.5"" fill=""none"" />
    <circle cx=863.8029552231304 cy=384 r=17.388522388434758 stroke=""black"" stroke-width=""1.5"" fill=""none"" />
    <circle cx=759.29 cy=488.51295522313046 r=17.388522388434758 stroke=""black"" stroke-width=""1.5"" fill=""none"" />
    <circle cx=654.7770447768695 cy=384 r=17.388522388434758 stroke=""black"" stroke-width=""1.5"" fill=""none"" />
    <circle cx=759.29 cy=279.48704477686954 r=17.388522388434758 stroke=""black"" stroke-width=""1.5"" fill=""none"" />
    <polygon points = ""759.29,384 764.1813044052548,401.38852238843475 754.3986955947452,401.38852238843475"" stroke=""white"" stroke-width=""3"" fill = ""white"" />
    
    </svg>
    </div>
        ","","","","","","","","","","","","stimulus","","","","","","","","","","","","","","","","",""
"html-keyboard-response","72","348177","0.0-72.0","665.5","arrowdown","","
    <div style="" display: block;  position: relative;"">
    
    <svg width=1366 height=768>
    <circle cx=620 cy=384 r=12.17196567190433 stroke=""black"" stroke-width=""1"" fill=""black"" />
    <circle cx=863.8029552231304 cy=384 r=17.388522388434758 stroke=""none"" stroke-width=""1.5"" fill=""none"" />
    <circle cx=759.29 cy=488.51295522313046 r=17.388522388434758 stroke=""none"" stroke-width=""1.5"" fill=""none"" />
    <circle cx=654.7770447768695 cy=384 r=17.388522388434758 stroke=""none"" stroke-width=""1.5"" fill=""none"" />
    <circle cx=759.29 cy=279.48704477686954 r=17.388522388434758 stroke=""none"" stroke-width=""1.5"" fill=""none"" />
    <polygon points = ""759.29,384 764.1813044052548,401.38852238843475 754.3986955947452,401.38852238843475"" stroke=""none"" stroke-width=""3"" fill = ""none"" />
    
    </svg>
    </div>
        ","","","","","","","","","","","","get_response","true","xXpnBRTCjQPtJp2d","","","false","false","true","139.29","4","448.146","104.51295522313048","3","1","0","","",""
"html-keyboard-response","73","348683","0.0-73.0","null","null","","
    <div style="" display: block;  position: relative;"">
    
    <svg width=1366 height=768>
    <circle cx=620 cy=384 r=12.17196567190433 stroke=""black"" stroke-width=""1"" fill=""black"" />
    <circle cx=863.8029552231304 cy=384 r=17.388522388434758 stroke=""none"" stroke-width=""1.5"" fill=""none"" />
    <circle cx=759.29 cy=488.51295522313046 r=17.388522388434758 stroke=""none"" stroke-width=""1.5"" fill=""none"" />
    <circle cx=654.7770447768695 cy=384 r=17.388522388434758 stroke=""none"" stroke-width=""1.5"" fill=""none"" />
    <circle cx=759.29 cy=279.48704477686954 r=17.388522388434758 stroke=""none"" stroke-width=""1.5"" fill=""none"" />
    <polygon points = ""759.29,384 764.1813044052548,401.38852238843475 754.3986955947452,401.38852238843475"" stroke=""none"" stroke-width=""3"" fill = ""none"" />
    
    </svg>
    </div>
        ","","","","","","","","","","","","","","","","","","","","","","","","","","","","",""
"html-keyboard-response","74","348844","0.0-74.0","null","null","","
    <div style="" display: block;  position: relative;"">
    <svg width=1366 height=768>
    
    <circle cx=620 cy=384 r=12.17196567190433 stroke=""black"" stroke-width=""1"" fill=""black"" />
    <circle cx=759.29 cy=384 r=17.388522388434758 stroke=""black"" stroke-width=""1.5"" fill=""none"" />
    <circle cx=863.8029552231304 cy=384 r=17.388522388434758 stroke=""black"" stroke-width=""1.5"" fill=""none"" />
    <circle cx=759.29 cy=488.51295522313046 r=17.388522388434758 stroke=""black"" stroke-width=""1.5"" fill=""none"" />
    <circle cx=654.7770447768695 cy=384 r=17.388522388434758 stroke=""black"" stroke-width=""1.5"" fill=""none"" />
    <circle cx=759.29 cy=279.48704477686954 r=17.388522388434758 stroke=""black"" stroke-width=""1.5"" fill=""none"" />
    <polygon points = ""759.29,384 764.1813044052548,366.61147761156525 754.3986955947452,366.61147761156525"" stroke=""white"" stroke-width=""3"" fill = ""white"" />
    
    </svg>
    </div>
        ","","","","","","","","","","","","stimulus","","","","","","","","","","","","","","","","",""
"html-keyboard-response","75","349420","0.0-75.0","574.6000000238419","arrowup","","
    <div style="" display: block;  position: relative;"">
    
    <svg width=1366 height=768>
    <circle cx=620 cy=384 r=12.17196567190433 stroke=""black"" stroke-width=""1"" fill=""black"" />
    <circle cx=863.8029552231304 cy=384 r=17.388522388434758 stroke=""none"" stroke-width=""1.5"" fill=""none"" />
    <circle cx=759.29 cy=488.51295522313046 r=17.388522388434758 stroke=""none"" stroke-width=""1.5"" fill=""none"" />
    <circle cx=654.7770447768695 cy=384 r=17.388522388434758 stroke=""none"" stroke-width=""1.5"" fill=""none"" />
    <circle cx=759.29 cy=279.48704477686954 r=17.388522388434758 stroke=""none"" stroke-width=""1.5"" fill=""none"" />
    <polygon points = ""759.29,384 764.1813044052548,366.61147761156525 754.3986955947452,366.61147761156525"" stroke=""none"" stroke-width=""3"" fill = ""none"" />
    
    </svg>
    </div>
        ","","","","","","","","","","","","get_response","true","xXpnBRTCjQPtJp2d","","","false","true","true","139.29","4","448.146","104.51295522313048","3","1","0","","",""
"html-keyboard-response","76","349921","0.0-76.0","null","null","","
    <div style="" display: block;  position: relative;"">
    
    <svg width=1366 height=768>
    <circle cx=620 cy=384 r=12.17196567190433 stroke=""black"" stroke-width=""1"" fill=""black"" />
    <circle cx=863.8029552231304 cy=384 r=17.388522388434758 stroke=""none"" stroke-width=""1.5"" fill=""none"" />
    <circle cx=759.29 cy=488.51295522313046 r=17.388522388434758 stroke=""none"" stroke-width=""1.5"" fill=""none"" />
    <circle cx=654.7770447768695 cy=384 r=17.388522388434758 stroke=""none"" stroke-width=""1.5"" fill=""none"" />
    <circle cx=759.29 cy=279.48704477686954 r=17.388522388434758 stroke=""none"" stroke-width=""1.5"" fill=""none"" />
    <polygon points = ""759.29,384 764.1813044052548,366.61147761156525 754.3986955947452,366.61147761156525"" stroke=""none"" stroke-width=""3"" fill = ""none"" />
    
    </svg>
    </div>
        ","","","","","","","","","","","","","","","","","","","","","","","","","","","","",""
"html-keyboard-response","77","350077","0.0-77.0","null","null","","
    <div style="" display: block;  position: relative;"">
    <svg width=1366 height=768>
    
    <circle cx=620 cy=384 r=12.17196567190433 stroke=""black"" stroke-width=""1"" fill=""black"" />
    <circle cx=759.29 cy=384 r=17.388522388434758 stroke=""black"" stroke-width=""1.5"" fill=""none"" />
    <circle cx=863.8029552231304 cy=384 r=17.388522388434758 stroke=""black"" stroke-width=""1.5"" fill=""none"" />
    <circle cx=759.29 cy=488.51295522313046 r=17.388522388434758 stroke=""black"" stroke-width=""1.5"" fill=""none"" />
    <circle cx=654.7770447768695 cy=384 r=17.388522388434758 stroke=""black"" stroke-width=""1.5"" fill=""none"" />
    <circle cx=759.29 cy=279.48704477686954 r=17.388522388434758 stroke=""black"" stroke-width=""1.5"" fill=""none"" />
    <polygon points = ""759.29,384 764.1813044052548,401.38852238843475 754.3986955947452,401.38852238843475"" stroke=""white"" stroke-width=""3"" fill = ""white"" />
    
    </svg>
    </div>
        ","","","","","","","","","","","","stimulus","","","","","","","","","","","","","","","","",""
"html-keyboard-response","78","350683","0.0-78.0","604.4000000357628","arrowdown","","
    <div style="" display: block;  position: relative;"">
    
    <svg width=1366 height=768>
    <circle cx=620 cy=384 r=12.17196567190433 stroke=""black"" stroke-width=""1"" fill=""black"" />
    <circle cx=863.8029552231304 cy=384 r=17.388522388434758 stroke=""none"" stroke-width=""1.5"" fill=""none"" />
    <circle cx=759.29 cy=488.51295522313046 r=17.388522388434758 stroke=""none"" stroke-width=""1.5"" fill=""none"" />
    <circle cx=654.7770447768695 cy=384 r=17.388522388434758 stroke=""none"" stroke-width=""1.5"" fill=""none"" />
    <circle cx=759.29 cy=279.48704477686954 r=17.388522388434758 stroke=""none"" stroke-width=""1.5"" fill=""none"" />
    <polygon points = ""759.29,384 764.1813044052548,401.38852238843475 754.3986955947452,401.38852238843475"" stroke=""none"" stroke-width=""3"" fill = ""none"" />
    
    </svg>
    </div>
        ","","","","","","","","","","","","get_response","true","xXpnBRTCjQPtJp2d","","","false","false","true","139.29","4","448.146","104.51295522313048","3","1","0","","",""
"html-keyboard-response","79","351187","0.0-79.0","null","null","","
    <div style="" display: block;  position: relative;"">
    
    <svg width=1366 height=768>
    <circle cx=620 cy=384 r=12.17196567190433 stroke=""black"" stroke-width=""1"" fill=""black"" />
    <circle cx=863.8029552231304 cy=384 r=17.388522388434758 stroke=""none"" stroke-width=""1.5"" fill=""none"" />
    <circle cx=759.29 cy=488.51295522313046 r=17.388522388434758 stroke=""none"" stroke-width=""1.5"" fill=""none"" />
    <circle cx=654.7770447768695 cy=384 r=17.388522388434758 stroke=""none"" stroke-width=""1.5"" fill=""none"" />
    <circle cx=759.29 cy=279.48704477686954 r=17.388522388434758 stroke=""none"" stroke-width=""1.5"" fill=""none"" />
    <polygon points = ""759.29,384 764.1813044052548,401.38852238843475 754.3986955947452,401.38852238843475"" stroke=""none"" stroke-width=""3"" fill = ""none"" />
    
    </svg>
    </div>
        ","","","","","","","","","","","","","","","","","","","","","","","","","","","","",""
"html-keyboard-response","80","351344","0.0-80.0","null","null","","
    <div style="" display: block;  position: relative;"">
    <svg width=1366 height=768>
    
    <circle cx=620 cy=384 r=12.17196567190433 stroke=""black"" stroke-width=""1"" fill=""black"" />
    <circle cx=480.71000000000004 cy=384 r=17.388522388434758 stroke=""black"" stroke-width=""1.5"" fill=""none"" />
    <circle cx=575.7217774755732 cy=384 r=17.388522388434758 stroke=""black"" stroke-width=""1.5"" fill=""none"" />
    <circle cx=480.71000000000004 cy=479.0117774755731 r=17.388522388434758 stroke=""black"" stroke-width=""1.5"" fill=""none"" />
    <circle cx=385.6982225244269 cy=384 r=17.388522388434758 stroke=""black"" stroke-width=""1.5"" fill=""none"" />
    <circle cx=480.71000000000004 cy=288.9882225244269 r=17.388522388434758 stroke=""black"" stroke-width=""1.5"" fill=""none"" />
    <polygon points = ""480.71000000000004,384 485.6013044052548,401.38852238843475 475.8186955947453,401.38852238843475"" stroke=""white"" stroke-width=""3"" fill = ""white"" />
    
    </svg>
    </div>
        ","","","","","","","","","","","","stimulus","","","","","","","","","","","","","","","","",""
"html-keyboard-response","81","352713","0.0-81.0","1367.1000000238419","arrowdown","","
    <div style="" display: block;  position: relative;"">
    
    <svg width=1366 height=768>
    <circle cx=620 cy=384 r=12.17196567190433 stroke=""black"" stroke-width=""1"" fill=""black"" />
    <circle cx=575.7217774755732 cy=384 r=17.388522388434758 stroke=""none"" stroke-width=""1.5"" fill=""none"" />
    <circle cx=480.71000000000004 cy=479.0117774755731 r=17.388522388434758 stroke=""none"" stroke-width=""1.5"" fill=""none"" />
    <circle cx=385.6982225244269 cy=384 r=17.388522388434758 stroke=""none"" stroke-width=""1.5"" fill=""none"" />
    <circle cx=480.71000000000004 cy=288.9882225244269 r=17.388522388434758 stroke=""none"" stroke-width=""1.5"" fill=""none"" />
    <polygon points = ""480.71000000000004,384 485.6013044052548,401.38852238843475 475.8186955947453,401.38852238843475"" stroke=""none"" stroke-width=""3"" fill = ""none"" />
    
    </svg>
    </div>
        ","","","","","","","","","","","","get_response","true","xXpnBRTCjQPtJp2d","","","true","false","true","139.29","4","448.146","95.01177747557315","2.73","1","0","","",""
"html-keyboard-response","82","353217","0.0-82.0","null","null","","
    <div style="" display: block;  position: relative;"">
    
    <svg width=1366 height=768>
    <circle cx=620 cy=384 r=12.17196567190433 stroke=""black"" stroke-width=""1"" fill=""black"" />
    <circle cx=575.7217774755732 cy=384 r=17.388522388434758 stroke=""none"" stroke-width=""1.5"" fill=""none"" />
    <circle cx=480.71000000000004 cy=479.0117774755731 r=17.388522388434758 stroke=""none"" stroke-width=""1.5"" fill=""none"" />
    <circle cx=385.6982225244269 cy=384 r=17.388522388434758 stroke=""none"" stroke-width=""1.5"" fill=""none"" />
    <circle cx=480.71000000000004 cy=288.9882225244269 r=17.388522388434758 stroke=""none"" stroke-width=""1.5"" fill=""none"" />
    <polygon points = ""480.71000000000004,384 485.6013044052548,401.38852238843475 475.8186955947453,401.38852238843475"" stroke=""none"" stroke-width=""3"" fill = ""none"" />
    
    </svg>
    </div>
        ","","","","","","","","","","","","","","","","","","","","","","","","","","","","",""
"html-keyboard-response","83","353378","0.0-83.0","null","null","","
    <div style="" display: block;  position: relative;"">
    <svg width=1366 height=768>
    
    <circle cx=620 cy=384 r=12.17196567190433 stroke=""black"" stroke-width=""1"" fill=""black"" />
    <circle cx=480.71000000000004 cy=384 r=17.388522388434758 stroke=""black"" stroke-width=""1.5"" fill=""none"" />
    <circle cx=567.084343159612 cy=384 r=17.388522388434758 stroke=""black"" stroke-width=""1.5"" fill=""none"" />
    <circle cx=480.71000000000004 cy=470.37434315961195 r=17.388522388434758 stroke=""black"" stroke-width=""1.5"" fill=""none"" />
    <circle cx=394.3356568403881 cy=384 r=17.388522388434758 stroke=""black"" stroke-width=""1.5"" fill=""none"" />
    <circle cx=480.71000000000004 cy=297.62565684038805 r=17.388522388434758 stroke=""black"" stroke-width=""1.5"" fill=""none"" />
    <polygon points = ""480.71000000000004,384 485.6013044052548,401.38852238843475 475.8186955947453,401.38852238843475"" stroke=""white"" stroke-width=""3"" fill = ""white"" />
    
    </svg>
    </div>
        ","","","","","","","","","","","","stimulus","","","","","","","","","","","","","","","","",""
"html-keyboard-response","84","353865","0.0-84.0","485.7999999523163","arrowdown","","
    <div style="" display: block;  position: relative;"">
    
    <svg width=1366 height=768>
    <circle cx=620 cy=384 r=12.17196567190433 stroke=""black"" stroke-width=""1"" fill=""black"" />
    <circle cx=567.084343159612 cy=384 r=17.388522388434758 stroke=""none"" stroke-width=""1.5"" fill=""none"" />
    <circle cx=480.71000000000004 cy=470.37434315961195 r=17.388522388434758 stroke=""none"" stroke-width=""1.5"" fill=""none"" />
    <circle cx=394.3356568403881 cy=384 r=17.388522388434758 stroke=""none"" stroke-width=""1.5"" fill=""none"" />
    <circle cx=480.71000000000004 cy=297.62565684038805 r=17.388522388434758 stroke=""none"" stroke-width=""1.5"" fill=""none"" />
    <polygon points = ""480.71000000000004,384 485.6013044052548,401.38852238843475 475.8186955947453,401.38852238843475"" stroke=""none"" stroke-width=""3"" fill = ""none"" />
    
    </svg>
    </div>
        ","","","","","","","","","","","","get_response","true","xXpnBRTCjQPtJp2d","","","true","false","true","139.29","4","448.146","86.37434315961195","2.48","1","0","","",""
"html-keyboard-response","85","354367","0.0-85.0","null","null","","
    <div style="" display: block;  position: relative;"">
    
    <svg width=1366 height=768>
    <circle cx=620 cy=384 r=12.17196567190433 stroke=""black"" stroke-width=""1"" fill=""black"" />
    <circle cx=567.084343159612 cy=384 r=17.388522388434758 stroke=""none"" stroke-width=""1.5"" fill=""none"" />
    <circle cx=480.71000000000004 cy=470.37434315961195 r=17.388522388434758 stroke=""none"" stroke-width=""1.5"" fill=""none"" />
    <circle cx=394.3356568403881 cy=384 r=17.388522388434758 stroke=""none"" stroke-width=""1.5"" fill=""none"" />
    <circle cx=480.71000000000004 cy=297.62565684038805 r=17.388522388434758 stroke=""none"" stroke-width=""1.5"" fill=""none"" />
    <polygon points = ""480.71000000000004,384 485.6013044052548,401.38852238843475 475.8186955947453,401.38852238843475"" stroke=""none"" stroke-width=""3"" fill = ""none"" />
    
    </svg>
    </div>
        ","","","","","","","","","","","","","","","","","","","","","","","","","","","","",""
"html-keyboard-response","86","354528","0.0-86.0","null","null","","
    <div style="" display: block;  position: relative;"">
    <svg width=1366 height=768>
    
    <circle cx=620 cy=384 r=12.17196567190433 stroke=""black"" stroke-width=""1"" fill=""black"" />
    <circle cx=480.71000000000004 cy=384 r=17.388522388434758 stroke=""black"" stroke-width=""1.5"" fill=""none"" />
    <circle cx=559.2321301451018 cy=384 r=17.388522388434758 stroke=""black"" stroke-width=""1.5"" fill=""none"" />
    <circle cx=480.71000000000004 cy=462.52213014510176 r=17.388522388434758 stroke=""black"" stroke-width=""1.5"" fill=""none"" />
    <circle cx=402.1878698548983 cy=384 r=17.388522388434758 stroke=""black"" stroke-width=""1.5"" fill=""none"" />
    <circle cx=480.71000000000004 cy=305.47786985489824 r=17.388522388434758 stroke=""black"" stroke-width=""1.5"" fill=""none"" />
    <polygon points = ""480.71000000000004,384 485.6013044052548,401.38852238843475 475.8186955947453,401.38852238843475"" stroke=""white"" stroke-width=""3"" fill = ""white"" />
    
    </svg>
    </div>
        ","","","","","","","","","","","","stimulus","","","","","","","","","","","","","","","","",""
"html-keyboard-response","87","354927","0.0-87.0","397.5","arrowdown","","
    <div style="" display: block;  position: relative;"">
    
    <svg width=1366 height=768>
    <circle cx=620 cy=384 r=12.17196567190433 stroke=""black"" stroke-width=""1"" fill=""black"" />
    <circle cx=559.2321301451018 cy=384 r=17.388522388434758 stroke=""none"" stroke-width=""1.5"" fill=""none"" />
    <circle cx=480.71000000000004 cy=462.52213014510176 r=17.388522388434758 stroke=""none"" stroke-width=""1.5"" fill=""none"" />
    <circle cx=402.1878698548983 cy=384 r=17.388522388434758 stroke=""none"" stroke-width=""1.5"" fill=""none"" />
    <circle cx=480.71000000000004 cy=305.47786985489824 r=17.388522388434758 stroke=""none"" stroke-width=""1.5"" fill=""none"" />
    <polygon points = ""480.71000000000004,384 485.6013044052548,401.38852238843475 475.8186955947453,401.38852238843475"" stroke=""none"" stroke-width=""3"" fill = ""none"" />
    
    </svg>
    </div>
        ","","","","","","","","","","","","get_response","true","xXpnBRTCjQPtJp2d","","","true","false","true","139.29","4","448.146","78.52213014510177","2.25","1","0","","",""
"html-keyboard-response","88","355434","0.0-88.0","null","null","","
    <div style="" display: block;  position: relative;"">
    
    <svg width=1366 height=768>
    <circle cx=620 cy=384 r=12.17196567190433 stroke=""black"" stroke-width=""1"" fill=""black"" />
    <circle cx=559.2321301451018 cy=384 r=17.388522388434758 stroke=""none"" stroke-width=""1.5"" fill=""none"" />
    <circle cx=480.71000000000004 cy=462.52213014510176 r=17.388522388434758 stroke=""none"" stroke-width=""1.5"" fill=""none"" />
    <circle cx=402.1878698548983 cy=384 r=17.388522388434758 stroke=""none"" stroke-width=""1.5"" fill=""none"" />
    <circle cx=480.71000000000004 cy=305.47786985489824 r=17.388522388434758 stroke=""none"" stroke-width=""1.5"" fill=""none"" />
    <polygon points = ""480.71000000000004,384 485.6013044052548,401.38852238843475 475.8186955947453,401.38852238843475"" stroke=""none"" stroke-width=""3"" fill = ""none"" />
    
    </svg>
    </div>
        ","","","","","","","","","","","","","","","","","","","","","","","","","","","","",""
"html-keyboard-response","89","355594","0.0-89.0","null","null","","
    <div style="" display: block;  position: relative;"">
    <svg width=1366 height=768>
    
    <circle cx=620 cy=384 r=12.17196567190433 stroke=""black"" stroke-width=""1"" fill=""black"" />
    <circle cx=759.29 cy=384 r=17.388522388434758 stroke=""black"" stroke-width=""1.5"" fill=""none"" />
    <circle cx=830.6737546773652 cy=384 r=17.388522388434758 stroke=""black"" stroke-width=""1.5"" fill=""none"" />
    <circle cx=759.29 cy=455.38375467736523 r=17.388522388434758 stroke=""black"" stroke-width=""1.5"" fill=""none"" />
    <circle cx=687.9062453226347 cy=384 r=17.388522388434758 stroke=""black"" stroke-width=""1.5"" fill=""none"" />
    <circle cx=759.29 cy=312.61624532263477 r=17.388522388434758 stroke=""black"" stroke-width=""1.5"" fill=""none"" />
    <polygon points = ""759.29,384 764.1813044052548,366.61147761156525 754.3986955947452,366.61147761156525"" stroke=""white"" stroke-width=""3"" fill = ""white"" />
    
    </svg>
    </div>
        ","","","","","","","","","","","","stimulus","","","","","","","","","","","","","","","","",""
"html-keyboard-response","90","357638","0.0-90.0","2042.199999988079","arrowdown","","
    <div style="" display: block;  position: relative;"">
    
    <svg width=1366 height=768>
    <circle cx=620 cy=384 r=12.17196567190433 stroke=""black"" stroke-width=""1"" fill=""black"" />
    <circle cx=830.6737546773652 cy=384 r=17.388522388434758 stroke=""none"" stroke-width=""1.5"" fill=""none"" />
    <circle cx=759.29 cy=455.38375467736523 r=17.388522388434758 stroke=""none"" stroke-width=""1.5"" fill=""none"" />
    <circle cx=687.9062453226347 cy=384 r=17.388522388434758 stroke=""none"" stroke-width=""1.5"" fill=""none"" />
    <circle cx=759.29 cy=312.61624532263477 r=17.388522388434758 stroke=""none"" stroke-width=""1.5"" fill=""none"" />
    <polygon points = ""759.29,384 764.1813044052548,366.61147761156525 754.3986955947452,366.61147761156525"" stroke=""none"" stroke-width=""3"" fill = ""none"" />
    
    </svg>
    </div>
        ","","","","","","","","","","","","get_response","false","xXpnBRTCjQPtJp2d","","","false","true","true","139.29","4","448.146","71.38375467736525","2.05","1","0","","",""
"html-keyboard-response","91","358136","0.0-91.0","null","null","","
    <div style="" display: block;  position: relative;"">
    
    <svg width=1366 height=768>
    <circle cx=620 cy=384 r=12.17196567190433 stroke=""black"" stroke-width=""1"" fill=""black"" />
    <circle cx=830.6737546773652 cy=384 r=17.388522388434758 stroke=""none"" stroke-width=""1.5"" fill=""none"" />
    <circle cx=759.29 cy=455.38375467736523 r=17.388522388434758 stroke=""none"" stroke-width=""1.5"" fill=""none"" />
    <circle cx=687.9062453226347 cy=384 r=17.388522388434758 stroke=""none"" stroke-width=""1.5"" fill=""none"" />
    <circle cx=759.29 cy=312.61624532263477 r=17.388522388434758 stroke=""none"" stroke-width=""1.5"" fill=""none"" />
    <polygon points = ""759.29,384 764.1813044052548,366.61147761156525 754.3986955947452,366.61147761156525"" stroke=""none"" stroke-width=""3"" fill = ""none"" />
    
    </svg>
    </div>
        ","","","","","","","","","","","","","","","","","","","","","","","","","","","","",""
"html-keyboard-response","92","358297","0.0-92.0","null","null","","
    <div style="" display: block;  position: relative;"">
    <svg width=1366 height=768>
    
    <circle cx=620 cy=384 r=12.17196567190433 stroke=""black"" stroke-width=""1"" fill=""black"" />
    <circle cx=480.71000000000004 cy=384 r=17.388522388434758 stroke=""black"" stroke-width=""1.5"" fill=""none"" />
    <circle cx=573.5088810805748 cy=384 r=17.388522388434758 stroke=""black"" stroke-width=""1.5"" fill=""none"" />
    <circle cx=480.71000000000004 cy=476.7988810805748 r=17.388522388434758 stroke=""black"" stroke-width=""1.5"" fill=""none"" />
    <circle cx=387.91111891942523 cy=384 r=17.388522388434758 stroke=""black"" stroke-width=""1.5"" fill=""none"" />
    <circle cx=480.71000000000004 cy=291.2011189194252 r=17.388522388434758 stroke=""black"" stroke-width=""1.5"" fill=""none"" />
    <polygon points = ""480.71000000000004,384 485.6013044052548,401.38852238843475 475.8186955947453,401.38852238843475"" stroke=""white"" stroke-width=""3"" fill = ""white"" />
    
    </svg>
    </div>
        ","","","","","","","","","","","","stimulus","","","","","","","","","","","","","","","","",""
"html-keyboard-response","93","360304","0.0-93.0","2006.300000011921","arrowdown","","
    <div style="" display: block;  position: relative;"">
    
    <svg width=1366 height=768>
    <circle cx=620 cy=384 r=12.17196567190433 stroke=""black"" stroke-width=""1"" fill=""black"" />
    <circle cx=573.5088810805748 cy=384 r=17.388522388434758 stroke=""none"" stroke-width=""1.5"" fill=""none"" />
    <circle cx=480.71000000000004 cy=476.7988810805748 r=17.388522388434758 stroke=""none"" stroke-width=""1.5"" fill=""none"" />
    <circle cx=387.91111891942523 cy=384 r=17.388522388434758 stroke=""none"" stroke-width=""1.5"" fill=""none"" />
    <circle cx=480.71000000000004 cy=291.2011189194252 r=17.388522388434758 stroke=""none"" stroke-width=""1.5"" fill=""none"" />
    <polygon points = ""480.71000000000004,384 485.6013044052548,401.38852238843475 475.8186955947453,401.38852238843475"" stroke=""none"" stroke-width=""3"" fill = ""none"" />
    
    </svg>
    </div>
        ","","","","","","","","","","","","get_response","true","xXpnBRTCjQPtJp2d","","","true","false","true","139.29","4","448.146","92.79888108057483","2.66","1","0","","",""
"html-keyboard-response","94","360807","0.0-94.0","null","null","","
    <div style="" display: block;  position: relative;"">
    
    <svg width=1366 height=768>
    <circle cx=620 cy=384 r=12.17196567190433 stroke=""black"" stroke-width=""1"" fill=""black"" />
    <circle cx=573.5088810805748 cy=384 r=17.388522388434758 stroke=""none"" stroke-width=""1.5"" fill=""none"" />
    <circle cx=480.71000000000004 cy=476.7988810805748 r=17.388522388434758 stroke=""none"" stroke-width=""1.5"" fill=""none"" />
    <circle cx=387.91111891942523 cy=384 r=17.388522388434758 stroke=""none"" stroke-width=""1.5"" fill=""none"" />
    <circle cx=480.71000000000004 cy=291.2011189194252 r=17.388522388434758 stroke=""none"" stroke-width=""1.5"" fill=""none"" />
    <polygon points = ""480.71000000000004,384 485.6013044052548,401.38852238843475 475.8186955947453,401.38852238843475"" stroke=""none"" stroke-width=""3"" fill = ""none"" />
    
    </svg>
    </div>
        ","","","","","","","","","","","","","","","","","","","","","","","","","","","","",""
"html-keyboard-response","95","360964","0.0-95.0","null","null","","
    <div style="" display: block;  position: relative;"">
    <svg width=1366 height=768>
    
    <circle cx=620 cy=384 r=12.17196567190433 stroke=""black"" stroke-width=""1"" fill=""black"" />
