"trial_type","trial_index","time_elapsed","internal_node_id","rt","response","success","stimulus","start_time","start_time_unix","item_width_mm","item_height_mm","item_width_px","px2mm","view_dist_mm","item_width_deg","px2deg","win_width_deg","win_height_deg","trialType","correct","participantID","criticalSpacing","criticalSpacing_deg","isLeft","isUp","isEccen4","eccentricity","eccentricity_deg","viewingDistanceMean","critical_spacing","critical_spacing_deg","crowding_session","correctRate","viewDistance_1","viewDistance_2","viewDistance_3"
"pavlovia","0","3","0.0-0.0","","","","","","","","","","","","","","","","","","","","","","","","","","","","","","","","",""
"survey-text","1","17518","0.0-1.0","17496.600000000093","{""Q0"":""""}","","","","","","","","","","","","","","","","","","","","","","","","","","","","","","",""
"fullscreen","2","25412","0.0-2.0","","","true","","","","","","","","","","","","","","","","","","","","","","","","","","","","","",""
"html-keyboard-response","3","32074","0.0-3.0","6661.300000000279"," ","","<h1>Consent Form</h1>
       <p>By answering the following questions, you are participating in a study being performed by cognitive scientists in the Stanford Department of Psychology. If you have questions about this research, please contact us at stanfordpsych251@gmail.com. You must be at least 18 years old to participate. Your participation in this research is voluntary. You may decline to answer any or all of the following questions. You may decline further participation by closing the window, at any time, without adverse consequences. Your anonymity is assured; the researchers who have requested your participation will not receive any personal information about you.</p>
       <p>Press <b>any key</b> to start the experiment!</p>","","","","","","","","","","","","","","","","","","","","","","","","","","","","",""
"html-keyboard-response","4","34246","0.0-4.0","2170.7000000001863"," ","","<h1>Welcome to the Visual Crowding Experiment!</h1>
       <p>This test will take <b>10-12</b> minutes to complete.</p>
       <p>Press any key to start the experiment!</p>","1/12/2021 00:17:26","1638343046820","","","","","","","","","","","","","","","","","","","","","","","","","","",""
"html-keyboard-response","5","47892","0.0-5.0","13643.899999999907","arrowdown","","<div> 
<p> Before you begin this study, let&#39;s quickly test how far away you are sitting. You might know that vision tests at a doctor&#39;s practice often involve chinrests, the doctor basically asks you to sit away from a screen in a specific distance. We do this here with a <b>virtual chinrest</b>. </p>
<p> Please press the <b>down</b> arrow to continue.
</p>
</div>","","","","","","","","","","","","","","","","","","","","","","","","","","","","",""
"virtual-chinrest","6","136612","0.0-6.0","88717.5","","","","","","85.6","53.98","304","3.55","556","8.803714916345829","34.53087734992011","44.48192799837892","25.021084499088143","","","","","","","","","","","","","","","","","",""
"html-keyboard-response","7","169104","0.0-7.0","32489.5","arrowdown","","
	<h2 class=""bolded-blue"">Now, you will take a peripheral vision test!</h2>
<p> 
	<b>
		<font size=""140%"">1. </font>
	</b>
	<em><b>Please use both eyes for the following task.</b></em> First, you will see a screen (like the one in the image below) showing a <b>black dot</b> in the middle of the screen, with a group of circles displayed on either the <span class=""bolded-blue"">left</span> or <span class=""bolded-blue"">right</span> of the black dot for 150 ms. <span class=""bolded-blue"">Please make sure to focus on the black dot all the time!</span>

	<div>
		<img src=""example.png"" alt=""example"" style=""border: 2px solid black"" width=""600""/> 
	</div>
	
	<b>
		<font size=""140%"">2. </font>
	</b>
	Your task is to identify whether the opening of the <b class=""bolded-blue"">center circle</b> is upward by pressing UP or downward by pressing DOWN on your keyboard. The opening of the circle will only be upward or downward, not towards left or right.

	<div>
		<img src=""arrow_keys+.png"" alt=""arrows"" style=""border: 2px solid black"" width=""600""/>
	</div>
	<br>

<p>Please press the <b>down</b> arrow key to start the <span class=""bolded-blue"">practice task</span> (this first practice task will not count toward your final results).</p>
</p>
","","","","","","","","","","","","","","","","","","","","","","","","","","","","",""
"html-keyboard-response","8","169614","0.0-8.0","null","null","","
    <div style="" display: block;  position: relative;"">
    
    <svg width=1536 height=864>
    <circle cx=705 cy=432 r=12.146090767314996 stroke=""black"" stroke-width=""1"" fill=""black"" />
    <circle cx=NaN cy=432 r=17.351558239021426 stroke=""none"" stroke-width=""1.5"" fill=""none"" />
    <circle cx=496.94 cy=NaN r=17.351558239021426 stroke=""none"" stroke-width=""1.5"" fill=""none"" />
    <circle cx=NaN cy=432 r=17.351558239021426 stroke=""none"" stroke-width=""1.5"" fill=""none"" />
    <circle cx=496.94 cy=NaN r=17.351558239021426 stroke=""none"" stroke-width=""1.5"" fill=""none"" />
    <polygon points = ""496.94,432 501.82090657484554,449.3515582390214 492.05909342515446,449.3515582390214"" stroke=""none"" stroke-width=""3"" fill = ""none"" />
    
    </svg>
    </div>
        ","","","","","","","","","","","","","","","","","","","","","","","","","","","","",""
"html-keyboard-response","9","169768","0.0-9.0","null","null","","
    <div style="" display: block;  position: relative;"">
    <svg width=1536 height=864>
    
    <circle cx=705 cy=432 r=12.146090767314996 stroke=""black"" stroke-width=""1"" fill=""black"" />
    <circle cx=496.94 cy=432 r=17.351558239021426 stroke=""black"" stroke-width=""1.5"" fill=""none"" />
    <circle cx=632.179 cy=432 r=17.351558239021426 stroke=""black"" stroke-width=""1.5"" fill=""none"" />
    <circle cx=496.94 cy=567.239 r=17.351558239021426 stroke=""black"" stroke-width=""1.5"" fill=""none"" />
    <circle cx=361.701 cy=432 r=17.351558239021426 stroke=""black"" stroke-width=""1.5"" fill=""none"" />
    <circle cx=496.94 cy=296.76099999999997 r=17.351558239021426 stroke=""black"" stroke-width=""1.5"" fill=""none"" />
    <polygon points = ""496.94,432 501.82090657484554,414.6484417609786 492.05909342515446,414.6484417609786"" stroke=""white"" stroke-width=""3"" fill = ""white"" />
    
    </svg>
    </div>
        ","","","","","","","","","","","","stimulus","","","","","","","","","","","","","","","","",""
"html-keyboard-response","10","170213","0.0-10.0","442.59999999962747","arrowup","","
    <div style="" display: block;  position: relative;"">
    
    <svg width=1536 height=864>
    <circle cx=705 cy=432 r=12.146090767314996 stroke=""black"" stroke-width=""1"" fill=""black"" />
    <circle cx=632.179 cy=432 r=17.351558239021426 stroke=""none"" stroke-width=""1.5"" fill=""none"" />
    <circle cx=496.94 cy=567.239 r=17.351558239021426 stroke=""none"" stroke-width=""1.5"" fill=""none"" />
    <circle cx=361.701 cy=432 r=17.351558239021426 stroke=""none"" stroke-width=""1.5"" fill=""none"" />
    <circle cx=496.94 cy=296.76099999999997 r=17.351558239021426 stroke=""none"" stroke-width=""1.5"" fill=""none"" />
    <polygon points = ""496.94,432 501.82090657484554,414.6484417609786 492.05909342515446,414.6484417609786"" stroke=""none"" stroke-width=""3"" fill = ""none"" />
    
    </svg>
    </div>
        ","","","","","","","","","","","","practice_get_response","true","za2VCr3B7NeKMV89","135.239","3.89","true","true","false","208.06","6","561.826","","","","","","",""
"html-keyboard-response","11","170724","0.0-11.0","null","null","","
    <div style="" display: block;  position: relative;"">
    
    <svg width=1536 height=864>
    <circle cx=705 cy=432 r=12.146090767314996 stroke=""black"" stroke-width=""1"" fill=""black"" />
    <circle cx=632.179 cy=432 r=17.351558239021426 stroke=""none"" stroke-width=""1.5"" fill=""none"" />
    <circle cx=496.94 cy=567.239 r=17.351558239021426 stroke=""none"" stroke-width=""1.5"" fill=""none"" />
    <circle cx=361.701 cy=432 r=17.351558239021426 stroke=""none"" stroke-width=""1.5"" fill=""none"" />
    <circle cx=496.94 cy=296.76099999999997 r=17.351558239021426 stroke=""none"" stroke-width=""1.5"" fill=""none"" />
    <polygon points = ""496.94,432 501.82090657484554,414.6484417609786 492.05909342515446,414.6484417609786"" stroke=""none"" stroke-width=""3"" fill = ""none"" />
    
    </svg>
    </div>
        ","","","","","","","","","","","","","","","","","","","","","","","","","","","","",""
"html-keyboard-response","12","170876","0.0-12.0","null","null","","
    <div style="" display: block;  position: relative;"">
    <svg width=1536 height=864>
    
    <circle cx=705 cy=432 r=12.146090767314996 stroke=""black"" stroke-width=""1"" fill=""black"" />
    <circle cx=913.06 cy=432 r=17.351558239021426 stroke=""black"" stroke-width=""1.5"" fill=""none"" />
    <circle cx=1048.299 cy=432 r=17.351558239021426 stroke=""black"" stroke-width=""1.5"" fill=""none"" />
    <circle cx=913.06 cy=567.239 r=17.351558239021426 stroke=""black"" stroke-width=""1.5"" fill=""none"" />
    <circle cx=777.8209999999999 cy=432 r=17.351558239021426 stroke=""black"" stroke-width=""1.5"" fill=""none"" />
    <circle cx=913.06 cy=296.76099999999997 r=17.351558239021426 stroke=""black"" stroke-width=""1.5"" fill=""none"" />
    <polygon points = ""913.06,432 917.9409065748455,414.6484417609786 908.1790934251544,414.6484417609786"" stroke=""white"" stroke-width=""3"" fill = ""white"" />
    
    </svg>
    </div>
        ","","","","","","","","","","","","stimulus","","","","","","","","","","","","","","","","",""
"html-keyboard-response","13","171180","0.0-13.0","302.6999999997206","arrowup","","
    <div style="" display: block;  position: relative;"">
    
    <svg width=1536 height=864>
    <circle cx=705 cy=432 r=12.146090767314996 stroke=""black"" stroke-width=""1"" fill=""black"" />
    <circle cx=1048.299 cy=432 r=17.351558239021426 stroke=""none"" stroke-width=""1.5"" fill=""none"" />
    <circle cx=913.06 cy=567.239 r=17.351558239021426 stroke=""none"" stroke-width=""1.5"" fill=""none"" />
    <circle cx=777.8209999999999 cy=432 r=17.351558239021426 stroke=""none"" stroke-width=""1.5"" fill=""none"" />
    <circle cx=913.06 cy=296.76099999999997 r=17.351558239021426 stroke=""none"" stroke-width=""1.5"" fill=""none"" />
    <polygon points = ""913.06,432 917.9409065748455,414.6484417609786 908.1790934251544,414.6484417609786"" stroke=""none"" stroke-width=""3"" fill = ""none"" />
    
    </svg>
    </div>
        ","","","","","","","","","","","","practice_get_response","true","za2VCr3B7NeKMV89","135.239","3.89","false","true","false","208.06","6","561.826","","","","","","",""
"html-keyboard-response","14","171695","0.0-14.0","null","null","","
    <div style="" display: block;  position: relative;"">
    
    <svg width=1536 height=864>
    <circle cx=705 cy=432 r=12.146090767314996 stroke=""black"" stroke-width=""1"" fill=""black"" />
    <circle cx=1048.299 cy=432 r=17.351558239021426 stroke=""none"" stroke-width=""1.5"" fill=""none"" />
    <circle cx=913.06 cy=567.239 r=17.351558239021426 stroke=""none"" stroke-width=""1.5"" fill=""none"" />
    <circle cx=777.8209999999999 cy=432 r=17.351558239021426 stroke=""none"" stroke-width=""1.5"" fill=""none"" />
    <circle cx=913.06 cy=296.76099999999997 r=17.351558239021426 stroke=""none"" stroke-width=""1.5"" fill=""none"" />
    <polygon points = ""913.06,432 917.9409065748455,414.6484417609786 908.1790934251544,414.6484417609786"" stroke=""none"" stroke-width=""3"" fill = ""none"" />
    
    </svg>
    </div>
        ","","","","","","","","","","","","","","","","","","","","","","","","","","","","",""
"html-keyboard-response","15","171849","0.0-15.0","null","null","","
    <div style="" display: block;  position: relative;"">
    <svg width=1536 height=864>
    
    <circle cx=705 cy=432 r=12.146090767314996 stroke=""black"" stroke-width=""1"" fill=""black"" />
    <circle cx=496.94 cy=432 r=17.351558239021426 stroke=""black"" stroke-width=""1.5"" fill=""none"" />
    <circle cx=632.179 cy=432 r=17.351558239021426 stroke=""black"" stroke-width=""1.5"" fill=""none"" />
    <circle cx=496.94 cy=567.239 r=17.351558239021426 stroke=""black"" stroke-width=""1.5"" fill=""none"" />
    <circle cx=361.701 cy=432 r=17.351558239021426 stroke=""black"" stroke-width=""1.5"" fill=""none"" />
    <circle cx=496.94 cy=296.76099999999997 r=17.351558239021426 stroke=""black"" stroke-width=""1.5"" fill=""none"" />
    <polygon points = ""496.94,432 501.82090657484554,414.6484417609786 492.05909342515446,414.6484417609786"" stroke=""white"" stroke-width=""3"" fill = ""white"" />
    
    </svg>
    </div>
        ","","","","","","","","","","","","stimulus","","","","","","","","","","","","","","","","",""
"html-keyboard-response","16","172213","0.0-16.0","361.79999999981374","arrowup","","
    <div style="" display: block;  position: relative;"">
    
    <svg width=1536 height=864>
    <circle cx=705 cy=432 r=12.146090767314996 stroke=""black"" stroke-width=""1"" fill=""black"" />
    <circle cx=632.179 cy=432 r=17.351558239021426 stroke=""none"" stroke-width=""1.5"" fill=""none"" />
    <circle cx=496.94 cy=567.239 r=17.351558239021426 stroke=""none"" stroke-width=""1.5"" fill=""none"" />
    <circle cx=361.701 cy=432 r=17.351558239021426 stroke=""none"" stroke-width=""1.5"" fill=""none"" />
    <circle cx=496.94 cy=296.76099999999997 r=17.351558239021426 stroke=""none"" stroke-width=""1.5"" fill=""none"" />
    <polygon points = ""496.94,432 501.82090657484554,414.6484417609786 492.05909342515446,414.6484417609786"" stroke=""none"" stroke-width=""3"" fill = ""none"" />
    
    </svg>
    </div>
        ","","","","","","","","","","","","practice_get_response","true","za2VCr3B7NeKMV89","135.239","3.89","true","true","false","208.06","6","561.826","","","","","","",""
"html-keyboard-response","17","172727","0.0-17.0","null","null","","
    <div style="" display: block;  position: relative;"">
    
    <svg width=1536 height=864>
    <circle cx=705 cy=432 r=12.146090767314996 stroke=""black"" stroke-width=""1"" fill=""black"" />
    <circle cx=632.179 cy=432 r=17.351558239021426 stroke=""none"" stroke-width=""1.5"" fill=""none"" />
    <circle cx=496.94 cy=567.239 r=17.351558239021426 stroke=""none"" stroke-width=""1.5"" fill=""none"" />
    <circle cx=361.701 cy=432 r=17.351558239021426 stroke=""none"" stroke-width=""1.5"" fill=""none"" />
    <circle cx=496.94 cy=296.76099999999997 r=17.351558239021426 stroke=""none"" stroke-width=""1.5"" fill=""none"" />
    <polygon points = ""496.94,432 501.82090657484554,414.6484417609786 492.05909342515446,414.6484417609786"" stroke=""none"" stroke-width=""3"" fill = ""none"" />
    
    </svg>
    </div>
        ","","","","","","","","","","","","","","","","","","","","","","","","","","","","",""
"html-keyboard-response","18","172882","0.0-18.0","null","null","","
    <div style="" display: block;  position: relative;"">
    <svg width=1536 height=864>
    
    <circle cx=705 cy=432 r=12.146090767314996 stroke=""black"" stroke-width=""1"" fill=""black"" />
    <circle cx=913.06 cy=432 r=17.351558239021426 stroke=""black"" stroke-width=""1.5"" fill=""none"" />
    <circle cx=1036.0045454545455 cy=432 r=17.351558239021426 stroke=""black"" stroke-width=""1.5"" fill=""none"" />
    <circle cx=913.06 cy=554.9445454545455 r=17.351558239021426 stroke=""black"" stroke-width=""1.5"" fill=""none"" />
    <circle cx=790.1154545454544 cy=432 r=17.351558239021426 stroke=""black"" stroke-width=""1.5"" fill=""none"" />
    <circle cx=913.06 cy=309.05545454545455 r=17.351558239021426 stroke=""black"" stroke-width=""1.5"" fill=""none"" />
    <polygon points = ""913.06,432 917.9409065748455,414.6484417609786 908.1790934251544,414.6484417609786"" stroke=""white"" stroke-width=""3"" fill = ""white"" />
    
    </svg>
    </div>
        ","","","","","","","","","","","","stimulus","","","","","","","","","","","","","","","","",""
"html-keyboard-response","19","173170","0.0-19.0","286.79999999981374","arrowup","","
    <div style="" display: block;  position: relative;"">
    
    <svg width=1536 height=864>
    <circle cx=705 cy=432 r=12.146090767314996 stroke=""black"" stroke-width=""1"" fill=""black"" />
    <circle cx=1036.0045454545455 cy=432 r=17.351558239021426 stroke=""none"" stroke-width=""1.5"" fill=""none"" />
    <circle cx=913.06 cy=554.9445454545455 r=17.351558239021426 stroke=""none"" stroke-width=""1.5"" fill=""none"" />
    <circle cx=790.1154545454544 cy=432 r=17.351558239021426 stroke=""none"" stroke-width=""1.5"" fill=""none"" />
    <circle cx=913.06 cy=309.05545454545455 r=17.351558239021426 stroke=""none"" stroke-width=""1.5"" fill=""none"" />
    <polygon points = ""913.06,432 917.9409065748455,414.6484417609786 908.1790934251544,414.6484417609786"" stroke=""none"" stroke-width=""3"" fill = ""none"" />
    
    </svg>
    </div>
        ","","","","","","","","","","","","practice_get_response","true","za2VCr3B7NeKMV89","122.94454545454545","3.54","false","true","false","208.06","6","561.826","","","","","","",""
"html-keyboard-response","20","173681","0.0-20.0","null","null","","
    <div style="" display: block;  position: relative;"">
    
    <svg width=1536 height=864>
    <circle cx=705 cy=432 r=12.146090767314996 stroke=""black"" stroke-width=""1"" fill=""black"" />
    <circle cx=1036.0045454545455 cy=432 r=17.351558239021426 stroke=""none"" stroke-width=""1.5"" fill=""none"" />
    <circle cx=913.06 cy=554.9445454545455 r=17.351558239021426 stroke=""none"" stroke-width=""1.5"" fill=""none"" />
    <circle cx=790.1154545454544 cy=432 r=17.351558239021426 stroke=""none"" stroke-width=""1.5"" fill=""none"" />
    <circle cx=913.06 cy=309.05545454545455 r=17.351558239021426 stroke=""none"" stroke-width=""1.5"" fill=""none"" />
    <polygon points = ""913.06,432 917.9409065748455,414.6484417609786 908.1790934251544,414.6484417609786"" stroke=""none"" stroke-width=""3"" fill = ""none"" />
    
    </svg>
    </div>
        ","","","","","","","","","","","","","","","","","","","","","","","","","","","","",""
"html-keyboard-response","21","173835","0.0-21.0","null","null","","
    <div style="" display: block;  position: relative;"">
    <svg width=1536 height=864>
    
    <circle cx=705 cy=432 r=12.146090767314996 stroke=""black"" stroke-width=""1"" fill=""black"" />
    <circle cx=496.94 cy=432 r=17.351558239021426 stroke=""black"" stroke-width=""1.5"" fill=""none"" />
    <circle cx=608.7077685950413 cy=432 r=17.351558239021426 stroke=""black"" stroke-width=""1.5"" fill=""none"" />
    <circle cx=496.94 cy=543.7677685950413 r=17.351558239021426 stroke=""black"" stroke-width=""1.5"" fill=""none"" />
    <circle cx=385.17223140495867 cy=432 r=17.351558239021426 stroke=""black"" stroke-width=""1.5"" fill=""none"" />
    <circle cx=496.94 cy=320.2322314049587 r=17.351558239021426 stroke=""black"" stroke-width=""1.5"" fill=""none"" />
    <polygon points = ""496.94,432 501.82090657484554,414.6484417609786 492.05909342515446,414.6484417609786"" stroke=""white"" stroke-width=""3"" fill = ""white"" />
    
    </svg>
    </div>
        ","","","","","","","","","","","","stimulus","","","","","","","","","","","","","","","","",""
"html-keyboard-response","22","174068","0.0-22.0","231.29999999981374","arrowup","","
    <div style="" display: block;  position: relative;"">
    
    <svg width=1536 height=864>
    <circle cx=705 cy=432 r=12.146090767314996 stroke=""black"" stroke-width=""1"" fill=""black"" />
    <circle cx=608.7077685950413 cy=432 r=17.351558239021426 stroke=""none"" stroke-width=""1.5"" fill=""none"" />
    <circle cx=496.94 cy=543.7677685950413 r=17.351558239021426 stroke=""none"" stroke-width=""1.5"" fill=""none"" />
    <circle cx=385.17223140495867 cy=432 r=17.351558239021426 stroke=""none"" stroke-width=""1.5"" fill=""none"" />
    <circle cx=496.94 cy=320.2322314049587 r=17.351558239021426 stroke=""none"" stroke-width=""1.5"" fill=""none"" />
    <polygon points = ""496.94,432 501.82090657484554,414.6484417609786 492.05909342515446,414.6484417609786"" stroke=""none"" stroke-width=""3"" fill = ""none"" />
    
    </svg>
    </div>
        ","","","","","","","","","","","","practice_get_response","true","za2VCr3B7NeKMV89","111.7677685950413","3.21","true","true","false","208.06","6","561.826","","","","","","",""
"html-keyboard-response","23","179685","0.0-23.0","5615.600000000093","arrowdown","","<div> 
<h2 class=""bolded-blue"">Well done!</h2>
<p> Now that you have the hang of it, we&#39;ll start the study. This session has 25 trials and takes about 2 minute to complete. </p> 
<p>If you are ready for the real deal, please press the <b>down</b> arrow to continue.
</p>
</div>","","","","","","","","","","","","","","","","","","","","","","","","","","","","",""
"html-keyboard-response","24","194429","0.0-24.0","14743.19999999972","arrowdown","","<div id=""continue""> 
<p>Again, please keep the <b>full screen</b> mode for the best experience.</p>
<p>Please do not move around and keep your eye on the black dot. Click <b>up</b> or <b>down</b> key on your keyboard to indicate the opening of the center circle. Make your best guess!</p>
<p>Please press the <b>down</b> arrow key to start the session 1. </p>
</div>","","","","","","","","","","","","","","","","","","","","","","","","","","","","",""
"html-keyboard-response","25","194937","0.0-25.0","null","null","","
    <div style="" display: block;  position: relative;"">
    
    <svg width=1536 height=864>
    <circle cx=705 cy=432 r=12.146090767314996 stroke=""black"" stroke-width=""1"" fill=""black"" />
    <circle cx=608.7077685950413 cy=432 r=17.351558239021426 stroke=""none"" stroke-width=""1.5"" fill=""none"" />
    <circle cx=496.94 cy=543.7677685950413 r=17.351558239021426 stroke=""none"" stroke-width=""1.5"" fill=""none"" />
    <circle cx=385.17223140495867 cy=432 r=17.351558239021426 stroke=""none"" stroke-width=""1.5"" fill=""none"" />
    <circle cx=496.94 cy=320.2322314049587 r=17.351558239021426 stroke=""none"" stroke-width=""1.5"" fill=""none"" />
    <polygon points = ""496.94,432 501.82090657484554,449.3515582390214 492.05909342515446,449.3515582390214"" stroke=""none"" stroke-width=""3"" fill = ""none"" />
    
    </svg>
    </div>
        ","","","","","","","","","","","","","","","","","","","","","","","","","","","","",""
"html-keyboard-response","26","195090","0.0-26.0","null","null","","
    <div style="" display: block;  position: relative;"">
    <svg width=1536 height=864>
    
    <circle cx=705 cy=432 r=12.146090767314996 stroke=""black"" stroke-width=""1"" fill=""black"" />
    <circle cx=913.06 cy=432 r=17.351558239021426 stroke=""black"" stroke-width=""1.5"" fill=""none"" />
    <circle cx=1048.299 cy=432 r=17.351558239021426 stroke=""black"" stroke-width=""1.5"" fill=""none"" />
    <circle cx=913.06 cy=567.239 r=17.351558239021426 stroke=""black"" stroke-width=""1.5"" fill=""none"" />
    <circle cx=777.8209999999999 cy=432 r=17.351558239021426 stroke=""black"" stroke-width=""1.5"" fill=""none"" />
    <circle cx=913.06 cy=296.76099999999997 r=17.351558239021426 stroke=""black"" stroke-width=""1.5"" fill=""none"" />
    <polygon points = ""913.06,432 917.9409065748455,449.3515582390214 908.1790934251544,449.3515582390214"" stroke=""white"" stroke-width=""3"" fill = ""white"" />
    
    </svg>
    </div>
        ","","","","","","","","","","","","stimulus","","","","","","","","","","","","","","","","",""
"html-keyboard-response","27","195452","0.0-27.0","360.29999999981374","arrowdown","","
    <div style="" display: block;  position: relative;"">
    
    <svg width=1536 height=864>
    <circle cx=705 cy=432 r=12.146090767314996 stroke=""black"" stroke-width=""1"" fill=""black"" />
    <circle cx=1048.299 cy=432 r=17.351558239021426 stroke=""none"" stroke-width=""1.5"" fill=""none"" />
    <circle cx=913.06 cy=567.239 r=17.351558239021426 stroke=""none"" stroke-width=""1.5"" fill=""none"" />
    <circle cx=777.8209999999999 cy=432 r=17.351558239021426 stroke=""none"" stroke-width=""1.5"" fill=""none"" />
    <circle cx=913.06 cy=296.76099999999997 r=17.351558239021426 stroke=""none"" stroke-width=""1.5"" fill=""none"" />
    <polygon points = ""913.06,432 917.9409065748455,449.3515582390214 908.1790934251544,449.3515582390214"" stroke=""none"" stroke-width=""3"" fill = ""none"" />
    
    </svg>
    </div>
        ","","","","","","","","","","","","get_response","true","za2VCr3B7NeKMV89","","","false","false","false","208.06","6","561.826","135.239","3.89","1","0","","",""
"html-keyboard-response","28","195969","0.0-28.0","null","null","","
    <div style="" display: block;  position: relative;"">
    
    <svg width=1536 height=864>
    <circle cx=705 cy=432 r=12.146090767314996 stroke=""black"" stroke-width=""1"" fill=""black"" />
    <circle cx=1048.299 cy=432 r=17.351558239021426 stroke=""none"" stroke-width=""1.5"" fill=""none"" />
    <circle cx=913.06 cy=567.239 r=17.351558239021426 stroke=""none"" stroke-width=""1.5"" fill=""none"" />
    <circle cx=777.8209999999999 cy=432 r=17.351558239021426 stroke=""none"" stroke-width=""1.5"" fill=""none"" />
    <circle cx=913.06 cy=296.76099999999997 r=17.351558239021426 stroke=""none"" stroke-width=""1.5"" fill=""none"" />
    <polygon points = ""913.06,432 917.9409065748455,449.3515582390214 908.1790934251544,449.3515582390214"" stroke=""none"" stroke-width=""3"" fill = ""none"" />
    
    </svg>
    </div>
        ","","","","","","","","","","","","","","","","","","","","","","","","","","","","",""
"html-keyboard-response","29","196121","0.0-29.0","null","null","","
    <div style="" display: block;  position: relative;"">
    <svg width=1536 height=864>
    
    <circle cx=705 cy=432 r=12.146090767314996 stroke=""black"" stroke-width=""1"" fill=""black"" />
    <circle cx=496.94 cy=432 r=17.351558239021426 stroke=""black"" stroke-width=""1.5"" fill=""none"" />
    <circle cx=632.179 cy=432 r=17.351558239021426 stroke=""black"" stroke-width=""1.5"" fill=""none"" />
    <circle cx=496.94 cy=567.239 r=17.351558239021426 stroke=""black"" stroke-width=""1.5"" fill=""none"" />
    <circle cx=361.701 cy=432 r=17.351558239021426 stroke=""black"" stroke-width=""1.5"" fill=""none"" />
    <circle cx=496.94 cy=296.76099999999997 r=17.351558239021426 stroke=""black"" stroke-width=""1.5"" fill=""none"" />
    <polygon points = ""496.94,432 501.82090657484554,449.3515582390214 492.05909342515446,449.3515582390214"" stroke=""white"" stroke-width=""3"" fill = ""white"" />
    
    </svg>
    </div>
        ","","","","","","","","","","","","stimulus","","","","","","","","","","","","","","","","",""
"html-keyboard-response","30","196430","0.0-30.0","306.10000000009313","arrowdown","","
    <div style="" display: block;  position: relative;"">
    
    <svg width=1536 height=864>
    <circle cx=705 cy=432 r=12.146090767314996 stroke=""black"" stroke-width=""1"" fill=""black"" />
    <circle cx=632.179 cy=432 r=17.351558239021426 stroke=""none"" stroke-width=""1.5"" fill=""none"" />
    <circle cx=496.94 cy=567.239 r=17.351558239021426 stroke=""none"" stroke-width=""1.5"" fill=""none"" />
    <circle cx=361.701 cy=432 r=17.351558239021426 stroke=""none"" stroke-width=""1.5"" fill=""none"" />
    <circle cx=496.94 cy=296.76099999999997 r=17.351558239021426 stroke=""none"" stroke-width=""1.5"" fill=""none"" />
    <polygon points = ""496.94,432 501.82090657484554,449.3515582390214 492.05909342515446,449.3515582390214"" stroke=""none"" stroke-width=""3"" fill = ""none"" />
    
    </svg>
    </div>
        ","","","","","","","","","","","","get_response","true","za2VCr3B7NeKMV89","","","true","false","false","208.06","6","561.826","135.239","3.89","1","0","","",""
"html-keyboard-response","31","196939","0.0-31.0","null","null","","
    <div style="" display: block;  position: relative;"">
    
    <svg width=1536 height=864>
    <circle cx=705 cy=432 r=12.146090767314996 stroke=""black"" stroke-width=""1"" fill=""black"" />
    <circle cx=632.179 cy=432 r=17.351558239021426 stroke=""none"" stroke-width=""1.5"" fill=""none"" />
    <circle cx=496.94 cy=567.239 r=17.351558239021426 stroke=""none"" stroke-width=""1.5"" fill=""none"" />
    <circle cx=361.701 cy=432 r=17.351558239021426 stroke=""none"" stroke-width=""1.5"" fill=""none"" />
    <circle cx=496.94 cy=296.76099999999997 r=17.351558239021426 stroke=""none"" stroke-width=""1.5"" fill=""none"" />
    <polygon points = ""496.94,432 501.82090657484554,449.3515582390214 492.05909342515446,449.3515582390214"" stroke=""none"" stroke-width=""3"" fill = ""none"" />
    
    </svg>
    </div>
        ","","","","","","","","","","","","","","","","","","","","","","","","","","","","",""
"html-keyboard-response","32","197093","0.0-32.0","null","null","","
    <div style="" display: block;  position: relative;"">
    <svg width=1536 height=864>
    
    <circle cx=705 cy=432 r=12.146090767314996 stroke=""black"" stroke-width=""1"" fill=""black"" />
    <circle cx=496.94 cy=432 r=17.351558239021426 stroke=""black"" stroke-width=""1.5"" fill=""none"" />
    <circle cx=632.179 cy=432 r=17.351558239021426 stroke=""black"" stroke-width=""1.5"" fill=""none"" />
    <circle cx=496.94 cy=567.239 r=17.351558239021426 stroke=""black"" stroke-width=""1.5"" fill=""none"" />
    <circle cx=361.701 cy=432 r=17.351558239021426 stroke=""black"" stroke-width=""1.5"" fill=""none"" />
    <circle cx=496.94 cy=296.76099999999997 r=17.351558239021426 stroke=""black"" stroke-width=""1.5"" fill=""none"" />
    <polygon points = ""496.94,432 501.82090657484554,414.6484417609786 492.05909342515446,414.6484417609786"" stroke=""white"" stroke-width=""3"" fill = ""white"" />
    
    </svg>
    </div>
        ","","","","","","","","","","","","stimulus","","","","","","","","","","","","","","","","",""
"html-keyboard-response","33","197448","0.0-33.0","352.10000000009313","arrowup","","
    <div style="" display: block;  position: relative;"">
    
    <svg width=1536 height=864>
    <circle cx=705 cy=432 r=12.146090767314996 stroke=""black"" stroke-width=""1"" fill=""black"" />
    <circle cx=632.179 cy=432 r=17.351558239021426 stroke=""none"" stroke-width=""1.5"" fill=""none"" />
    <circle cx=496.94 cy=567.239 r=17.351558239021426 stroke=""none"" stroke-width=""1.5"" fill=""none"" />
    <circle cx=361.701 cy=432 r=17.351558239021426 stroke=""none"" stroke-width=""1.5"" fill=""none"" />
    <circle cx=496.94 cy=296.76099999999997 r=17.351558239021426 stroke=""none"" stroke-width=""1.5"" fill=""none"" />
    <polygon points = ""496.94,432 501.82090657484554,414.6484417609786 492.05909342515446,414.6484417609786"" stroke=""none"" stroke-width=""3"" fill = ""none"" />
    
    </svg>
    </div>
        ","","","","","","","","","","","","get_response","true","za2VCr3B7NeKMV89","","","true","true","false","208.06","6","561.826","135.239","3.89","1","0","","",""
"html-keyboard-response","34","197959","0.0-34.0","null","null","","
    <div style="" display: block;  position: relative;"">
    
    <svg width=1536 height=864>
    <circle cx=705 cy=432 r=12.146090767314996 stroke=""black"" stroke-width=""1"" fill=""black"" />
    <circle cx=632.179 cy=432 r=17.351558239021426 stroke=""none"" stroke-width=""1.5"" fill=""none"" />
    <circle cx=496.94 cy=567.239 r=17.351558239021426 stroke=""none"" stroke-width=""1.5"" fill=""none"" />
    <circle cx=361.701 cy=432 r=17.351558239021426 stroke=""none"" stroke-width=""1.5"" fill=""none"" />
    <circle cx=496.94 cy=296.76099999999997 r=17.351558239021426 stroke=""none"" stroke-width=""1.5"" fill=""none"" />
    <polygon points = ""496.94,432 501.82090657484554,414.6484417609786 492.05909342515446,414.6484417609786"" stroke=""none"" stroke-width=""3"" fill = ""none"" />
    
    </svg>
    </div>
        ","","","","","","","","","","","","","","","","","","","","","","","","","","","","",""
"html-keyboard-response","35","198113","0.0-35.0","null","null","","
    <div style="" display: block;  position: relative;"">
    <svg width=1536 height=864>
    
    <circle cx=705 cy=432 r=12.146090767314996 stroke=""black"" stroke-width=""1"" fill=""black"" />
    <circle cx=496.94 cy=432 r=17.351558239021426 stroke=""black"" stroke-width=""1.5"" fill=""none"" />
    <circle cx=619.8845454545454 cy=432 r=17.351558239021426 stroke=""black"" stroke-width=""1.5"" fill=""none"" />
    <circle cx=496.94 cy=554.9445454545455 r=17.351558239021426 stroke=""black"" stroke-width=""1.5"" fill=""none"" />
    <circle cx=373.99545454545455 cy=432 r=17.351558239021426 stroke=""black"" stroke-width=""1.5"" fill=""none"" />
    <circle cx=496.94 cy=309.05545454545455 r=17.351558239021426 stroke=""black"" stroke-width=""1.5"" fill=""none"" />
    <polygon points = ""496.94,432 501.82090657484554,449.3515582390214 492.05909342515446,449.3515582390214"" stroke=""white"" stroke-width=""3"" fill = ""white"" />
    
    </svg>
    </div>
        ","","","","","","","","","","","","stimulus","","","","","","","","","","","","","","","","",""
"html-keyboard-response","36","198421","0.0-36.0","306.60000000009313","arrowdown","","
    <div style="" display: block;  position: relative;"">
    
    <svg width=1536 height=864>
    <circle cx=705 cy=432 r=12.146090767314996 stroke=""black"" stroke-width=""1"" fill=""black"" />
    <circle cx=619.8845454545454 cy=432 r=17.351558239021426 stroke=""none"" stroke-width=""1.5"" fill=""none"" />
    <circle cx=496.94 cy=554.9445454545455 r=17.351558239021426 stroke=""none"" stroke-width=""1.5"" fill=""none"" />
    <circle cx=373.99545454545455 cy=432 r=17.351558239021426 stroke=""none"" stroke-width=""1.5"" fill=""none"" />
    <circle cx=496.94 cy=309.05545454545455 r=17.351558239021426 stroke=""none"" stroke-width=""1.5"" fill=""none"" />
    <polygon points = ""496.94,432 501.82090657484554,449.3515582390214 492.05909342515446,449.3515582390214"" stroke=""none"" stroke-width=""3"" fill = ""none"" />
    
    </svg>
    </div>
        ","","","","","","","","","","","","get_response","true","za2VCr3B7NeKMV89","","","true","false","false","208.06","6","561.826","122.94454545454545","3.54","1","0","","",""
"html-keyboard-response","37","198931","0.0-37.0","null","null","","
    <div style="" display: block;  position: relative;"">
    
    <svg width=1536 height=864>
    <circle cx=705 cy=432 r=12.146090767314996 stroke=""black"" stroke-width=""1"" fill=""black"" />
    <circle cx=619.8845454545454 cy=432 r=17.351558239021426 stroke=""none"" stroke-width=""1.5"" fill=""none"" />
    <circle cx=496.94 cy=554.9445454545455 r=17.351558239021426 stroke=""none"" stroke-width=""1.5"" fill=""none"" />
    <circle cx=373.99545454545455 cy=432 r=17.351558239021426 stroke=""none"" stroke-width=""1.5"" fill=""none"" />
    <circle cx=496.94 cy=309.05545454545455 r=17.351558239021426 stroke=""none"" stroke-width=""1.5"" fill=""none"" />
    <polygon points = ""496.94,432 501.82090657484554,449.3515582390214 492.05909342515446,449.3515582390214"" stroke=""none"" stroke-width=""3"" fill = ""none"" />
    
    </svg>
    </div>
        ","","","","","","","","","","","","","","","","","","","","","","","","","","","","",""
"html-keyboard-response","38","199084","0.0-38.0","null","null","","
    <div style="" display: block;  position: relative;"">
    <svg width=1536 height=864>
    
    <circle cx=705 cy=432 r=12.146090767314996 stroke=""black"" stroke-width=""1"" fill=""black"" />
    <circle cx=496.94 cy=432 r=17.351558239021426 stroke=""black"" stroke-width=""1.5"" fill=""none"" />
    <circle cx=608.7077685950413 cy=432 r=17.351558239021426 stroke=""black"" stroke-width=""1.5"" fill=""none"" />
    <circle cx=496.94 cy=543.7677685950413 r=17.351558239021426 stroke=""black"" stroke-width=""1.5"" fill=""none"" />
    <circle cx=385.17223140495867 cy=432 r=17.351558239021426 stroke=""black"" stroke-width=""1.5"" fill=""none"" />
    <circle cx=496.94 cy=320.2322314049587 r=17.351558239021426 stroke=""black"" stroke-width=""1.5"" fill=""none"" />
    <polygon points = ""496.94,432 501.82090657484554,414.6484417609786 492.05909342515446,414.6484417609786"" stroke=""white"" stroke-width=""3"" fill = ""white"" />
    
    </svg>
    </div>
        ","","","","","","","","","","","","stimulus","","","","","","","","","","","","","","","","",""
"html-keyboard-response","39","199354","0.0-39.0","266.20000000018626","arrowup","","
    <div style="" display: block;  position: relative;"">
    
    <svg width=1536 height=864>
    <circle cx=705 cy=432 r=12.146090767314996 stroke=""black"" stroke-width=""1"" fill=""black"" />
    <circle cx=608.7077685950413 cy=432 r=17.351558239021426 stroke=""none"" stroke-width=""1.5"" fill=""none"" />
    <circle cx=496.94 cy=543.7677685950413 r=17.351558239021426 stroke=""none"" stroke-width=""1.5"" fill=""none"" />
    <circle cx=385.17223140495867 cy=432 r=17.351558239021426 stroke=""none"" stroke-width=""1.5"" fill=""none"" />
    <circle cx=496.94 cy=320.2322314049587 r=17.351558239021426 stroke=""none"" stroke-width=""1.5"" fill=""none"" />
    <polygon points = ""496.94,432 501.82090657484554,414.6484417609786 492.05909342515446,414.6484417609786"" stroke=""none"" stroke-width=""3"" fill = ""none"" />
    
    </svg>
    </div>
        ","","","","","","","","","","","","get_response","true","za2VCr3B7NeKMV89","","","true","true","false","208.06","6","561.826","111.7677685950413","3.21","1","0","","",""
"html-keyboard-response","40","199870","0.0-40.0","null","null","","
    <div style="" display: block;  position: relative;"">
    
    <svg width=1536 height=864>
    <circle cx=705 cy=432 r=12.146090767314996 stroke=""black"" stroke-width=""1"" fill=""black"" />
    <circle cx=608.7077685950413 cy=432 r=17.351558239021426 stroke=""none"" stroke-width=""1.5"" fill=""none"" />
    <circle cx=496.94 cy=543.7677685950413 r=17.351558239021426 stroke=""none"" stroke-width=""1.5"" fill=""none"" />
    <circle cx=385.17223140495867 cy=432 r=17.351558239021426 stroke=""none"" stroke-width=""1.5"" fill=""none"" />
    <circle cx=496.94 cy=320.2322314049587 r=17.351558239021426 stroke=""none"" stroke-width=""1.5"" fill=""none"" />
    <polygon points = ""496.94,432 501.82090657484554,414.6484417609786 492.05909342515446,414.6484417609786"" stroke=""none"" stroke-width=""3"" fill = ""none"" />
    
    </svg>
    </div>
        ","","","","","","","","","","","","","","","","","","","","","","","","","","","","",""
"html-keyboard-response","41","200025","0.0-41.0","null","null","","
    <div style="" display: block;  position: relative;"">
    <svg width=1536 height=864>
    
    <circle cx=705 cy=432 r=12.146090767314996 stroke=""black"" stroke-width=""1"" fill=""black"" />
    <circle cx=913.06 cy=432 r=17.351558239021426 stroke=""black"" stroke-width=""1.5"" fill=""none"" />
    <circle cx=1014.6670623591284 cy=432 r=17.351558239021426 stroke=""black"" stroke-width=""1.5"" fill=""none"" />
    <circle cx=913.06 cy=533.6070623591285 r=17.351558239021426 stroke=""black"" stroke-width=""1.5"" fill=""none"" />
    <circle cx=811.4529376408715 cy=432 r=17.351558239021426 stroke=""black"" stroke-width=""1.5"" fill=""none"" />
    <circle cx=913.06 cy=330.39293764087154 r=17.351558239021426 stroke=""black"" stroke-width=""1.5"" fill=""none"" />
    <polygon points = ""913.06,432 917.9409065748455,414.6484417609786 908.1790934251544,414.6484417609786"" stroke=""white"" stroke-width=""3"" fill = ""white"" />
    
    </svg>
    </div>
        ","","","","","","","","","","","","stimulus","","","","","","","","","","","","","","","","",""
"html-keyboard-response","42","200301","0.0-42.0","274.29999999981374","arrowup","","
    <div style="" display: block;  position: relative;"">
    
    <svg width=1536 height=864>
    <circle cx=705 cy=432 r=12.146090767314996 stroke=""black"" stroke-width=""1"" fill=""black"" />
    <circle cx=1014.6670623591284 cy=432 r=17.351558239021426 stroke=""none"" stroke-width=""1.5"" fill=""none"" />
    <circle cx=913.06 cy=533.6070623591285 r=17.351558239021426 stroke=""none"" stroke-width=""1.5"" fill=""none"" />
    <circle cx=811.4529376408715 cy=432 r=17.351558239021426 stroke=""none"" stroke-width=""1.5"" fill=""none"" />
    <circle cx=913.06 cy=330.39293764087154 r=17.351558239021426 stroke=""none"" stroke-width=""1.5"" fill=""none"" />
    <polygon points = ""913.06,432 917.9409065748455,414.6484417609786 908.1790934251544,414.6484417609786"" stroke=""none"" stroke-width=""3"" fill = ""none"" />
    
    </svg>
    </div>
        ","","","","","","","","","","","","get_response","true","za2VCr3B7NeKMV89","","","false","true","false","208.06","6","561.826","101.60706235912845","2.92","1","0","","",""
"html-keyboard-response","43","200809","0.0-43.0","null","null","","
    <div style="" display: block;  position: relative;"">
    
    <svg width=1536 height=864>
    <circle cx=705 cy=432 r=12.146090767314996 stroke=""black"" stroke-width=""1"" fill=""black"" />
    <circle cx=1014.6670623591284 cy=432 r=17.351558239021426 stroke=""none"" stroke-width=""1.5"" fill=""none"" />
    <circle cx=913.06 cy=533.6070623591285 r=17.351558239021426 stroke=""none"" stroke-width=""1.5"" fill=""none"" />
    <circle cx=811.4529376408715 cy=432 r=17.351558239021426 stroke=""none"" stroke-width=""1.5"" fill=""none"" />
    <circle cx=913.06 cy=330.39293764087154 r=17.351558239021426 stroke=""none"" stroke-width=""1.5"" fill=""none"" />
    <polygon points = ""913.06,432 917.9409065748455,414.6484417609786 908.1790934251544,414.6484417609786"" stroke=""none"" stroke-width=""3"" fill = ""none"" />
    
    </svg>
    </div>
        ","","","","","","","","","","","","","","","","","","","","","","","","","","","","",""
"html-keyboard-response","44","200964","0.0-44.0","null","null","","
    <div style="" display: block;  position: relative;"">
    <svg width=1536 height=864>
    
    <circle cx=705 cy=432 r=12.146090767314996 stroke=""black"" stroke-width=""1"" fill=""black"" />
    <circle cx=913.06 cy=432 r=17.351558239021426 stroke=""black"" stroke-width=""1.5"" fill=""none"" />
    <circle cx=1005.4300566901168 cy=432 r=17.351558239021426 stroke=""black"" stroke-width=""1.5"" fill=""none"" />
    <circle cx=913.06 cy=524.3700566901168 r=17.351558239021426 stroke=""black"" stroke-width=""1.5"" fill=""none"" />
    <circle cx=820.6899433098831 cy=432 r=17.351558239021426 stroke=""black"" stroke-width=""1.5"" fill=""none"" />
    <circle cx=913.06 cy=339.62994330988323 r=17.351558239021426 stroke=""black"" stroke-width=""1.5"" fill=""none"" />
    <polygon points = ""913.06,432 917.9409065748455,449.3515582390214 908.1790934251544,449.3515582390214"" stroke=""white"" stroke-width=""3"" fill = ""white"" />
    
    </svg>
    </div>
        ","","","","","","","","","","","","stimulus","","","","","","","","","","","","","","","","",""
"html-keyboard-response","45","201236","0.0-45.0","269.5","arrowdown","","
    <div style="" display: block;  position: relative;"">
    
    <svg width=1536 height=864>
    <circle cx=705 cy=432 r=12.146090767314996 stroke=""black"" stroke-width=""1"" fill=""black"" />
    <circle cx=1005.4300566901168 cy=432 r=17.351558239021426 stroke=""none"" stroke-width=""1.5"" fill=""none"" />
    <circle cx=913.06 cy=524.3700566901168 r=17.351558239021426 stroke=""none"" stroke-width=""1.5"" fill=""none"" />
    <circle cx=820.6899433098831 cy=432 r=17.351558239021426 stroke=""none"" stroke-width=""1.5"" fill=""none"" />
    <circle cx=913.06 cy=339.62994330988323 r=17.351558239021426 stroke=""none"" stroke-width=""1.5"" fill=""none"" />
    <polygon points = ""913.06,432 917.9409065748455,449.3515582390214 908.1790934251544,449.3515582390214"" stroke=""none"" stroke-width=""3"" fill = ""none"" />
    
    </svg>
    </div>
        ","","","","","","","","","","","","get_response","true","za2VCr3B7NeKMV89","","","false","false","false","208.06","6","561.826","92.37005669011677","2.66","1","0","","",""
"html-keyboard-response","46","201748","0.0-46.0","null","null","","
    <div style="" display: block;  position: relative;"">
    
    <svg width=1536 height=864>
    <circle cx=705 cy=432 r=12.146090767314996 stroke=""black"" stroke-width=""1"" fill=""black"" />
    <circle cx=1005.4300566901168 cy=432 r=17.351558239021426 stroke=""none"" stroke-width=""1.5"" fill=""none"" />
    <circle cx=913.06 cy=524.3700566901168 r=17.351558239021426 stroke=""none"" stroke-width=""1.5"" fill=""none"" />
    <circle cx=820.6899433098831 cy=432 r=17.351558239021426 stroke=""none"" stroke-width=""1.5"" fill=""none"" />
    <circle cx=913.06 cy=339.62994330988323 r=17.351558239021426 stroke=""none"" stroke-width=""1.5"" fill=""none"" />
    <polygon points = ""913.06,432 917.9409065748455,449.3515582390214 908.1790934251544,449.3515582390214"" stroke=""none"" stroke-width=""3"" fill = ""none"" />
    
    </svg>
    </div>
        ","","","","","","","","","","","","","","","","","","","","","","","","","","","","",""
"html-keyboard-response","47","201899","0.0-47.0","null","null","","
    <div style="" display: block;  position: relative;"">
    <svg width=1536 height=864>
    
    <circle cx=705 cy=432 r=12.146090767314996 stroke=""black"" stroke-width=""1"" fill=""black"" />
    <circle cx=913.06 cy=432 r=17.351558239021426 stroke=""black"" stroke-width=""1.5"" fill=""none"" />
    <circle cx=997.032778809197 cy=432 r=17.351558239021426 stroke=""black"" stroke-width=""1.5"" fill=""none"" />
    <circle cx=913.06 cy=515.972778809197 r=17.351558239021426 stroke=""black"" stroke-width=""1.5"" fill=""none"" />
    <circle cx=829.0872211908029 cy=432 r=17.351558239021426 stroke=""black"" stroke-width=""1.5"" fill=""none"" />
    <circle cx=913.06 cy=348.02722119080295 r=17.351558239021426 stroke=""black"" stroke-width=""1.5"" fill=""none"" />
    <polygon points = ""913.06,432 917.9409065748455,449.3515582390214 908.1790934251544,449.3515582390214"" stroke=""white"" stroke-width=""3"" fill = ""white"" />
    
    </svg>
    </div>
        ","","","","","","","","","","","","stimulus","","","","","","","","","","","","","","","","",""
"html-keyboard-response","48","202152","0.0-48.0","250.1999999997206","arrowdown","","
    <div style="" display: block;  position: relative;"">
    
    <svg width=1536 height=864>
    <circle cx=705 cy=432 r=12.146090767314996 stroke=""black"" stroke-width=""1"" fill=""black"" />
    <circle cx=997.032778809197 cy=432 r=17.351558239021426 stroke=""none"" stroke-width=""1.5"" fill=""none"" />
    <circle cx=913.06 cy=515.972778809197 r=17.351558239021426 stroke=""none"" stroke-width=""1.5"" fill=""none"" />
    <circle cx=829.0872211908029 cy=432 r=17.351558239021426 stroke=""none"" stroke-width=""1.5"" fill=""none"" />
    <circle cx=913.06 cy=348.02722119080295 r=17.351558239021426 stroke=""none"" stroke-width=""1.5"" fill=""none"" />
    <polygon points = ""913.06,432 917.9409065748455,449.3515582390214 908.1790934251544,449.3515582390214"" stroke=""none"" stroke-width=""3"" fill = ""none"" />
    
    </svg>
    </div>
        ","","","","","","","","","","","","get_response","true","za2VCr3B7NeKMV89","","","false","false","false","208.06","6","561.826","83.97277880919705","2.41","1","0","","",""
"html-keyboard-response","49","202657","0.0-49.0","null","null","","
    <div style="" display: block;  position: relative;"">
    
    <svg width=1536 height=864>
    <circle cx=705 cy=432 r=12.146090767314996 stroke=""black"" stroke-width=""1"" fill=""black"" />
    <circle cx=997.032778809197 cy=432 r=17.351558239021426 stroke=""none"" stroke-width=""1.5"" fill=""none"" />
    <circle cx=913.06 cy=515.972778809197 r=17.351558239021426 stroke=""none"" stroke-width=""1.5"" fill=""none"" />
    <circle cx=829.0872211908029 cy=432 r=17.351558239021426 stroke=""none"" stroke-width=""1.5"" fill=""none"" />
    <circle cx=913.06 cy=348.02722119080295 r=17.351558239021426 stroke=""none"" stroke-width=""1.5"" fill=""none"" />
    <polygon points = ""913.06,432 917.9409065748455,449.3515582390214 908.1790934251544,449.3515582390214"" stroke=""none"" stroke-width=""3"" fill = ""none"" />
    
    </svg>
    </div>
        ","","","","","","","","","","","","","","","","","","","","","","","","","","","","",""
"html-keyboard-response","50","202825","0.0-50.0","null","null","","
    <div style="" display: block;  position: relative;"">
    <svg width=1536 height=864>
    
    <circle cx=705 cy=432 r=12.146090767314996 stroke=""black"" stroke-width=""1"" fill=""black"" />
    <circle cx=913.06 cy=432 r=17.351558239021426 stroke=""black"" stroke-width=""1.5"" fill=""none"" />
    <circle cx=989.3988898265427 cy=432 r=17.351558239021426 stroke=""black"" stroke-width=""1.5"" fill=""none"" />
    <circle cx=913.06 cy=508.33888982654275 r=17.351558239021426 stroke=""black"" stroke-width=""1.5"" fill=""none"" />
    <circle cx=836.7211101734572 cy=432 r=17.351558239021426 stroke=""black"" stroke-width=""1.5"" fill=""none"" />
    <circle cx=913.06 cy=355.66111017345725 r=17.351558239021426 stroke=""black"" stroke-width=""1.5"" fill=""none"" />
    <polygon points = ""913.06,432 917.9409065748455,449.3515582390214 908.1790934251544,449.3515582390214"" stroke=""white"" stroke-width=""3"" fill = ""white"" />
    
    </svg>
    </div>
        ","","","","","","","","","","","","stimulus","","","","","","","","","","","","","","","","",""
"html-keyboard-response","51","203168","0.0-51.0","341.8000000002794","arrowdown","","
    <div style="" display: block;  position: relative;"">
    
    <svg width=1536 height=864>
    <circle cx=705 cy=432 r=12.146090767314996 stroke=""black"" stroke-width=""1"" fill=""black"" />
    <circle cx=989.3988898265427 cy=432 r=17.351558239021426 stroke=""none"" stroke-width=""1.5"" fill=""none"" />
    <circle cx=913.06 cy=508.33888982654275 r=17.351558239021426 stroke=""none"" stroke-width=""1.5"" fill=""none"" />
    <circle cx=836.7211101734572 cy=432 r=17.351558239021426 stroke=""none"" stroke-width=""1.5"" fill=""none"" />
    <circle cx=913.06 cy=355.66111017345725 r=17.351558239021426 stroke=""none"" stroke-width=""1.5"" fill=""none"" />
    <polygon points = ""913.06,432 917.9409065748455,449.3515582390214 908.1790934251544,449.3515582390214"" stroke=""none"" stroke-width=""3"" fill = ""none"" />
    
    </svg>
    </div>
        ","","","","","","","","","","","","get_response","true","za2VCr3B7NeKMV89","","","false","false","false","208.06","6","561.826","76.33888982654277","2.19","1","0","","",""
"html-keyboard-response","52","203672","0.0-52.0","null","null","","
    <div style="" display: block;  position: relative;"">
    
    <svg width=1536 height=864>
    <circle cx=705 cy=432 r=12.146090767314996 stroke=""black"" stroke-width=""1"" fill=""black"" />
    <circle cx=989.3988898265427 cy=432 r=17.351558239021426 stroke=""none"" stroke-width=""1.5"" fill=""none"" />
    <circle cx=913.06 cy=508.33888982654275 r=17.351558239021426 stroke=""none"" stroke-width=""1.5"" fill=""none"" />
    <circle cx=836.7211101734572 cy=432 r=17.351558239021426 stroke=""none"" stroke-width=""1.5"" fill=""none"" />
    <circle cx=913.06 cy=355.66111017345725 r=17.351558239021426 stroke=""none"" stroke-width=""1.5"" fill=""none"" />
    <polygon points = ""913.06,432 917.9409065748455,449.3515582390214 908.1790934251544,449.3515582390214"" stroke=""none"" stroke-width=""3"" fill = ""none"" />
    
    </svg>
    </div>
        ","","","","","","","","","","","","","","","","","","","","","","","","","","","","",""
"html-keyboard-response","53","203826","0.0-53.0","null","null","","
    <div style="" display: block;  position: relative;"">
    <svg width=1536 height=864>
    
    <circle cx=705 cy=432 r=12.146090767314996 stroke=""black"" stroke-width=""1"" fill=""black"" />
    <circle cx=913.06 cy=432 r=17.351558239021426 stroke=""black"" stroke-width=""1.5"" fill=""none"" />
    <circle cx=982.4589907514024 cy=432 r=17.351558239021426 stroke=""black"" stroke-width=""1.5"" fill=""none"" />
    <circle cx=913.06 cy=501.3989907514025 r=17.351558239021426 stroke=""black"" stroke-width=""1.5"" fill=""none"" />
    <circle cx=843.6610092485975 cy=432 r=17.351558239021426 stroke=""black"" stroke-width=""1.5"" fill=""none"" />
    <circle cx=913.06 cy=362.6010092485975 r=17.351558239021426 stroke=""black"" stroke-width=""1.5"" fill=""none"" />
    <polygon points = ""913.06,432 917.9409065748455,414.6484417609786 908.1790934251544,414.6484417609786"" stroke=""white"" stroke-width=""3"" fill = ""white"" />
    
    </svg>
    </div>
        ","","","","","","","","","","","","stimulus","","","","","","","","","","","","","","","","",""
"html-keyboard-response","54","204163","0.0-54.0","334.29999999981374","arrowup","","
    <div style="" display: block;  position: relative;"">
    
    <svg width=1536 height=864>
    <circle cx=705 cy=432 r=12.146090767314996 stroke=""black"" stroke-width=""1"" fill=""black"" />
    <circle cx=982.4589907514024 cy=432 r=17.351558239021426 stroke=""none"" stroke-width=""1.5"" fill=""none"" />
    <circle cx=913.06 cy=501.3989907514025 r=17.351558239021426 stroke=""none"" stroke-width=""1.5"" fill=""none"" />
    <circle cx=843.6610092485975 cy=432 r=17.351558239021426 stroke=""none"" stroke-width=""1.5"" fill=""none"" />
    <circle cx=913.06 cy=362.6010092485975 r=17.351558239021426 stroke=""none"" stroke-width=""1.5"" fill=""none"" />
    <polygon points = ""913.06,432 917.9409065748455,414.6484417609786 908.1790934251544,414.6484417609786"" stroke=""none"" stroke-width=""3"" fill = ""none"" />
    
    </svg>
    </div>
        ","","","","","","","","","","","","get_response","true","za2VCr3B7NeKMV89","","","false","true","false","208.06","6","561.826","69.39899075140251","1.99","1","0","","",""
"html-keyboard-response","55","204674","0.0-55.0","null","null","","
    <div style="" display: block;  position: relative;"">
    
    <svg width=1536 height=864>
    <circle cx=705 cy=432 r=12.146090767314996 stroke=""black"" stroke-width=""1"" fill=""black"" />
    <circle cx=982.4589907514024 cy=432 r=17.351558239021426 stroke=""none"" stroke-width=""1.5"" fill=""none"" />
    <circle cx=913.06 cy=501.3989907514025 r=17.351558239021426 stroke=""none"" stroke-width=""1.5"" fill=""none"" />
    <circle cx=843.6610092485975 cy=432 r=17.351558239021426 stroke=""none"" stroke-width=""1.5"" fill=""none"" />
    <circle cx=913.06 cy=362.6010092485975 r=17.351558239021426 stroke=""none"" stroke-width=""1.5"" fill=""none"" />
    <polygon points = ""913.06,432 917.9409065748455,414.6484417609786 908.1790934251544,414.6484417609786"" stroke=""none"" stroke-width=""3"" fill = ""none"" />
    
    </svg>
    </div>
        ","","","","","","","","","","","","","","","","","","","","","","","","","","","","",""
"html-keyboard-response","56","204825","0.0-56.0","null","null","","
    <div style="" display: block;  position: relative;"">
    <svg width=1536 height=864>
    
    <circle cx=705 cy=432 r=12.146090767314996 stroke=""black"" stroke-width=""1"" fill=""black"" />
    <circle cx=913.06 cy=432 r=17.351558239021426 stroke=""black"" stroke-width=""1.5"" fill=""none"" />
    <circle cx=976.149991592184 cy=432 r=17.351558239021426 stroke=""black"" stroke-width=""1.5"" fill=""none"" />
    <circle cx=913.06 cy=495.0899915921841 r=17.351558239021426 stroke=""black"" stroke-width=""1.5"" fill=""none"" />
    <circle cx=849.9700084078158 cy=432 r=17.351558239021426 stroke=""black"" stroke-width=""1.5"" fill=""none"" />
    <circle cx=913.06 cy=368.9100084078159 r=17.351558239021426 stroke=""black"" stroke-width=""1.5"" fill=""none"" />
    <polygon points = ""913.06,432 917.9409065748455,414.6484417609786 908.1790934251544,414.6484417609786"" stroke=""white"" stroke-width=""3"" fill = ""white"" />
    
    </svg>
    </div>
        ","","","","","","","","","","","","stimulus","","","","","","","","","","","","","","","","",""
"html-keyboard-response","57","205087","0.0-57.0","260.29999999981374","arrowup","","
    <div style="" display: block;  position: relative;"">
    
    <svg width=1536 height=864>
    <circle cx=705 cy=432 r=12.146090767314996 stroke=""black"" stroke-width=""1"" fill=""black"" />
    <circle cx=976.149991592184 cy=432 r=17.351558239021426 stroke=""none"" stroke-width=""1.5"" fill=""none"" />
    <circle cx=913.06 cy=495.0899915921841 r=17.351558239021426 stroke=""none"" stroke-width=""1.5"" fill=""none"" />
    <circle cx=849.9700084078158 cy=432 r=17.351558239021426 stroke=""none"" stroke-width=""1.5"" fill=""none"" />
    <circle cx=913.06 cy=368.9100084078159 r=17.351558239021426 stroke=""none"" stroke-width=""1.5"" fill=""none"" />
    <polygon points = ""913.06,432 917.9409065748455,414.6484417609786 908.1790934251544,414.6484417609786"" stroke=""none"" stroke-width=""3"" fill = ""none"" />
    
    </svg>
    </div>
        ","","","","","","","","","","","","get_response","true","za2VCr3B7NeKMV89","","","false","true","false","208.06","6","561.826","63.08999159218409","1.81","1","0","","",""
"html-keyboard-response","58","205601","0.0-58.0","null","null","","
    <div style="" display: block;  position: relative;"">
    
    <svg width=1536 height=864>
    <circle cx=705 cy=432 r=12.146090767314996 stroke=""black"" stroke-width=""1"" fill=""black"" />
    <circle cx=976.149991592184 cy=432 r=17.351558239021426 stroke=""none"" stroke-width=""1.5"" fill=""none"" />
    <circle cx=913.06 cy=495.0899915921841 r=17.351558239021426 stroke=""none"" stroke-width=""1.5"" fill=""none"" />
    <circle cx=849.9700084078158 cy=432 r=17.351558239021426 stroke=""none"" stroke-width=""1.5"" fill=""none"" />
    <circle cx=913.06 cy=368.9100084078159 r=17.351558239021426 stroke=""none"" stroke-width=""1.5"" fill=""none"" />
    <polygon points = ""913.06,432 917.9409065748455,414.6484417609786 908.1790934251544,414.6484417609786"" stroke=""none"" stroke-width=""3"" fill = ""none"" />
    
    </svg>
    </div>
        ","","","","","","","","","","","","","","","","","","","","","","","","","","","","",""
"html-keyboard-response","59","205755","0.0-59.0","null","null","","
    <div style="" display: block;  position: relative;"">
    <svg width=1536 height=864>
    
    <circle cx=705 cy=432 r=12.146090767314996 stroke=""black"" stroke-width=""1"" fill=""black"" />
    <circle cx=496.94 cy=432 r=17.351558239021426 stroke=""black"" stroke-width=""1.5"" fill=""none"" />
    <circle cx=554.2945378110765 cy=432 r=17.351558239021426 stroke=""black"" stroke-width=""1.5"" fill=""none"" />
    <circle cx=496.94 cy=489.35453781107645 r=17.351558239021426 stroke=""black"" stroke-width=""1.5"" fill=""none"" />
    <circle cx=439.58546218892354 cy=432 r=17.351558239021426 stroke=""black"" stroke-width=""1.5"" fill=""none"" />
    <circle cx=496.94 cy=374.64546218892355 r=17.351558239021426 stroke=""black"" stroke-width=""1.5"" fill=""none"" />
    <polygon points = ""496.94,432 501.82090657484554,414.6484417609786 492.05909342515446,414.6484417609786"" stroke=""white"" stroke-width=""3"" fill = ""white"" />
    
    </svg>
    </div>
        ","","","","","","","","","","","","stimulus","","","","","","","","","","","","","","","","",""
"html-keyboard-response","60","206136","0.0-60.0","379.79999999981374","arrowup","","
    <div style="" display: block;  position: relative;"">
    
    <svg width=1536 height=864>
    <circle cx=705 cy=432 r=12.146090767314996 stroke=""black"" stroke-width=""1"" fill=""black"" />
    <circle cx=554.2945378110765 cy=432 r=17.351558239021426 stroke=""none"" stroke-width=""1.5"" fill=""none"" />
    <circle cx=496.94 cy=489.35453781107645 r=17.351558239021426 stroke=""none"" stroke-width=""1.5"" fill=""none"" />
    <circle cx=439.58546218892354 cy=432 r=17.351558239021426 stroke=""none"" stroke-width=""1.5"" fill=""none"" />
    <circle cx=496.94 cy=374.64546218892355 r=17.351558239021426 stroke=""none"" stroke-width=""1.5"" fill=""none"" />
    <polygon points = ""496.94,432 501.82090657484554,414.6484417609786 492.05909342515446,414.6484417609786"" stroke=""none"" stroke-width=""3"" fill = ""none"" />
    
    </svg>
    </div>
        ","","","","","","","","","","","","get_response","true","za2VCr3B7NeKMV89","","","true","true","false","208.06","6","561.826","57.35453781107644","1.65","1","0","","",""
"html-keyboard-response","61","206651","0.0-61.0","null","null","","
    <div style="" display: block;  position: relative;"">
    
    <svg width=1536 height=864>
    <circle cx=705 cy=432 r=12.146090767314996 stroke=""black"" stroke-width=""1"" fill=""black"" />
    <circle cx=554.2945378110765 cy=432 r=17.351558239021426 stroke=""none"" stroke-width=""1.5"" fill=""none"" />
    <circle cx=496.94 cy=489.35453781107645 r=17.351558239021426 stroke=""none"" stroke-width=""1.5"" fill=""none"" />
    <circle cx=439.58546218892354 cy=432 r=17.351558239021426 stroke=""none"" stroke-width=""1.5"" fill=""none"" />
    <circle cx=496.94 cy=374.64546218892355 r=17.351558239021426 stroke=""none"" stroke-width=""1.5"" fill=""none"" />
    <polygon points = ""496.94,432 501.82090657484554,414.6484417609786 492.05909342515446,414.6484417609786"" stroke=""none"" stroke-width=""3"" fill = ""none"" />
    
    </svg>
    </div>
        ","","","","","","","","","","","","","","","","","","","","","","","","","","","","",""
"html-keyboard-response","62","206804","0.0-62.0","null","null","","
    <div style="" display: block;  position: relative;"">
    <svg width=1536 height=864>
    
    <circle cx=705 cy=432 r=12.146090767314996 stroke=""black"" stroke-width=""1"" fill=""black"" />
    <circle cx=913.06 cy=432 r=17.351558239021426 stroke=""black"" stroke-width=""1.5"" fill=""none"" />
    <circle cx=965.2004889191603 cy=432 r=17.351558239021426 stroke=""black"" stroke-width=""1.5"" fill=""none"" />
    <circle cx=913.06 cy=484.1404889191604 r=17.351558239021426 stroke=""black"" stroke-width=""1.5"" fill=""none"" />
    <circle cx=860.9195110808396 cy=432 r=17.351558239021426 stroke=""black"" stroke-width=""1.5"" fill=""none"" />
    <circle cx=913.06 cy=379.8595110808396 r=17.351558239021426 stroke=""black"" stroke-width=""1.5"" fill=""none"" />
    <polygon points = ""913.06,432 917.9409065748455,449.3515582390214 908.1790934251544,449.3515582390214"" stroke=""white"" stroke-width=""3"" fill = ""white"" />
    
    </svg>
    </div>
        ","","","","","","","","","","","","stimulus","","","","","","","","","","","","","","","","",""
"html-keyboard-response","63","207050","0.0-63.0","244.6999999997206","arrowdown","","
    <div style="" display: block;  position: relative;"">
    
    <svg width=1536 height=864>
    <circle cx=705 cy=432 r=12.146090767314996 stroke=""black"" stroke-width=""1"" fill=""black"" />
    <circle cx=965.2004889191603 cy=432 r=17.351558239021426 stroke=""none"" stroke-width=""1.5"" fill=""none"" />
    <circle cx=913.06 cy=484.1404889191604 r=17.351558239021426 stroke=""none"" stroke-width=""1.5"" fill=""none"" />
    <circle cx=860.9195110808396 cy=432 r=17.351558239021426 stroke=""none"" stroke-width=""1.5"" fill=""none"" />
    <circle cx=913.06 cy=379.8595110808396 r=17.351558239021426 stroke=""none"" stroke-width=""1.5"" fill=""none"" />
    <polygon points = ""913.06,432 917.9409065748455,449.3515582390214 908.1790934251544,449.3515582390214"" stroke=""none"" stroke-width=""3"" fill = ""none"" />
    
    </svg>
    </div>
        ","","","","","","","","","","","","get_response","true","za2VCr3B7NeKMV89","","","false","false","false","208.06","6","561.826","52.1404889191604","1.5","1","0","","",""
"html-keyboard-response","64","207560","0.0-64.0","null","null","","
    <div style="" display: block;  position: relative;"">
    
    <svg width=1536 height=864>
    <circle cx=705 cy=432 r=12.146090767314996 stroke=""black"" stroke-width=""1"" fill=""black"" />
    <circle cx=965.2004889191603 cy=432 r=17.351558239021426 stroke=""none"" stroke-width=""1.5"" fill=""none"" />
    <circle cx=913.06 cy=484.1404889191604 r=17.351558239021426 stroke=""none"" stroke-width=""1.5"" fill=""none"" />
    <circle cx=860.9195110808396 cy=432 r=17.351558239021426 stroke=""none"" stroke-width=""1.5"" fill=""none"" />
    <circle cx=913.06 cy=379.8595110808396 r=17.351558239021426 stroke=""none"" stroke-width=""1.5"" fill=""none"" />
    <polygon points = ""913.06,432 917.9409065748455,449.3515582390214 908.1790934251544,449.3515582390214"" stroke=""none"" stroke-width=""3"" fill = ""none"" />
    
    </svg>
    </div>
        ","","","","","","","","","","","","","","","","","","","","","","","","","","","","",""
"html-keyboard-response","65","207713","0.0-65.0","null","null","","
    <div style="" display: block;  position: relative;"">
    <svg width=1536 height=864>
    
    <circle cx=705 cy=432 r=12.146090767314996 stroke=""black"" stroke-width=""1"" fill=""black"" />
    <circle cx=913.06 cy=432 r=17.351558239021426 stroke=""black"" stroke-width=""1.5"" fill=""none"" />
    <circle cx=960.4604444719639 cy=432 r=17.351558239021426 stroke=""black"" stroke-width=""1.5"" fill=""none"" />
    <circle cx=913.06 cy=479.40044447196397 r=17.351558239021426 stroke=""black"" stroke-width=""1.5"" fill=""none"" />
    <circle cx=865.659555528036 cy=432 r=17.351558239021426 stroke=""black"" stroke-width=""1.5"" fill=""none"" />
    <circle cx=913.06 cy=384.59955552803603 r=17.351558239021426 stroke=""black"" stroke-width=""1.5"" fill=""none"" />
    <polygon points = ""913.06,432 917.9409065748455,449.3515582390214 908.1790934251544,449.3515582390214"" stroke=""white"" stroke-width=""3"" fill = ""white"" />
    
    </svg>
    </div>
        ","","","","","","","","","","","","stimulus","","","","","","","","","","","","","","","","",""
"html-keyboard-response","66","207980","0.0-66.0","264.29999999981374","arrowdown","","
    <div style="" display: block;  position: relative;"">
    
    <svg width=1536 height=864>
    <circle cx=705 cy=432 r=12.146090767314996 stroke=""black"" stroke-width=""1"" fill=""black"" />
    <circle cx=960.4604444719639 cy=432 r=17.351558239021426 stroke=""none"" stroke-width=""1.5"" fill=""none"" />
    <circle cx=913.06 cy=479.40044447196397 r=17.351558239021426 stroke=""none"" stroke-width=""1.5"" fill=""none"" />
    <circle cx=865.659555528036 cy=432 r=17.351558239021426 stroke=""none"" stroke-width=""1.5"" fill=""none"" />
    <circle cx=913.06 cy=384.59955552803603 r=17.351558239021426 stroke=""none"" stroke-width=""1.5"" fill=""none"" />
    <polygon points = ""913.06,432 917.9409065748455,449.3515582390214 908.1790934251544,449.3515582390214"" stroke=""none"" stroke-width=""3"" fill = ""none"" />
    
    </svg>
    </div>
        ","","","","","","","","","","","","get_response","true","za2VCr3B7NeKMV89","","","false","false","false","208.06","6","561.826","47.40044447196399","1.36","1","0","","",""
"html-keyboard-response","67","208483","0.0-67.0","null","null","","
    <div style="" display: block;  position: relative;"">
    
    <svg width=1536 height=864>
    <circle cx=705 cy=432 r=12.146090767314996 stroke=""black"" stroke-width=""1"" fill=""black"" />
    <circle cx=960.4604444719639 cy=432 r=17.351558239021426 stroke=""none"" stroke-width=""1.5"" fill=""none"" />
    <circle cx=913.06 cy=479.40044447196397 r=17.351558239021426 stroke=""none"" stroke-width=""1.5"" fill=""none"" />
    <circle cx=865.659555528036 cy=432 r=17.351558239021426 stroke=""none"" stroke-width=""1.5"" fill=""none"" />
    <circle cx=913.06 cy=384.59955552803603 r=17.351558239021426 stroke=""none"" stroke-width=""1.5"" fill=""none"" />
    <polygon points = ""913.06,432 917.9409065748455,449.3515582390214 908.1790934251544,449.3515582390214"" stroke=""none"" stroke-width=""3"" fill = ""none"" />
    
    </svg>
    </div>
        ","","","","","","","","","","","","","","","","","","","","","","","","","","","","",""
"html-keyboard-response","68","208636","0.0-68.0","null","null","","
    <div style="" display: block;  position: relative;"">
    <svg width=1536 height=864>
    
    <circle cx=705 cy=432 r=12.146090767314996 stroke=""black"" stroke-width=""1"" fill=""black"" />
    <circle cx=913.06 cy=432 r=17.351558239021426 stroke=""black"" stroke-width=""1.5"" fill=""none"" />
    <circle cx=956.1513131563308 cy=432 r=17.351558239021426 stroke=""black"" stroke-width=""1.5"" fill=""none"" />
    <circle cx=913.06 cy=475.0913131563309 r=17.351558239021426 stroke=""black"" stroke-width=""1.5"" fill=""none"" />
    <circle cx=869.968686843669 cy=432 r=17.351558239021426 stroke=""black"" stroke-width=""1.5"" fill=""none"" />
    <circle cx=913.06 cy=388.9086868436691 r=17.351558239021426 stroke=""black"" stroke-width=""1.5"" fill=""none"" />
    <polygon points = ""913.06,432 917.9409065748455,449.3515582390214 908.1790934251544,449.3515582390214"" stroke=""white"" stroke-width=""3"" fill = ""white"" />
    
    </svg>
    </div>
        ","","","","","","","","","","","","stimulus","","","","","","","","","","","","","","","","",""
"html-keyboard-response","69","208889","0.0-69.0","250.60000000009313","arrowdown","","
    <div style="" display: block;  position: relative;"">
    
    <svg width=1536 height=864>
    <circle cx=705 cy=432 r=12.146090767314996 stroke=""black"" stroke-width=""1"" fill=""black"" />
    <circle cx=956.1513131563308 cy=432 r=17.351558239021426 stroke=""none"" stroke-width=""1.5"" fill=""none"" />
    <circle cx=913.06 cy=475.0913131563309 r=17.351558239021426 stroke=""none"" stroke-width=""1.5"" fill=""none"" />
    <circle cx=869.968686843669 cy=432 r=17.351558239021426 stroke=""none"" stroke-width=""1.5"" fill=""none"" />
    <circle cx=913.06 cy=388.9086868436691 r=17.351558239021426 stroke=""none"" stroke-width=""1.5"" fill=""none"" />
    <polygon points = ""913.06,432 917.9409065748455,449.3515582390214 908.1790934251544,449.3515582390214"" stroke=""none"" stroke-width=""3"" fill = ""none"" />
    
    </svg>
    </div>
        ","","","","","","","","","","","","get_response","true","za2VCr3B7NeKMV89","","","false","false","false","208.06","6","561.826","43.0913131563309","1.24","1","0","","",""
"html-keyboard-response","70","209405","0.0-70.0","null","null","","
    <div style="" display: block;  position: relative;"">
    
    <svg width=1536 height=864>
    <circle cx=705 cy=432 r=12.146090767314996 stroke=""black"" stroke-width=""1"" fill=""black"" />
    <circle cx=956.1513131563308 cy=432 r=17.351558239021426 stroke=""none"" stroke-width=""1.5"" fill=""none"" />
    <circle cx=913.06 cy=475.0913131563309 r=17.351558239021426 stroke=""none"" stroke-width=""1.5"" fill=""none"" />
    <circle cx=869.968686843669 cy=432 r=17.351558239021426 stroke=""none"" stroke-width=""1.5"" fill=""none"" />
    <circle cx=913.06 cy=388.9086868436691 r=17.351558239021426 stroke=""none"" stroke-width=""1.5"" fill=""none"" />
    <polygon points = ""913.06,432 917.9409065748455,449.3515582390214 908.1790934251544,449.3515582390214"" stroke=""none"" stroke-width=""3"" fill = ""none"" />
    
    </svg>
    </div>
        ","","","","","","","","","","","","","","","","","","","","","","","","","","","","",""
"html-keyboard-response","71","209559","0.0-71.0","null","null","","
    <div style="" display: block;  position: relative;"">
    <svg width=1536 height=864>
    
    <circle cx=705 cy=432 r=12.146090767314996 stroke=""black"" stroke-width=""1"" fill=""black"" />
    <circle cx=913.06 cy=432 r=17.351558239021426 stroke=""black"" stroke-width=""1.5"" fill=""none"" />
    <circle cx=952.2339210512098 cy=432 r=17.351558239021426 stroke=""black"" stroke-width=""1.5"" fill=""none"" />
    <circle cx=913.06 cy=471.1739210512099 r=17.351558239021426 stroke=""black"" stroke-width=""1.5"" fill=""none"" />
    <circle cx=873.8860789487901 cy=432 r=17.351558239021426 stroke=""black"" stroke-width=""1.5"" fill=""none"" />
    <circle cx=913.06 cy=392.8260789487901 r=17.351558239021426 stroke=""black"" stroke-width=""1.5"" fill=""none"" />
    <polygon points = ""913.06,432 917.9409065748455,449.3515582390214 908.1790934251544,449.3515582390214"" stroke=""white"" stroke-width=""3"" fill = ""white"" />
    
    </svg>
    </div>
        ","","","","","","","","","","","","stimulus","","","","","","","","","","","","","","","","",""
"html-keyboard-response","72","209870","0.0-72.0","309.60000000009313","arrowdown","","
    <div style="" display: block;  position: relative;"">
    
    <svg width=1536 height=864>
    <circle cx=705 cy=432 r=12.146090767314996 stroke=""black"" stroke-width=""1"" fill=""black"" />
    <circle cx=952.2339210512098 cy=432 r=17.351558239021426 stroke=""none"" stroke-width=""1.5"" fill=""none"" />
    <circle cx=913.06 cy=471.1739210512099 r=17.351558239021426 stroke=""none"" stroke-width=""1.5"" fill=""none"" />
    <circle cx=873.8860789487901 cy=432 r=17.351558239021426 stroke=""none"" stroke-width=""1.5"" fill=""none"" />
    <circle cx=913.06 cy=392.8260789487901 r=17.351558239021426 stroke=""none"" stroke-width=""1.5"" fill=""none"" />
    <polygon points = ""913.06,432 917.9409065748455,449.3515582390214 908.1790934251544,449.3515582390214"" stroke=""none"" stroke-width=""3"" fill = ""none"" />
    
    </svg>
    </div>
        ","","","","","","","","","","","","get_response","true","za2VCr3B7NeKMV89","","","false","false","false","208.06","6","561.826","39.1739210512099","1.13","1","0","","",""
"html-keyboard-response","73","210374","0.0-73.0","null","null","","
    <div style="" display: block;  position: relative;"">
    
    <svg width=1536 height=864>
    <circle cx=705 cy=432 r=12.146090767314996 stroke=""black"" stroke-width=""1"" fill=""black"" />
    <circle cx=952.2339210512098 cy=432 r=17.351558239021426 stroke=""none"" stroke-width=""1.5"" fill=""none"" />
    <circle cx=913.06 cy=471.1739210512099 r=17.351558239021426 stroke=""none"" stroke-width=""1.5"" fill=""none"" />
    <circle cx=873.8860789487901 cy=432 r=17.351558239021426 stroke=""none"" stroke-width=""1.5"" fill=""none"" />
    <circle cx=913.06 cy=392.8260789487901 r=17.351558239021426 stroke=""none"" stroke-width=""1.5"" fill=""none"" />
    <polygon points = ""913.06,432 917.9409065748455,449.3515582390214 908.1790934251544,449.3515582390214"" stroke=""none"" stroke-width=""3"" fill = ""none"" />
    
    </svg>
    </div>
        ","","","","","","","","","","","","","","","","","","","","","","","","","","","","",""
"html-keyboard-response","74","210528","0.0-74.0","null","null","","
    <div style="" display: block;  position: relative;"">
    <svg width=1536 height=864>
    
    <circle cx=705 cy=432 r=12.146090767314996 stroke=""black"" stroke-width=""1"" fill=""black"" />
    <circle cx=496.94 cy=432 r=17.351558239021426 stroke=""black"" stroke-width=""1.5"" fill=""none"" />
    <circle cx=532.5526555010999 cy=432 r=17.351558239021426 stroke=""black"" stroke-width=""1.5"" fill=""none"" />
    <circle cx=496.94 cy=467.6126555010999 r=17.351558239021426 stroke=""black"" stroke-width=""1.5"" fill=""none"" />
    <circle cx=461.32734449890006 cy=432 r=17.351558239021426 stroke=""black"" stroke-width=""1.5"" fill=""none"" />
    <circle cx=496.94 cy=396.3873444989001 r=17.351558239021426 stroke=""black"" stroke-width=""1.5"" fill=""none"" />
    <polygon points = ""496.94,432 501.82090657484554,449.3515582390214 492.05909342515446,449.3515582390214"" stroke=""white"" stroke-width=""3"" fill = ""white"" />
    
    </svg>
    </div>
        ","","","","","","","","","","","","stimulus","","","","","","","","","","","","","","","","",""
"html-keyboard-response","75","212503","0.0-75.0","1973","arrowdown","","
    <div style="" display: block;  position: relative;"">
    
    <svg width=1536 height=864>
    <circle cx=705 cy=432 r=12.146090767314996 stroke=""black"" stroke-width=""1"" fill=""black"" />
    <circle cx=532.5526555010999 cy=432 r=17.351558239021426 stroke=""none"" stroke-width=""1.5"" fill=""none"" />
    <circle cx=496.94 cy=467.6126555010999 r=17.351558239021426 stroke=""none"" stroke-width=""1.5"" fill=""none"" />
    <circle cx=461.32734449890006 cy=432 r=17.351558239021426 stroke=""none"" stroke-width=""1.5"" fill=""none"" />
    <circle cx=496.94 cy=396.3873444989001 r=17.351558239021426 stroke=""none"" stroke-width=""1.5"" fill=""none"" />
    <polygon points = ""496.94,432 501.82090657484554,449.3515582390214 492.05909342515446,449.3515582390214"" stroke=""none"" stroke-width=""3"" fill = ""none"" />
    
    </svg>
    </div>
        ","","","","","","","","","","","","get_response","true","za2VCr3B7NeKMV89","","","true","false","false","208.06","6","561.826","35.61265550109991","1.02","1","0","","",""
"html-keyboard-response","76","213010","0.0-76.0","null","null","","
    <div style="" display: block;  position: relative;"">
    
    <svg width=1536 height=864>
    <circle cx=705 cy=432 r=12.146090767314996 stroke=""black"" stroke-width=""1"" fill=""black"" />
    <circle cx=532.5526555010999 cy=432 r=17.351558239021426 stroke=""none"" stroke-width=""1.5"" fill=""none"" />
    <circle cx=496.94 cy=467.6126555010999 r=17.351558239021426 stroke=""none"" stroke-width=""1.5"" fill=""none"" />
    <circle cx=461.32734449890006 cy=432 r=17.351558239021426 stroke=""none"" stroke-width=""1.5"" fill=""none"" />
    <circle cx=496.94 cy=396.3873444989001 r=17.351558239021426 stroke=""none"" stroke-width=""1.5"" fill=""none"" />
    <polygon points = ""496.94,432 501.82090657484554,449.3515582390214 492.05909342515446,449.3515582390214"" stroke=""none"" stroke-width=""3"" fill = ""none"" />
    
    </svg>
    </div>
        ","","","","","","","","","","","","","","","","","","","","","","","","","","","","",""
"html-keyboard-response","77","213163","0.0-77.0","null","null","","
    <div style="" display: block;  position: relative;"">
    <svg width=1536 height=864>
    
    <circle cx=705 cy=432 r=12.146090767314996 stroke=""black"" stroke-width=""1"" fill=""black"" />
    <circle cx=496.94 cy=432 r=17.351558239021426 stroke=""black"" stroke-width=""1.5"" fill=""none"" />
    <circle cx=531.6431164780429 cy=432 r=17.351558239021426 stroke=""black"" stroke-width=""1.5"" fill=""none"" />
    <circle cx=496.94 cy=466.70311647804283 r=17.351558239021426 stroke=""black"" stroke-width=""1.5"" fill=""none"" />
    <circle cx=462.23688352195717 cy=432 r=17.351558239021426 stroke=""black"" stroke-width=""1.5"" fill=""none"" />
    <circle cx=496.94 cy=397.29688352195717 r=17.351558239021426 stroke=""black"" stroke-width=""1.5"" fill=""none"" />
    <polygon points = ""496.94,432 501.82090657484554,414.6484417609786 492.05909342515446,414.6484417609786"" stroke=""white"" stroke-width=""3"" fill = ""white"" />
    
    </svg>
    </div>
        ","","","","","","","","","","","","stimulus","","","","","","","","","","","","","","","","",""
"html-keyboard-response","78","213544","0.0-78.0","378.10000000009313","arrowup","","
    <div style="" display: block;  position: relative;"">
    
    <svg width=1536 height=864>
    <circle cx=705 cy=432 r=12.146090767314996 stroke=""black"" stroke-width=""1"" fill=""black"" />
    <circle cx=531.6431164780429 cy=432 r=17.351558239021426 stroke=""none"" stroke-width=""1.5"" fill=""none"" />
    <circle cx=496.94 cy=466.70311647804283 r=17.351558239021426 stroke=""none"" stroke-width=""1.5"" fill=""none"" />
    <circle cx=462.23688352195717 cy=432 r=17.351558239021426 stroke=""none"" stroke-width=""1.5"" fill=""none"" />
    <circle cx=496.94 cy=397.29688352195717 r=17.351558239021426 stroke=""none"" stroke-width=""1.5"" fill=""none"" />
    <polygon points = ""496.94,432 501.82090657484554,414.6484417609786 492.05909342515446,414.6484417609786"" stroke=""none"" stroke-width=""3"" fill = ""none"" />
    
    </svg>
    </div>
        ","","","","","","","","","","","","get_response","true","za2VCr3B7NeKMV89","","","true","true","false","208.06","6","561.826","34.70311647804285","1","1","0","","",""
"html-keyboard-response","79","214055","0.0-79.0","null","null","","
    <div style="" display: block;  position: relative;"">
    
    <svg width=1536 height=864>
    <circle cx=705 cy=432 r=12.146090767314996 stroke=""black"" stroke-width=""1"" fill=""black"" />
    <circle cx=531.6431164780429 cy=432 r=17.351558239021426 stroke=""none"" stroke-width=""1.5"" fill=""none"" />
    <circle cx=496.94 cy=466.70311647804283 r=17.351558239021426 stroke=""none"" stroke-width=""1.5"" fill=""none"" />
    <circle cx=462.23688352195717 cy=432 r=17.351558239021426 stroke=""none"" stroke-width=""1.5"" fill=""none"" />
    <circle cx=496.94 cy=397.29688352195717 r=17.351558239021426 stroke=""none"" stroke-width=""1.5"" fill=""none"" />
    <polygon points = ""496.94,432 501.82090657484554,414.6484417609786 492.05909342515446,414.6484417609786"" stroke=""none"" stroke-width=""3"" fill = ""none"" />
    
    </svg>
    </div>
        ","","","","","","","","","","","","","","","","","","","","","","","","","","","","",""
"html-keyboard-response","80","214207","0.0-80.0","null","null","","
    <div style="" display: block;  position: relative;"">
    <svg width=1536 height=864>
    
    <circle cx=705 cy=432 r=12.146090767314996 stroke=""black"" stroke-width=""1"" fill=""black"" />
    <circle cx=496.94 cy=432 r=17.351558239021426 stroke=""black"" stroke-width=""1.5"" fill=""none"" />
    <circle cx=531.6431164780429 cy=432 r=17.351558239021426 stroke=""black"" stroke-width=""1.5"" fill=""none"" />
    <circle cx=496.94 cy=466.70311647804283 r=17.351558239021426 stroke=""black"" stroke-width=""1.5"" fill=""none"" />
    <circle cx=462.23688352195717 cy=432 r=17.351558239021426 stroke=""black"" stroke-width=""1.5"" fill=""none"" />
    <circle cx=496.94 cy=397.29688352195717 r=17.351558239021426 stroke=""black"" stroke-width=""1.5"" fill=""none"" />
    <polygon points = ""496.94,432 501.82090657484554,414.6484417609786 492.05909342515446,414.6484417609786"" stroke=""white"" stroke-width=""3"" fill = ""white"" />
    
    </svg>
    </div>
        ","","","","","","","","","","","","stimulus","","","","","","","","","","","","","","","","",""
"html-keyboard-response","81","214614","0.0-81.0","404.90000000037253","arrowup","","
    <div style="" display: block;  position: relative;"">
    
    <svg width=1536 height=864>
    <circle cx=705 cy=432 r=12.146090767314996 stroke=""black"" stroke-width=""1"" fill=""black"" />
    <circle cx=531.6431164780429 cy=432 r=17.351558239021426 stroke=""none"" stroke-width=""1.5"" fill=""none"" />
    <circle cx=496.94 cy=466.70311647804283 r=17.351558239021426 stroke=""none"" stroke-width=""1.5"" fill=""none"" />
    <circle cx=462.23688352195717 cy=432 r=17.351558239021426 stroke=""none"" stroke-width=""1.5"" fill=""none"" />
    <circle cx=496.94 cy=397.29688352195717 r=17.351558239021426 stroke=""none"" stroke-width=""1.5"" fill=""none"" />
    <polygon points = ""496.94,432 501.82090657484554,414.6484417609786 492.05909342515446,414.6484417609786"" stroke=""none"" stroke-width=""3"" fill = ""none"" />
    
    </svg>
    </div>
        ","","","","","","","","","","","","get_response","true","za2VCr3B7NeKMV89","","","true","true","false","208.06","6","561.826","34.70311647804285","1","1","0","","",""
"html-keyboard-response","82","215119","0.0-82.0","null","null","","
    <div style="" display: block;  position: relative;"">
    
    <svg width=1536 height=864>
    <circle cx=705 cy=432 r=12.146090767314996 stroke=""black"" stroke-width=""1"" fill=""black"" />
    <circle cx=531.6431164780429 cy=432 r=17.351558239021426 stroke=""none"" stroke-width=""1.5"" fill=""none"" />
    <circle cx=496.94 cy=466.70311647804283 r=17.351558239021426 stroke=""none"" stroke-width=""1.5"" fill=""none"" />
    <circle cx=462.23688352195717 cy=432 r=17.351558239021426 stroke=""none"" stroke-width=""1.5"" fill=""none"" />
    <circle cx=496.94 cy=397.29688352195717 r=17.351558239021426 stroke=""none"" stroke-width=""1.5"" fill=""none"" />
    <polygon points = ""496.94,432 501.82090657484554,414.6484417609786 492.05909342515446,414.6484417609786"" stroke=""none"" stroke-width=""3"" fill = ""none"" />
    
    </svg>
    </div>
        ","","","","","","","","","","","","","","","","","","","","","","","","","","","","",""
"html-keyboard-response","83","215271","0.0-83.0","null","null","","
    <div style="" display: block;  position: relative;"">
    <svg width=1536 height=864>
    
    <circle cx=705 cy=432 r=12.146090767314996 stroke=""black"" stroke-width=""1"" fill=""black"" />
    <circle cx=496.94 cy=432 r=17.351558239021426 stroke=""black"" stroke-width=""1.5"" fill=""none"" />
    <circle cx=531.6431164780429 cy=432 r=17.351558239021426 stroke=""black"" stroke-width=""1.5"" fill=""none"" />
    <circle cx=496.94 cy=466.70311647804283 r=17.351558239021426 stroke=""black"" stroke-width=""1.5"" fill=""none"" />
    <circle cx=462.23688352195717 cy=432 r=17.351558239021426 stroke=""black"" stroke-width=""1.5"" fill=""none"" />
    <circle cx=496.94 cy=397.29688352195717 r=17.351558239021426 stroke=""black"" stroke-width=""1.5"" fill=""none"" />
    <polygon points = ""496.94,432 501.82090657484554,414.6484417609786 492.05909342515446,414.6484417609786"" stroke=""white"" stroke-width=""3"" fill = ""white"" />
    
    </svg>
    </div>
        ","","","","","","","","","","","","stimulus","","","","","","","","","","","","","","","","",""
"html-keyboard-response","84","215700","0.0-84.0","428.5","arrowup","","
    <div style="" display: block;  position: relative;"">
    
    <svg width=1536 height=864>
    <circle cx=705 cy=432 r=12.146090767314996 stroke=""black"" stroke-width=""1"" fill=""black"" />
    <circle cx=531.6431164780429 cy=432 r=17.351558239021426 stroke=""none"" stroke-width=""1.5"" fill=""none"" />
    <circle cx=496.94 cy=466.70311647804283 r=17.351558239021426 stroke=""none"" stroke-width=""1.5"" fill=""none"" />
    <circle cx=462.23688352195717 cy=432 r=17.351558239021426 stroke=""none"" stroke-width=""1.5"" fill=""none"" />
    <circle cx=496.94 cy=397.29688352195717 r=17.351558239021426 stroke=""none"" stroke-width=""1.5"" fill=""none"" />
    <polygon points = ""496.94,432 501.82090657484554,414.6484417609786 492.05909342515446,414.6484417609786"" stroke=""none"" stroke-width=""3"" fill = ""none"" />
    
    </svg>
    </div>
        ","","","","","","","","","","","","get_response","true","za2VCr3B7NeKMV89","","","true","true","false","208.06","6","561.826","34.70311647804285","1","1","0","","",""
"html-keyboard-response","85","216215","0.0-85.0","null","null","","
    <div style="" display: block;  position: relative;"">
    
    <svg width=1536 height=864>
    <circle cx=705 cy=432 r=12.146090767314996 stroke=""black"" stroke-width=""1"" fill=""black"" />
    <circle cx=531.6431164780429 cy=432 r=17.351558239021426 stroke=""none"" stroke-width=""1.5"" fill=""none"" />
    <circle cx=496.94 cy=466.70311647804283 r=17.351558239021426 stroke=""none"" stroke-width=""1.5"" fill=""none"" />
    <circle cx=462.23688352195717 cy=432 r=17.351558239021426 stroke=""none"" stroke-width=""1.5"" fill=""none"" />
    <circle cx=496.94 cy=397.29688352195717 r=17.351558239021426 stroke=""none"" stroke-width=""1.5"" fill=""none"" />
    <polygon points = ""496.94,432 501.82090657484554,414.6484417609786 492.05909342515446,414.6484417609786"" stroke=""none"" stroke-width=""3"" fill = ""none"" />
    
    </svg>
    </div>
        ","","","","","","","","","","","","","","","","","","","","","","","","","","","","",""
"html-keyboard-response","86","216369","0.0-86.0","null","null","","
    <div style="" display: block;  position: relative;"">
    <svg width=1536 height=864>
    
    <circle cx=705 cy=432 r=12.146090767314996 stroke=""black"" stroke-width=""1"" fill=""black"" />
    <circle cx=913.06 cy=432 r=17.351558239021426 stroke=""black"" stroke-width=""1.5"" fill=""none"" />
    <circle cx=947.7631164780428 cy=432 r=17.351558239021426 stroke=""black"" stroke-width=""1.5"" fill=""none"" />
    <circle cx=913.06 cy=466.70311647804283 r=17.351558239021426 stroke=""black"" stroke-width=""1.5"" fill=""none"" />
    <circle cx=878.3568835219571 cy=432 r=17.351558239021426 stroke=""black"" stroke-width=""1.5"" fill=""none"" />
    <circle cx=913.06 cy=397.29688352195717 r=17.351558239021426 stroke=""black"" stroke-width=""1.5"" fill=""none"" />
    <polygon points = ""913.06,432 917.9409065748455,449.3515582390214 908.1790934251544,449.3515582390214"" stroke=""white"" stroke-width=""3"" fill = ""white"" />
    
    </svg>
    </div>
        ","","","","","","","","","","","","stimulus","","","","","","","","","","","","","","","","",""
"html-keyboard-response","87","216756","0.0-87.0","384.20000000018626","arrowdown","","
    <div style="" display: block;  position: relative;"">
    
    <svg width=1536 height=864>
    <circle cx=705 cy=432 r=12.146090767314996 stroke=""black"" stroke-width=""1"" fill=""black"" />
    <circle cx=947.7631164780428 cy=432 r=17.351558239021426 stroke=""none"" stroke-width=""1.5"" fill=""none"" />
    <circle cx=913.06 cy=466.70311647804283 r=17.351558239021426 stroke=""none"" stroke-width=""1.5"" fill=""none"" />
    <circle cx=878.3568835219571 cy=432 r=17.351558239021426 stroke=""none"" stroke-width=""1.5"" fill=""none"" />
    <circle cx=913.06 cy=397.29688352195717 r=17.351558239021426 stroke=""none"" stroke-width=""1.5"" fill=""none"" />
    <polygon points = ""913.06,432 917.9409065748455,449.3515582390214 908.1790934251544,449.3515582390214"" stroke=""none"" stroke-width=""3"" fill = ""none"" />
    
    </svg>
    </div>
        ","","","","","","","","","","","","get_response","true","za2VCr3B7NeKMV89","","","false","false","false","208.06","6","561.826","34.70311647804285","1","1","0","","",""
"html-keyboard-response","88","217263","0.0-88.0","null","null","","
    <div style="" display: block;  position: relative;"">
    
    <svg width=1536 height=864>
    <circle cx=705 cy=432 r=12.146090767314996 stroke=""black"" stroke-width=""1"" fill=""black"" />
    <circle cx=947.7631164780428 cy=432 r=17.351558239021426 stroke=""none"" stroke-width=""1.5"" fill=""none"" />
    <circle cx=913.06 cy=466.70311647804283 r=17.351558239021426 stroke=""none"" stroke-width=""1.5"" fill=""none"" />
    <circle cx=878.3568835219571 cy=432 r=17.351558239021426 stroke=""none"" stroke-width=""1.5"" fill=""none"" />
    <circle cx=913.06 cy=397.29688352195717 r=17.351558239021426 stroke=""none"" stroke-width=""1.5"" fill=""none"" />
    <polygon points = ""913.06,432 917.9409065748455,449.3515582390214 908.1790934251544,449.3515582390214"" stroke=""none"" stroke-width=""3"" fill = ""none"" />
    
    </svg>
    </div>
        ","","","","","","","","","","","","","","","","","","","","","","","","","","","","",""
"html-keyboard-response","89","217416","0.0-89.0","null","null","","
    <div style="" display: block;  position: relative;"">
    <svg width=1536 height=864>
    
    <circle cx=705 cy=432 r=12.146090767314996 stroke=""black"" stroke-width=""1"" fill=""black"" />
    <circle cx=913.06 cy=432 r=17.351558239021426 stroke=""black"" stroke-width=""1.5"" fill=""none"" />
    <circle cx=947.7631164780428 cy=432 r=17.351558239021426 stroke=""black"" stroke-width=""1.5"" fill=""none"" />
    <circle cx=913.06 cy=466.70311647804283 r=17.351558239021426 stroke=""black"" stroke-width=""1.5"" fill=""none"" />
    <circle cx=878.3568835219571 cy=432 r=17.351558239021426 stroke=""black"" stroke-width=""1.5"" fill=""none"" />
    <circle cx=913.06 cy=397.29688352195717 r=17.351558239021426 stroke=""black"" stroke-width=""1.5"" fill=""none"" />
    <polygon points = ""913.06,432 917.9409065748455,449.3515582390214 908.1790934251544,449.3515582390214"" stroke=""white"" stroke-width=""3"" fill = ""white"" />
    
    </svg>
    </div>
        ","","","","","","","","","","","","stimulus","","","","","","","","","","","","","","","","",""
"html-keyboard-response","90","217713","0.0-90.0","294.8000000002794","arrowdown","","
    <div style="" display: block;  position: relative;"">
    
    <svg width=1536 height=864>
    <circle cx=705 cy=432 r=12.146090767314996 stroke=""black"" stroke-width=""1"" fill=""black"" />
    <circle cx=947.7631164780428 cy=432 r=17.351558239021426 stroke=""none"" stroke-width=""1.5"" fill=""none"" />
    <circle cx=913.06 cy=466.70311647804283 r=17.351558239021426 stroke=""none"" stroke-width=""1.5"" fill=""none"" />
    <circle cx=878.3568835219571 cy=432 r=17.351558239021426 stroke=""none"" stroke-width=""1.5"" fill=""none"" />
    <circle cx=913.06 cy=397.29688352195717 r=17.351558239021426 stroke=""none"" stroke-width=""1.5"" fill=""none"" />
    <polygon points = ""913.06,432 917.9409065748455,449.3515582390214 908.1790934251544,449.3515582390214"" stroke=""none"" stroke-width=""3"" fill = ""none"" />
    
    </svg>
    </div>
        ","","","","","","","","","","","","get_response","true","za2VCr3B7NeKMV89","","","false","false","false","208.06","6","561.826","34.70311647804285","1","1","0","","",""
"html-keyboard-response","91","218217","0.0-91.0","null","null","","
    <div style="" display: block;  position: relative;"">
    
    <svg width=1536 height=864>
    <circle cx=705 cy=432 r=12.146090767314996 stroke=""black"" stroke-width=""1"" fill=""black"" />
    <circle cx=947.7631164780428 cy=432 r=17.351558239021426 stroke=""none"" stroke-width=""1.5"" fill=""none"" />
    <circle cx=913.06 cy=466.70311647804283 r=17.351558239021426 stroke=""none"" stroke-width=""1.5"" fill=""none"" />
    <circle cx=878.3568835219571 cy=432 r=17.351558239021426 stroke=""none"" stroke-width=""1.5"" fill=""none"" />
    <circle cx=913.06 cy=397.29688352195717 r=17.351558239021426 stroke=""none"" stroke-width=""1.5"" fill=""none"" />
    <polygon points = ""913.06,432 917.9409065748455,449.3515582390214 908.1790934251544,449.3515582390214"" stroke=""none"" stroke-width=""3"" fill = ""none"" />
    
    </svg>
    </div>
        ","","","","","","","","","","","","","","","","","","","","","","","","","","","","",""
"html-keyboard-response","92","218372","0.0-92.0","null","null","","
    <div style="" display: block;  position: relative;"">
    <svg width=1536 height=864>
    
    <circle cx=705 cy=432 r=12.146090767314996 stroke=""black"" stroke-width=""1"" fill=""black"" />
    <circle cx=496.94 cy=432 r=17.351558239021426 stroke=""black"" stroke-width=""1.5"" fill=""none"" />
    <circle cx=531.6431164780429 cy=432 r=17.351558239021426 stroke=""black"" stroke-width=""1.5"" fill=""none"" />
    <circle cx=496.94 cy=466.70311647804283 r=17.351558239021426 stroke=""black"" stroke-width=""1.5"" fill=""none"" />
    <circle cx=462.23688352195717 cy=432 r=17.351558239021426 stroke=""black"" stroke-width=""1.5"" fill=""none"" />
    <circle cx=496.94 cy=397.29688352195717 r=17.351558239021426 stroke=""black"" stroke-width=""1.5"" fill=""none"" />
    <polygon points = ""496.94,432 501.82090657484554,414.6484417609786 492.05909342515446,414.6484417609786"" stroke=""white"" stroke-width=""3"" fill = ""white"" />
    
    </svg>
    </div>
        ","","","","","","","","","","","","stimulus","","","","","","","","","","","","","","","","",""
"html-keyboard-response","93","218680","0.0-93.0","306.3000000002794","arrowup","","
    <div style="" display: block;  position: relative;"">
    
    <svg width=1536 height=864>
    <circle cx=705 cy=432 r=12.146090767314996 stroke=""black"" stroke-width=""1"" fill=""black"" />
    <circle cx=531.6431164780429 cy=432 r=17.351558239021426 stroke=""none"" stroke-width=""1.5"" fill=""none"" />
    <circle cx=496.94 cy=466.70311647804283 r=17.351558239021426 stroke=""none"" stroke-width=""1.5"" fill=""none"" />
    <circle cx=462.23688352195717 cy=432 r=17.351558239021426 stroke=""none"" stroke-width=""1.5"" fill=""none"" />
    <circle cx=496.94 cy=397.29688352195717 r=17.351558239021426 stroke=""none"" stroke-width=""1.5"" fill=""none"" />
    <polygon points = ""496.94,432 501.82090657484554,414.6484417609786 492.05909342515446,414.6484417609786"" stroke=""none"" stroke-width=""3"" fill = ""none"" />
    
    </svg>
    </div>
        ","","","","","","","","","","","","get_response","true","za2VCr3B7NeKMV89","","","true","true","false","208.06","6","561.826","34.70311647804285","1","1","0","","",""
"html-keyboard-response","94","219189","0.0-94.0","null","null","","
    <div style="" display: block;  position: relative;"">
    
    <svg width=1536 height=864>
    <circle cx=705 cy=432 r=12.146090767314996 stroke=""black"" stroke-width=""1"" fill=""black"" />
    <circle cx=531.6431164780429 cy=432 r=17.351558239021426 stroke=""none"" stroke-width=""1.5"" fill=""none"" />
    <circle cx=496.94 cy=466.70311647804283 r=17.351558239021426 stroke=""none"" stroke-width=""1.5"" fill=""none"" />
    <circle cx=462.23688352195717 cy=432 r=17.351558239021426 stroke=""none"" stroke-width=""1.5"" fill=""none"" />
    <circle cx=496.94 cy=397.29688352195717 r=17.351558239021426 stroke=""none"" stroke-width=""1.5"" fill=""none"" />
    <polygon points = ""496.94,432 501.82090657484554,414.6484417609786 492.05909342515446,414.6484417609786"" stroke=""none"" stroke-width=""3"" fill = ""none"" />
    
    </svg>
    </div>
        ","","","","","","","","","","","","","","","","","","","","","","","","","","","","",""
"html-keyboard-response","95","219341","0.0-95.0","null","null","","
    <div style="" display: block;  position: relative;"">
    <svg width=1536 height=864>
    
    <circle cx=705 cy=432 r=12.146090767314996 stroke=""black"" stroke-width=""1"" fill=""black"" />
    <circle cx=913.06 cy=432 r=17.351558239021426 stroke=""black"" stroke-width=""1.5"" fill=""none"" />
    <circle cx=947.7631164780428 cy=432 r=17.351558239021426 stroke=""black"" stroke-width=""1.5"" fill=""none"" />
    <circle cx=913.06 cy=466.70311647804283 r=17.351558239021426 stroke=""black"" stroke-width=""1.5"" fill=""none"" />
    <circle cx=878.3568835219571 cy=432 r=17.351558239021426 stroke=""black"" stroke-width=""1.5"" fill=""none"" />
    <circle cx=913.06 cy=397.29688352195717 r=17.351558239021426 stroke=""black"" stroke-width=""1.5"" fill=""none"" />
    <polygon points = ""913.06,432 917.9409065748455,414.6484417609786 908.1790934251544,414.6484417609786"" stroke=""white"" stroke-width=""3"" fill = ""white"" />
    
    </svg>
    </div>
        ","","","","","","","","","","","","stimulus","","","","","","","","","","","","","","","","",""
"html-keyboard-response","96","219620","0.0-96.0","277","arrowdown","","
    <div style="" display: block;  position: relative;"">
    
    <svg width=1536 height=864>
    <circle cx=705 cy=432 r=12.146090767314996 stroke=""black"" stroke-width=""1"" fill=""black"" />
    <circle cx=947.7631164780428 cy=432 r=17.351558239021426 stroke=""none"" stroke-width=""1.5"" fill=""none"" />
    <circle cx=913.06 cy=466.70311647804283 r=17.351558239021426 stroke=""none"" stroke-width=""1.5"" fill=""none"" />
    <circle cx=878.3568835219571 cy=432 r=17.351558239021426 stroke=""none"" stroke-width=""1.5"" fill=""none"" />
    <circle cx=913.06 cy=397.29688352195717 r=17.351558239021426 stroke=""none"" stroke-width=""1.5"" fill=""none"" />
    <polygon points = ""913.06,432 917.9409065748455,414.6484417609786 908.1790934251544,414.6484417609786"" stroke=""none"" stroke-width=""3"" fill = ""none"" />
    
    </svg>
    </div>
