,trial_type,trial_index,time_elapsed,internal_node_id,rt,response,success,stimulus,start_time,start_time_unix,item_width_mm,item_height_mm,item_width_px,px2mm,view_dist_mm,item_width_deg,px2deg,win_width_deg,win_height_deg,trialType,correct,participantID,criticalSpacing,criticalSpacing_deg,isLeft,isUp,isEccen4,eccentricity,eccentricity_deg,viewingDistanceMean,critical_spacing,critical_spacing_deg,crowding_session,correctRate,viewDistance_1,viewDistance_2,viewDistance_3,age
0,pavlovia,0,14,0.0-0.0,,,,,,,,,,,,,,,,,,,,,,,,,,,,,,,,,,27
2,fullscreen,2,52546,0.0-2.0,,,True,,,,,,,,,,,,,,,,,,,,,,,,,,,,,,,27
3,html-keyboard-response,3,76904,0.0-3.0,24355.700000000183,enter,,"<h1>Consent Form</h1>
       <p>By answering the following questions, you are participating in a study being performed by cognitive scientists in the Stanford Department of Psychology. If you have questions about this research, please contact us at stanfordpsych251@gmail.com. You must be at least 18 years old to participate. Your participation in this research is voluntary. You may decline to answer any or all of the following questions. You may decline further participation by closing the window, at any time, without adverse consequences. Your anonymity is assured; the researchers who have requested your participation will not receive any personal information about you.</p>
       <p>Press <b>any key</b> to start the experiment!</p>",,,,,,,,,,,,,,,,,,,,,,,,,,,,,,27
4,html-keyboard-response,4,80982,0.0-4.0,4075.5,enter,,"<h1>Welcome to the Visual Crowding Experiment!</h1>
       <p>This test will take <b>10-12</b> minutes to complete.</p>
       <p>Press any key to start the experiment!</p>","12/1/2021, 9:16:41 AM",1638343001044.0,,,,,,,,,,,,,,,,,,,,,,,,,,,,27
5,html-keyboard-response,5,96766,0.0-5.0,15781.100000000091,arrowdown,,"<div> 
<p> Before you begin this study, let&#39;s quickly test how far away you are sitting. You might know that vision tests at a doctor&#39;s practice often involve chinrests, the doctor basically asks you to sit away from a screen in a specific distance. We do this here with a <b>virtual chinrest</b>. </p>
<p> Please press the <b>down</b> arrow to continue.
</p>
</div>",,,,,,,,,,,,,,,,,,,,,,,,,,,,,,27
6,virtual-chinrest,6,220070,0.0-6.0,123300.0,,,,,,85.6,53.98,346.0,4.04,498.18,9.820757840167728,35.231496960940305,54.496690904976994,30.65438863404956,,,,,,,,,,,,,,,,,,,27
7,html-keyboard-response,7,262012,0.0-7.0,41934.40000000037,arrowdown,,"
	<h2 class=""bolded-blue"">Now, you will take a peripheral vision test!</h2>
<p> 
	<b>
		<font size=""140%"">1. </font>
	</b>
	<em><b>Please use both eyes for the following task.</b></em> First, you will see a screen (like the one in the image below) showing a <b>black dot</b> in the middle of the screen, with a group of circles displayed on either the <span class=""bolded-blue"">left</span> or <span class=""bolded-blue"">right</span> of the black dot for 150 ms. <span class=""bolded-blue"">Please make sure to focus on the black dot all the time!</span>

	<div>
		<img src=""example.png"" alt=""example"" style=""border: 2px solid black"" width=""600""/> 
	</div>
	
	<b>
		<font size=""140%"">2. </font>
	</b>
	Your task is to identify whether the opening of the <b class=""bolded-blue"">center circle</b> is upward by pressing UP or downward by pressing DOWN on your keyboard. The opening of the circle will only be upward or downward, not towards left or right.

	<div>
		<img src=""arrow_keys+.png"" alt=""arrows"" style=""border: 2px solid black"" width=""600""/>
	</div>
	<br>

<p>Please press the <b>down</b> arrow key to start the <span class=""bolded-blue"">practice task</span> (this first practice task will not count toward your final results).</p>
</p>
",,,,,,,,,,,,,,,,,,,,,,,,,,,,,,27
8,html-keyboard-response,8,262516,0.0-8.0,,,,"
    <div style="" display: block;  position: relative;"">
    
    <svg width=1920 height=1080>
    <circle cx=897 cy=540 r=12.114162555447523 stroke=""black"" stroke-width=""1"" fill=""black"" />
    <circle cx=NaN cy=540 r=17.305946507782178 stroke=""none"" stroke-width=""1.5"" fill=""none"" />
    <circle cx=689.48 cy=NaN r=17.305946507782178 stroke=""none"" stroke-width=""1.5"" fill=""none"" />
    <circle cx=NaN cy=540 r=17.305946507782178 stroke=""none"" stroke-width=""1.5"" fill=""none"" />
    <circle cx=689.48 cy=NaN r=17.305946507782178 stroke=""none"" stroke-width=""1.5"" fill=""none"" />
    <polygon points = ""689.48,540 694.3480762229066,557.3059465077822 684.6119237770935,557.3059465077822"" stroke=""none"" stroke-width=""3"" fill = ""none"" />
    
    </svg>
    </div>
        ",,,,,,,,,,,,,,,,,,,,,,,,,,,,,,27
9,html-keyboard-response,9,262671,0.0-9.0,,,,"
    <div style="" display: block;  position: relative;"">
    <svg width=1920 height=1080>
    
    <circle cx=897 cy=540 r=12.114162555447523 stroke=""black"" stroke-width=""1"" fill=""black"" />
    <circle cx=1104.52 cy=540 r=17.305946507782178 stroke=""black"" stroke-width=""1.5"" fill=""none"" />
    <circle cx=1239.408 cy=540 r=17.305946507782178 stroke=""black"" stroke-width=""1.5"" fill=""none"" />
    <circle cx=1104.52 cy=674.888 r=17.305946507782178 stroke=""black"" stroke-width=""1.5"" fill=""none"" />
    <circle cx=969.632 cy=540 r=17.305946507782178 stroke=""black"" stroke-width=""1.5"" fill=""none"" />
    <circle cx=1104.52 cy=405.11199999999997 r=17.305946507782178 stroke=""black"" stroke-width=""1.5"" fill=""none"" />
    <polygon points = ""1104.52,540 1109.3880762229066,522.6940534922178 1099.6519237770933,522.6940534922178"" stroke=""white"" stroke-width=""3"" fill = ""white"" />
    
    </svg>
    </div>
        ",,,,,,,,,,,,stimulus,,,,,,,,,,,,,,,,,,27
10,html-keyboard-response,10,272507,0.0-10.0,9832.799999999814,arrowdown,,"
    <div style="" display: block;  position: relative;"">
    
    <svg width=1920 height=1080>
    <circle cx=897 cy=540 r=12.114162555447523 stroke=""black"" stroke-width=""1"" fill=""black"" />
    <circle cx=1239.408 cy=540 r=17.305946507782178 stroke=""none"" stroke-width=""1.5"" fill=""none"" />
    <circle cx=1104.52 cy=674.888 r=17.305946507782178 stroke=""none"" stroke-width=""1.5"" fill=""none"" />
    <circle cx=969.632 cy=540 r=17.305946507782178 stroke=""none"" stroke-width=""1.5"" fill=""none"" />
    <circle cx=1104.52 cy=405.11199999999997 r=17.305946507782178 stroke=""none"" stroke-width=""1.5"" fill=""none"" />
    <polygon points = ""1104.52,540 1109.3880762229066,522.6940534922178 1099.6519237770933,522.6940534922178"" stroke=""none"" stroke-width=""3"" fill = ""none"" />
    
    </svg>
    </div>
        ",,,,,,,,,,,,practice_get_response,False,cXEdleUvGAzbQbkZ,134.888,3.89,False,True,False,207.52,6.0,492.386,,,,,,,,27
11,html-keyboard-response,11,273012,0.0-11.0,,,,"
    <div style="" display: block;  position: relative;"">
    
    <svg width=1920 height=1080>
    <circle cx=897 cy=540 r=12.114162555447523 stroke=""black"" stroke-width=""1"" fill=""black"" />
    <circle cx=1239.408 cy=540 r=17.305946507782178 stroke=""none"" stroke-width=""1.5"" fill=""none"" />
    <circle cx=1104.52 cy=674.888 r=17.305946507782178 stroke=""none"" stroke-width=""1.5"" fill=""none"" />
    <circle cx=969.632 cy=540 r=17.305946507782178 stroke=""none"" stroke-width=""1.5"" fill=""none"" />
    <circle cx=1104.52 cy=405.11199999999997 r=17.305946507782178 stroke=""none"" stroke-width=""1.5"" fill=""none"" />
    <polygon points = ""1104.52,540 1109.3880762229066,522.6940534922178 1099.6519237770933,522.6940534922178"" stroke=""none"" stroke-width=""3"" fill = ""none"" />
    
    </svg>
    </div>
        ",,,,,,,,,,,,,,,,,,,,,,,,,,,,,,27
12,html-keyboard-response,12,273165,0.0-12.0,,,,"
    <div style="" display: block;  position: relative;"">
    <svg width=1920 height=1080>
    
    <circle cx=897 cy=540 r=12.114162555447523 stroke=""black"" stroke-width=""1"" fill=""black"" />
    <circle cx=1104.52 cy=540 r=17.305946507782178 stroke=""black"" stroke-width=""1.5"" fill=""none"" />
    <circle cx=1260.2962139688711 cy=540 r=17.305946507782178 stroke=""black"" stroke-width=""1.5"" fill=""none"" />
    <circle cx=1104.52 cy=695.7762139688713 r=17.305946507782178 stroke=""black"" stroke-width=""1.5"" fill=""none"" />
    <circle cx=948.7437860311287 cy=540 r=17.305946507782178 stroke=""black"" stroke-width=""1.5"" fill=""none"" />
    <circle cx=1104.52 cy=384.2237860311287 r=17.305946507782178 stroke=""black"" stroke-width=""1.5"" fill=""none"" />
    <polygon points = ""1104.52,540 1109.3880762229066,557.3059465077822 1099.6519237770933,557.3059465077822"" stroke=""white"" stroke-width=""3"" fill = ""white"" />
    
    </svg>
    </div>
        ",,,,,,,,,,,,stimulus,,,,,,,,,,,,,,,,,,27
13,html-keyboard-response,13,273802,0.0-13.0,634.3999999999069,arrowdown,,"
    <div style="" display: block;  position: relative;"">
    
    <svg width=1920 height=1080>
    <circle cx=897 cy=540 r=12.114162555447523 stroke=""black"" stroke-width=""1"" fill=""black"" />
    <circle cx=1260.2962139688711 cy=540 r=17.305946507782178 stroke=""none"" stroke-width=""1.5"" fill=""none"" />
    <circle cx=1104.52 cy=695.7762139688713 r=17.305946507782178 stroke=""none"" stroke-width=""1.5"" fill=""none"" />
    <circle cx=948.7437860311287 cy=540 r=17.305946507782178 stroke=""none"" stroke-width=""1.5"" fill=""none"" />
    <circle cx=1104.52 cy=384.2237860311287 r=17.305946507782178 stroke=""none"" stroke-width=""1.5"" fill=""none"" />
    <polygon points = ""1104.52,540 1109.3880762229066,557.3059465077822 1099.6519237770933,557.3059465077822"" stroke=""none"" stroke-width=""3"" fill = ""none"" />
    
    </svg>
    </div>
        ",,,,,,,,,,,,practice_get_response,True,cXEdleUvGAzbQbkZ,155.77621396887128,4.5,False,False,False,207.52,6.0,492.386,,,,,,,,27
14,html-keyboard-response,14,274306,0.0-14.0,,,,"
    <div style="" display: block;  position: relative;"">
    
    <svg width=1920 height=1080>
    <circle cx=897 cy=540 r=12.114162555447523 stroke=""black"" stroke-width=""1"" fill=""black"" />
    <circle cx=1260.2962139688711 cy=540 r=17.305946507782178 stroke=""none"" stroke-width=""1.5"" fill=""none"" />
    <circle cx=1104.52 cy=695.7762139688713 r=17.305946507782178 stroke=""none"" stroke-width=""1.5"" fill=""none"" />
    <circle cx=948.7437860311287 cy=540 r=17.305946507782178 stroke=""none"" stroke-width=""1.5"" fill=""none"" />
    <circle cx=1104.52 cy=384.2237860311287 r=17.305946507782178 stroke=""none"" stroke-width=""1.5"" fill=""none"" />
    <polygon points = ""1104.52,540 1109.3880762229066,557.3059465077822 1099.6519237770933,557.3059465077822"" stroke=""none"" stroke-width=""3"" fill = ""none"" />
    
    </svg>
    </div>
        ",,,,,,,,,,,,,,,,,,,,,,,,,,,,,,27
15,html-keyboard-response,15,274458,0.0-15.0,,,,"
    <div style="" display: block;  position: relative;"">
    <svg width=1920 height=1080>
    
    <circle cx=897 cy=540 r=12.114162555447523 stroke=""black"" stroke-width=""1"" fill=""black"" />
    <circle cx=689.48 cy=540 r=17.305946507782178 stroke=""black"" stroke-width=""1.5"" fill=""none"" />
    <circle cx=845.2562139688713 cy=540 r=17.305946507782178 stroke=""black"" stroke-width=""1.5"" fill=""none"" />
    <circle cx=689.48 cy=695.7762139688713 r=17.305946507782178 stroke=""black"" stroke-width=""1.5"" fill=""none"" />
    <circle cx=533.7037860311287 cy=540 r=17.305946507782178 stroke=""black"" stroke-width=""1.5"" fill=""none"" />
    <circle cx=689.48 cy=384.2237860311287 r=17.305946507782178 stroke=""black"" stroke-width=""1.5"" fill=""none"" />
    <polygon points = ""689.48,540 694.3480762229066,557.3059465077822 684.6119237770935,557.3059465077822"" stroke=""white"" stroke-width=""3"" fill = ""white"" />
    
    </svg>
    </div>
        ",,,,,,,,,,,,stimulus,,,,,,,,,,,,,,,,,,27
16,html-keyboard-response,16,274986,0.0-16.0,524.8000000002794,arrowdown,,"
    <div style="" display: block;  position: relative;"">
    
    <svg width=1920 height=1080>
    <circle cx=897 cy=540 r=12.114162555447523 stroke=""black"" stroke-width=""1"" fill=""black"" />
    <circle cx=845.2562139688713 cy=540 r=17.305946507782178 stroke=""none"" stroke-width=""1.5"" fill=""none"" />
    <circle cx=689.48 cy=695.7762139688713 r=17.305946507782178 stroke=""none"" stroke-width=""1.5"" fill=""none"" />
    <circle cx=533.7037860311287 cy=540 r=17.305946507782178 stroke=""none"" stroke-width=""1.5"" fill=""none"" />
    <circle cx=689.48 cy=384.2237860311287 r=17.305946507782178 stroke=""none"" stroke-width=""1.5"" fill=""none"" />
    <polygon points = ""689.48,540 694.3480762229066,557.3059465077822 684.6119237770935,557.3059465077822"" stroke=""none"" stroke-width=""3"" fill = ""none"" />
    
    </svg>
    </div>
        ",,,,,,,,,,,,practice_get_response,True,cXEdleUvGAzbQbkZ,155.77621396887128,4.5,True,False,False,207.52,6.0,492.386,,,,,,,,27
17,html-keyboard-response,17,275489,0.0-17.0,,,,"
    <div style="" display: block;  position: relative;"">
    
    <svg width=1920 height=1080>
    <circle cx=897 cy=540 r=12.114162555447523 stroke=""black"" stroke-width=""1"" fill=""black"" />
    <circle cx=845.2562139688713 cy=540 r=17.305946507782178 stroke=""none"" stroke-width=""1.5"" fill=""none"" />
    <circle cx=689.48 cy=695.7762139688713 r=17.305946507782178 stroke=""none"" stroke-width=""1.5"" fill=""none"" />
    <circle cx=533.7037860311287 cy=540 r=17.305946507782178 stroke=""none"" stroke-width=""1.5"" fill=""none"" />
    <circle cx=689.48 cy=384.2237860311287 r=17.305946507782178 stroke=""none"" stroke-width=""1.5"" fill=""none"" />
    <polygon points = ""689.48,540 694.3480762229066,557.3059465077822 684.6119237770935,557.3059465077822"" stroke=""none"" stroke-width=""3"" fill = ""none"" />
    
    </svg>
    </div>
        ",,,,,,,,,,,,,,,,,,,,,,,,,,,,,,27
18,html-keyboard-response,18,275643,0.0-18.0,,,,"
    <div style="" display: block;  position: relative;"">
    <svg width=1920 height=1080>
    
    <circle cx=897 cy=540 r=12.114162555447523 stroke=""black"" stroke-width=""1"" fill=""black"" />
    <circle cx=689.48 cy=540 r=17.305946507782178 stroke=""black"" stroke-width=""1.5"" fill=""none"" />
    <circle cx=845.2562139688713 cy=540 r=17.305946507782178 stroke=""black"" stroke-width=""1.5"" fill=""none"" />
    <circle cx=689.48 cy=695.7762139688713 r=17.305946507782178 stroke=""black"" stroke-width=""1.5"" fill=""none"" />
    <circle cx=533.7037860311287 cy=540 r=17.305946507782178 stroke=""black"" stroke-width=""1.5"" fill=""none"" />
    <circle cx=689.48 cy=384.2237860311287 r=17.305946507782178 stroke=""black"" stroke-width=""1.5"" fill=""none"" />
    <polygon points = ""689.48,540 694.3480762229066,522.6940534922178 684.6119237770935,522.6940534922178"" stroke=""white"" stroke-width=""3"" fill = ""white"" />
    
    </svg>
    </div>
        ",,,,,,,,,,,,stimulus,,,,,,,,,,,,,,,,,,27
19,html-keyboard-response,19,818638,0.0-19.0,542992.9000000004,arrowup,,"
    <div style="" display: block;  position: relative;"">
    
    <svg width=1920 height=1080>
    <circle cx=897 cy=540 r=12.114162555447523 stroke=""black"" stroke-width=""1"" fill=""black"" />
    <circle cx=845.2562139688713 cy=540 r=17.305946507782178 stroke=""none"" stroke-width=""1.5"" fill=""none"" />
    <circle cx=689.48 cy=695.7762139688713 r=17.305946507782178 stroke=""none"" stroke-width=""1.5"" fill=""none"" />
    <circle cx=533.7037860311287 cy=540 r=17.305946507782178 stroke=""none"" stroke-width=""1.5"" fill=""none"" />
    <circle cx=689.48 cy=384.2237860311287 r=17.305946507782178 stroke=""none"" stroke-width=""1.5"" fill=""none"" />
    <polygon points = ""689.48,540 694.3480762229066,522.6940534922178 684.6119237770935,522.6940534922178"" stroke=""none"" stroke-width=""3"" fill = ""none"" />
    
    </svg>
    </div>
        ",,,,,,,,,,,,practice_get_response,True,cXEdleUvGAzbQbkZ,155.77621396887128,4.5,True,True,False,207.52,6.0,492.386,,,,,,,,27
20,html-keyboard-response,20,819139,0.0-20.0,,,,"
    <div style="" display: block;  position: relative;"">
    
    <svg width=1920 height=1080>
    <circle cx=897 cy=540 r=12.114162555447523 stroke=""black"" stroke-width=""1"" fill=""black"" />
    <circle cx=845.2562139688713 cy=540 r=17.305946507782178 stroke=""none"" stroke-width=""1.5"" fill=""none"" />
    <circle cx=689.48 cy=695.7762139688713 r=17.305946507782178 stroke=""none"" stroke-width=""1.5"" fill=""none"" />
    <circle cx=533.7037860311287 cy=540 r=17.305946507782178 stroke=""none"" stroke-width=""1.5"" fill=""none"" />
    <circle cx=689.48 cy=384.2237860311287 r=17.305946507782178 stroke=""none"" stroke-width=""1.5"" fill=""none"" />
    <polygon points = ""689.48,540 694.3480762229066,522.6940534922178 684.6119237770935,522.6940534922178"" stroke=""none"" stroke-width=""3"" fill = ""none"" />
    
    </svg>
    </div>
        ",,,,,,,,,,,,,,,,,,,,,,,,,,,,,,27
21,html-keyboard-response,21,819292,0.0-21.0,,,,"
    <div style="" display: block;  position: relative;"">
    <svg width=1920 height=1080>
    
    <circle cx=897 cy=540 r=12.114162555447523 stroke=""black"" stroke-width=""1"" fill=""black"" />
    <circle cx=1104.52 cy=540 r=17.305946507782178 stroke=""black"" stroke-width=""1.5"" fill=""none"" />
    <circle cx=1246.134739971701 cy=540 r=17.305946507782178 stroke=""black"" stroke-width=""1.5"" fill=""none"" />
    <circle cx=1104.52 cy=681.6147399717012 r=17.305946507782178 stroke=""black"" stroke-width=""1.5"" fill=""none"" />
    <circle cx=962.9052600282988 cy=540 r=17.305946507782178 stroke=""black"" stroke-width=""1.5"" fill=""none"" />
    <circle cx=1104.52 cy=398.38526002829883 r=17.305946507782178 stroke=""black"" stroke-width=""1.5"" fill=""none"" />
    <polygon points = ""1104.52,540 1109.3880762229066,557.3059465077822 1099.6519237770933,557.3059465077822"" stroke=""white"" stroke-width=""3"" fill = ""white"" />
    
    </svg>
    </div>
        ",,,,,,,,,,,,stimulus,,,,,,,,,,,,,,,,,,27
22,html-keyboard-response,22,820317,0.0-22.0,1023.0,arrowdown,,"
    <div style="" display: block;  position: relative;"">
    
    <svg width=1920 height=1080>
    <circle cx=897 cy=540 r=12.114162555447523 stroke=""black"" stroke-width=""1"" fill=""black"" />
    <circle cx=1246.134739971701 cy=540 r=17.305946507782178 stroke=""none"" stroke-width=""1.5"" fill=""none"" />
    <circle cx=1104.52 cy=681.6147399717012 r=17.305946507782178 stroke=""none"" stroke-width=""1.5"" fill=""none"" />
    <circle cx=962.9052600282988 cy=540 r=17.305946507782178 stroke=""none"" stroke-width=""1.5"" fill=""none"" />
    <circle cx=1104.52 cy=398.38526002829883 r=17.305946507782178 stroke=""none"" stroke-width=""1.5"" fill=""none"" />
    <polygon points = ""1104.52,540 1109.3880762229066,557.3059465077822 1099.6519237770933,557.3059465077822"" stroke=""none"" stroke-width=""3"" fill = ""none"" />
    
    </svg>
    </div>
        ",,,,,,,,,,,,practice_get_response,True,cXEdleUvGAzbQbkZ,141.61473997170114,4.09,False,False,False,207.52,6.0,492.386,,,,,,,,27
23,html-keyboard-response,23,829333,0.0-23.0,9014.600000000091,arrowdown,,"<div> 
<h2 class=""bolded-blue"">Well done!</h2>
<p> Now that you have the hang of it, we&#39;ll start the study. This session has 25 trials and takes about 2 minute to complete. </p> 
<p>If you are ready for the real deal, please press the <b>down</b> arrow to continue.
</p>
</div>",,,,,,,,,,,,,,,,,,,,,,,,,,,,,,27
24,html-keyboard-response,24,842197,0.0-24.0,12861.5,arrowdown,,"<div id=""continue""> 
<p>Again, please keep the <b>full screen</b> mode for the best experience.</p>
<p>Please do not move around and keep your eye on the black dot. Click <b>up</b> or <b>down</b> key on your keyboard to indicate the opening of the center circle. Make your best guess!</p>
<p>Please press the <b>down</b> arrow key to start the session 1. </p>
</div>",,,,,,,,,,,,,,,,,,,,,,,,,,,,,,27
25,html-keyboard-response,25,842698,0.0-25.0,,,,"
    <div style="" display: block;  position: relative;"">
    
    <svg width=1920 height=1080>
    <circle cx=897 cy=540 r=12.114162555447523 stroke=""black"" stroke-width=""1"" fill=""black"" />
    <circle cx=831.0947399717012 cy=540 r=17.305946507782178 stroke=""none"" stroke-width=""1.5"" fill=""none"" />
    <circle cx=689.48 cy=681.6147399717012 r=17.305946507782178 stroke=""none"" stroke-width=""1.5"" fill=""none"" />
    <circle cx=547.8652600282988 cy=540 r=17.305946507782178 stroke=""none"" stroke-width=""1.5"" fill=""none"" />
    <circle cx=689.48 cy=398.38526002829883 r=17.305946507782178 stroke=""none"" stroke-width=""1.5"" fill=""none"" />
    <polygon points = ""689.48,540 694.3480762229066,557.3059465077822 684.6119237770935,557.3059465077822"" stroke=""none"" stroke-width=""3"" fill = ""none"" />
    
    </svg>
    </div>
        ",,,,,,,,,,,,,,,,,,,,,,,,,,,,,,27
26,html-keyboard-response,26,842851,0.0-26.0,,,,"
    <div style="" display: block;  position: relative;"">
    <svg width=1920 height=1080>
    
    <circle cx=897 cy=540 r=12.114162555447523 stroke=""black"" stroke-width=""1"" fill=""black"" />
    <circle cx=689.48 cy=540 r=17.305946507782178 stroke=""black"" stroke-width=""1.5"" fill=""none"" />
    <circle cx=824.368 cy=540 r=17.305946507782178 stroke=""black"" stroke-width=""1.5"" fill=""none"" />
    <circle cx=689.48 cy=674.888 r=17.305946507782178 stroke=""black"" stroke-width=""1.5"" fill=""none"" />
    <circle cx=554.592 cy=540 r=17.305946507782178 stroke=""black"" stroke-width=""1.5"" fill=""none"" />
    <circle cx=689.48 cy=405.11199999999997 r=17.305946507782178 stroke=""black"" stroke-width=""1.5"" fill=""none"" />
    <polygon points = ""689.48,540 694.3480762229066,557.3059465077822 684.6119237770935,557.3059465077822"" stroke=""white"" stroke-width=""3"" fill = ""white"" />
    
    </svg>
    </div>
        ",,,,,,,,,,,,stimulus,,,,,,,,,,,,,,,,,,27
27,html-keyboard-response,27,843388,0.0-27.0,535.1999999997206,arrowdown,,"
    <div style="" display: block;  position: relative;"">
    
    <svg width=1920 height=1080>
    <circle cx=897 cy=540 r=12.114162555447523 stroke=""black"" stroke-width=""1"" fill=""black"" />
    <circle cx=824.368 cy=540 r=17.305946507782178 stroke=""none"" stroke-width=""1.5"" fill=""none"" />
    <circle cx=689.48 cy=674.888 r=17.305946507782178 stroke=""none"" stroke-width=""1.5"" fill=""none"" />
    <circle cx=554.592 cy=540 r=17.305946507782178 stroke=""none"" stroke-width=""1.5"" fill=""none"" />
    <circle cx=689.48 cy=405.11199999999997 r=17.305946507782178 stroke=""none"" stroke-width=""1.5"" fill=""none"" />
    <polygon points = ""689.48,540 694.3480762229066,557.3059465077822 684.6119237770935,557.3059465077822"" stroke=""none"" stroke-width=""3"" fill = ""none"" />
    
    </svg>
    </div>
        ",,,,,,,,,,,,get_response,True,cXEdleUvGAzbQbkZ,,,True,False,False,207.52,6.0,492.386,134.888,3.89,1.0,0.0,,,,27
28,html-keyboard-response,28,843891,0.0-28.0,,,,"
    <div style="" display: block;  position: relative;"">
    
    <svg width=1920 height=1080>
    <circle cx=897 cy=540 r=12.114162555447523 stroke=""black"" stroke-width=""1"" fill=""black"" />
    <circle cx=824.368 cy=540 r=17.305946507782178 stroke=""none"" stroke-width=""1.5"" fill=""none"" />
    <circle cx=689.48 cy=674.888 r=17.305946507782178 stroke=""none"" stroke-width=""1.5"" fill=""none"" />
    <circle cx=554.592 cy=540 r=17.305946507782178 stroke=""none"" stroke-width=""1.5"" fill=""none"" />
    <circle cx=689.48 cy=405.11199999999997 r=17.305946507782178 stroke=""none"" stroke-width=""1.5"" fill=""none"" />
    <polygon points = ""689.48,540 694.3480762229066,557.3059465077822 684.6119237770935,557.3059465077822"" stroke=""none"" stroke-width=""3"" fill = ""none"" />
    
    </svg>
    </div>
        ",,,,,,,,,,,,,,,,,,,,,,,,,,,,,,27
29,html-keyboard-response,29,844043,0.0-29.0,,,,"
    <div style="" display: block;  position: relative;"">
    <svg width=1920 height=1080>
    
    <circle cx=897 cy=540 r=12.114162555447523 stroke=""black"" stroke-width=""1"" fill=""black"" />
    <circle cx=1104.52 cy=540 r=17.305946507782178 stroke=""black"" stroke-width=""1.5"" fill=""none"" />
    <circle cx=1239.408 cy=540 r=17.305946507782178 stroke=""black"" stroke-width=""1.5"" fill=""none"" />
    <circle cx=1104.52 cy=674.888 r=17.305946507782178 stroke=""black"" stroke-width=""1.5"" fill=""none"" />
    <circle cx=969.632 cy=540 r=17.305946507782178 stroke=""black"" stroke-width=""1.5"" fill=""none"" />
    <circle cx=1104.52 cy=405.11199999999997 r=17.305946507782178 stroke=""black"" stroke-width=""1.5"" fill=""none"" />
    <polygon points = ""1104.52,540 1109.3880762229066,522.6940534922178 1099.6519237770933,522.6940534922178"" stroke=""white"" stroke-width=""3"" fill = ""white"" />
    
    </svg>
    </div>
        ",,,,,,,,,,,,stimulus,,,,,,,,,,,,,,,,,,27
30,html-keyboard-response,30,844356,0.0-30.0,310.89999999990687,arrowup,,"
    <div style="" display: block;  position: relative;"">
    
    <svg width=1920 height=1080>
    <circle cx=897 cy=540 r=12.114162555447523 stroke=""black"" stroke-width=""1"" fill=""black"" />
    <circle cx=1239.408 cy=540 r=17.305946507782178 stroke=""none"" stroke-width=""1.5"" fill=""none"" />
    <circle cx=1104.52 cy=674.888 r=17.305946507782178 stroke=""none"" stroke-width=""1.5"" fill=""none"" />
    <circle cx=969.632 cy=540 r=17.305946507782178 stroke=""none"" stroke-width=""1.5"" fill=""none"" />
    <circle cx=1104.52 cy=405.11199999999997 r=17.305946507782178 stroke=""none"" stroke-width=""1.5"" fill=""none"" />
    <polygon points = ""1104.52,540 1109.3880762229066,522.6940534922178 1099.6519237770933,522.6940534922178"" stroke=""none"" stroke-width=""3"" fill = ""none"" />
    
    </svg>
    </div>
        ",,,,,,,,,,,,get_response,True,cXEdleUvGAzbQbkZ,,,False,True,False,207.52,6.0,492.386,134.888,3.89,1.0,0.0,,,,27
31,html-keyboard-response,31,844858,0.0-31.0,,,,"
    <div style="" display: block;  position: relative;"">
    
    <svg width=1920 height=1080>
    <circle cx=897 cy=540 r=12.114162555447523 stroke=""black"" stroke-width=""1"" fill=""black"" />
    <circle cx=1239.408 cy=540 r=17.305946507782178 stroke=""none"" stroke-width=""1.5"" fill=""none"" />
    <circle cx=1104.52 cy=674.888 r=17.305946507782178 stroke=""none"" stroke-width=""1.5"" fill=""none"" />
    <circle cx=969.632 cy=540 r=17.305946507782178 stroke=""none"" stroke-width=""1.5"" fill=""none"" />
    <circle cx=1104.52 cy=405.11199999999997 r=17.305946507782178 stroke=""none"" stroke-width=""1.5"" fill=""none"" />
    <polygon points = ""1104.52,540 1109.3880762229066,522.6940534922178 1099.6519237770933,522.6940534922178"" stroke=""none"" stroke-width=""3"" fill = ""none"" />
    
    </svg>
    </div>
        ",,,,,,,,,,,,,,,,,,,,,,,,,,,,,,27
32,html-keyboard-response,32,845010,0.0-32.0,,,,"
    <div style="" display: block;  position: relative;"">
    <svg width=1920 height=1080>
    
    <circle cx=897 cy=540 r=12.114162555447523 stroke=""black"" stroke-width=""1"" fill=""black"" />
    <circle cx=1104.52 cy=540 r=17.305946507782178 stroke=""black"" stroke-width=""1.5"" fill=""none"" />
    <circle cx=1239.408 cy=540 r=17.305946507782178 stroke=""black"" stroke-width=""1.5"" fill=""none"" />
    <circle cx=1104.52 cy=674.888 r=17.305946507782178 stroke=""black"" stroke-width=""1.5"" fill=""none"" />
    <circle cx=969.632 cy=540 r=17.305946507782178 stroke=""black"" stroke-width=""1.5"" fill=""none"" />
    <circle cx=1104.52 cy=405.11199999999997 r=17.305946507782178 stroke=""black"" stroke-width=""1.5"" fill=""none"" />
    <polygon points = ""1104.52,540 1109.3880762229066,557.3059465077822 1099.6519237770933,557.3059465077822"" stroke=""white"" stroke-width=""3"" fill = ""white"" />
    
    </svg>
    </div>
        ",,,,,,,,,,,,stimulus,,,,,,,,,,,,,,,,,,27
33,html-keyboard-response,33,845604,0.0-33.0,591.6000000000931,arrowdown,,"
    <div style="" display: block;  position: relative;"">
    
    <svg width=1920 height=1080>
    <circle cx=897 cy=540 r=12.114162555447523 stroke=""black"" stroke-width=""1"" fill=""black"" />
    <circle cx=1239.408 cy=540 r=17.305946507782178 stroke=""none"" stroke-width=""1.5"" fill=""none"" />
    <circle cx=1104.52 cy=674.888 r=17.305946507782178 stroke=""none"" stroke-width=""1.5"" fill=""none"" />
    <circle cx=969.632 cy=540 r=17.305946507782178 stroke=""none"" stroke-width=""1.5"" fill=""none"" />
    <circle cx=1104.52 cy=405.11199999999997 r=17.305946507782178 stroke=""none"" stroke-width=""1.5"" fill=""none"" />
    <polygon points = ""1104.52,540 1109.3880762229066,557.3059465077822 1099.6519237770933,557.3059465077822"" stroke=""none"" stroke-width=""3"" fill = ""none"" />
    
    </svg>
    </div>
        ",,,,,,,,,,,,get_response,True,cXEdleUvGAzbQbkZ,,,False,False,False,207.52,6.0,492.386,134.888,3.89,1.0,0.0,,,,27
34,html-keyboard-response,34,846106,0.0-34.0,,,,"
    <div style="" display: block;  position: relative;"">
    
    <svg width=1920 height=1080>
    <circle cx=897 cy=540 r=12.114162555447523 stroke=""black"" stroke-width=""1"" fill=""black"" />
    <circle cx=1239.408 cy=540 r=17.305946507782178 stroke=""none"" stroke-width=""1.5"" fill=""none"" />
    <circle cx=1104.52 cy=674.888 r=17.305946507782178 stroke=""none"" stroke-width=""1.5"" fill=""none"" />
    <circle cx=969.632 cy=540 r=17.305946507782178 stroke=""none"" stroke-width=""1.5"" fill=""none"" />
    <circle cx=1104.52 cy=405.11199999999997 r=17.305946507782178 stroke=""none"" stroke-width=""1.5"" fill=""none"" />
    <polygon points = ""1104.52,540 1109.3880762229066,557.3059465077822 1099.6519237770933,557.3059465077822"" stroke=""none"" stroke-width=""3"" fill = ""none"" />
    
    </svg>
    </div>
        ",,,,,,,,,,,,,,,,,,,,,,,,,,,,,,27
35,html-keyboard-response,35,846259,0.0-35.0,,,,"
    <div style="" display: block;  position: relative;"">
    <svg width=1920 height=1080>
    
    <circle cx=897 cy=540 r=12.114162555447523 stroke=""black"" stroke-width=""1"" fill=""black"" />
    <circle cx=1104.52 cy=540 r=17.305946507782178 stroke=""black"" stroke-width=""1.5"" fill=""none"" />
    <circle cx=1227.1454545454544 cy=540 r=17.305946507782178 stroke=""black"" stroke-width=""1.5"" fill=""none"" />
    <circle cx=1104.52 cy=662.6254545454545 r=17.305946507782178 stroke=""black"" stroke-width=""1.5"" fill=""none"" />
    <circle cx=981.8945454545454 cy=540 r=17.305946507782178 stroke=""black"" stroke-width=""1.5"" fill=""none"" />
    <circle cx=1104.52 cy=417.37454545454545 r=17.305946507782178 stroke=""black"" stroke-width=""1.5"" fill=""none"" />
    <polygon points = ""1104.52,540 1109.3880762229066,557.3059465077822 1099.6519237770933,557.3059465077822"" stroke=""white"" stroke-width=""3"" fill = ""white"" />
    
    </svg>
    </div>
        ",,,,,,,,,,,,stimulus,,,,,,,,,,,,,,,,,,27
36,html-keyboard-response,36,846883,0.0-36.0,622.5,arrowdown,,"
    <div style="" display: block;  position: relative;"">
    
    <svg width=1920 height=1080>
    <circle cx=897 cy=540 r=12.114162555447523 stroke=""black"" stroke-width=""1"" fill=""black"" />
    <circle cx=1227.1454545454544 cy=540 r=17.305946507782178 stroke=""none"" stroke-width=""1.5"" fill=""none"" />
    <circle cx=1104.52 cy=662.6254545454545 r=17.305946507782178 stroke=""none"" stroke-width=""1.5"" fill=""none"" />
    <circle cx=981.8945454545454 cy=540 r=17.305946507782178 stroke=""none"" stroke-width=""1.5"" fill=""none"" />
    <circle cx=1104.52 cy=417.37454545454545 r=17.305946507782178 stroke=""none"" stroke-width=""1.5"" fill=""none"" />
    <polygon points = ""1104.52,540 1109.3880762229066,557.3059465077822 1099.6519237770933,557.3059465077822"" stroke=""none"" stroke-width=""3"" fill = ""none"" />
    
    </svg>
    </div>
        ",,,,,,,,,,,,get_response,True,cXEdleUvGAzbQbkZ,,,False,False,False,207.52,6.0,492.386,122.62545454545456,3.54,1.0,0.0,,,,27
37,html-keyboard-response,37,847385,0.0-37.0,,,,"
    <div style="" display: block;  position: relative;"">
    
    <svg width=1920 height=1080>
    <circle cx=897 cy=540 r=12.114162555447523 stroke=""black"" stroke-width=""1"" fill=""black"" />
    <circle cx=1227.1454545454544 cy=540 r=17.305946507782178 stroke=""none"" stroke-width=""1.5"" fill=""none"" />
    <circle cx=1104.52 cy=662.6254545454545 r=17.305946507782178 stroke=""none"" stroke-width=""1.5"" fill=""none"" />
    <circle cx=981.8945454545454 cy=540 r=17.305946507782178 stroke=""none"" stroke-width=""1.5"" fill=""none"" />
    <circle cx=1104.52 cy=417.37454545454545 r=17.305946507782178 stroke=""none"" stroke-width=""1.5"" fill=""none"" />
    <polygon points = ""1104.52,540 1109.3880762229066,557.3059465077822 1099.6519237770933,557.3059465077822"" stroke=""none"" stroke-width=""3"" fill = ""none"" />
    
    </svg>
    </div>
        ",,,,,,,,,,,,,,,,,,,,,,,,,,,,,,27
38,html-keyboard-response,38,847538,0.0-38.0,,,,"
    <div style="" display: block;  position: relative;"">
    <svg width=1920 height=1080>
    
    <circle cx=897 cy=540 r=12.114162555447523 stroke=""black"" stroke-width=""1"" fill=""black"" />
    <circle cx=689.48 cy=540 r=17.305946507782178 stroke=""black"" stroke-width=""1.5"" fill=""none"" />
    <circle cx=800.9576859504132 cy=540 r=17.305946507782178 stroke=""black"" stroke-width=""1.5"" fill=""none"" />
    <circle cx=689.48 cy=651.4776859504132 r=17.305946507782178 stroke=""black"" stroke-width=""1.5"" fill=""none"" />
    <circle cx=578.0023140495869 cy=540 r=17.305946507782178 stroke=""black"" stroke-width=""1.5"" fill=""none"" />
    <circle cx=689.48 cy=428.5223140495868 r=17.305946507782178 stroke=""black"" stroke-width=""1.5"" fill=""none"" />
    <polygon points = ""689.48,540 694.3480762229066,557.3059465077822 684.6119237770935,557.3059465077822"" stroke=""white"" stroke-width=""3"" fill = ""white"" />
    
    </svg>
    </div>
        ",,,,,,,,,,,,stimulus,,,,,,,,,,,,,,,,,,27
39,html-keyboard-response,39,848148,0.0-39.0,608.2000000001863,arrowdown,,"
    <div style="" display: block;  position: relative;"">
    
    <svg width=1920 height=1080>
    <circle cx=897 cy=540 r=12.114162555447523 stroke=""black"" stroke-width=""1"" fill=""black"" />
    <circle cx=800.9576859504132 cy=540 r=17.305946507782178 stroke=""none"" stroke-width=""1.5"" fill=""none"" />
    <circle cx=689.48 cy=651.4776859504132 r=17.305946507782178 stroke=""none"" stroke-width=""1.5"" fill=""none"" />
    <circle cx=578.0023140495869 cy=540 r=17.305946507782178 stroke=""none"" stroke-width=""1.5"" fill=""none"" />
    <circle cx=689.48 cy=428.5223140495868 r=17.305946507782178 stroke=""none"" stroke-width=""1.5"" fill=""none"" />
    <polygon points = ""689.48,540 694.3480762229066,557.3059465077822 684.6119237770935,557.3059465077822"" stroke=""none"" stroke-width=""3"" fill = ""none"" />
    
    </svg>
    </div>
        ",,,,,,,,,,,,get_response,True,cXEdleUvGAzbQbkZ,,,True,False,False,207.52,6.0,492.386,111.47768595041322,3.21,1.0,0.0,,,,27
40,html-keyboard-response,40,848650,0.0-40.0,,,,"
    <div style="" display: block;  position: relative;"">
    
    <svg width=1920 height=1080>
    <circle cx=897 cy=540 r=12.114162555447523 stroke=""black"" stroke-width=""1"" fill=""black"" />
    <circle cx=800.9576859504132 cy=540 r=17.305946507782178 stroke=""none"" stroke-width=""1.5"" fill=""none"" />
    <circle cx=689.48 cy=651.4776859504132 r=17.305946507782178 stroke=""none"" stroke-width=""1.5"" fill=""none"" />
    <circle cx=578.0023140495869 cy=540 r=17.305946507782178 stroke=""none"" stroke-width=""1.5"" fill=""none"" />
    <circle cx=689.48 cy=428.5223140495868 r=17.305946507782178 stroke=""none"" stroke-width=""1.5"" fill=""none"" />
    <polygon points = ""689.48,540 694.3480762229066,557.3059465077822 684.6119237770935,557.3059465077822"" stroke=""none"" stroke-width=""3"" fill = ""none"" />
    
    </svg>
    </div>
        ",,,,,,,,,,,,,,,,,,,,,,,,,,,,,,27
41,html-keyboard-response,41,848802,0.0-41.0,,,,"
    <div style="" display: block;  position: relative;"">
    <svg width=1920 height=1080>
    
    <circle cx=897 cy=540 r=12.114162555447523 stroke=""black"" stroke-width=""1"" fill=""black"" />
    <circle cx=689.48 cy=540 r=17.305946507782178 stroke=""black"" stroke-width=""1.5"" fill=""none"" />
    <circle cx=790.823350864012 cy=540 r=17.305946507782178 stroke=""black"" stroke-width=""1.5"" fill=""none"" />
    <circle cx=689.48 cy=641.343350864012 r=17.305946507782178 stroke=""black"" stroke-width=""1.5"" fill=""none"" />
    <circle cx=588.136649135988 cy=540 r=17.305946507782178 stroke=""black"" stroke-width=""1.5"" fill=""none"" />
    <circle cx=689.48 cy=438.656649135988 r=17.305946507782178 stroke=""black"" stroke-width=""1.5"" fill=""none"" />
    <polygon points = ""689.48,540 694.3480762229066,522.6940534922178 684.6119237770935,522.6940534922178"" stroke=""white"" stroke-width=""3"" fill = ""white"" />
    
    </svg>
    </div>
        ",,,,,,,,,,,,stimulus,,,,,,,,,,,,,,,,,,27
42,html-keyboard-response,42,849332,0.0-42.0,528.0,arrowup,,"
    <div style="" display: block;  position: relative;"">
    
    <svg width=1920 height=1080>
    <circle cx=897 cy=540 r=12.114162555447523 stroke=""black"" stroke-width=""1"" fill=""black"" />
    <circle cx=790.823350864012 cy=540 r=17.305946507782178 stroke=""none"" stroke-width=""1.5"" fill=""none"" />
    <circle cx=689.48 cy=641.343350864012 r=17.305946507782178 stroke=""none"" stroke-width=""1.5"" fill=""none"" />
    <circle cx=588.136649135988 cy=540 r=17.305946507782178 stroke=""none"" stroke-width=""1.5"" fill=""none"" />
    <circle cx=689.48 cy=438.656649135988 r=17.305946507782178 stroke=""none"" stroke-width=""1.5"" fill=""none"" />
    <polygon points = ""689.48,540 694.3480762229066,522.6940534922178 684.6119237770935,522.6940534922178"" stroke=""none"" stroke-width=""3"" fill = ""none"" />
    
    </svg>
    </div>
        ",,,,,,,,,,,,get_response,True,cXEdleUvGAzbQbkZ,,,True,True,False,207.52,6.0,492.386,101.343350864012,2.92,1.0,0.0,,,,27
43,html-keyboard-response,43,849834,0.0-43.0,,,,"
    <div style="" display: block;  position: relative;"">
    
    <svg width=1920 height=1080>
    <circle cx=897 cy=540 r=12.114162555447523 stroke=""black"" stroke-width=""1"" fill=""black"" />
    <circle cx=790.823350864012 cy=540 r=17.305946507782178 stroke=""none"" stroke-width=""1.5"" fill=""none"" />
    <circle cx=689.48 cy=641.343350864012 r=17.305946507782178 stroke=""none"" stroke-width=""1.5"" fill=""none"" />
    <circle cx=588.136649135988 cy=540 r=17.305946507782178 stroke=""none"" stroke-width=""1.5"" fill=""none"" />
    <circle cx=689.48 cy=438.656649135988 r=17.305946507782178 stroke=""none"" stroke-width=""1.5"" fill=""none"" />
    <polygon points = ""689.48,540 694.3480762229066,522.6940534922178 684.6119237770935,522.6940534922178"" stroke=""none"" stroke-width=""3"" fill = ""none"" />
    
    </svg>
    </div>
        ",,,,,,,,,,,,,,,,,,,,,,,,,,,,,,27
44,html-keyboard-response,44,849986,0.0-44.0,,,,"
    <div style="" display: block;  position: relative;"">
    <svg width=1920 height=1080>
    
    <circle cx=897 cy=540 r=12.114162555447523 stroke=""black"" stroke-width=""1"" fill=""black"" />
    <circle cx=1104.52 cy=540 r=17.305946507782178 stroke=""black"" stroke-width=""1.5"" fill=""none"" />
    <circle cx=1196.6503189672835 cy=540 r=17.305946507782178 stroke=""black"" stroke-width=""1.5"" fill=""none"" />
    <circle cx=1104.52 cy=632.1303189672836 r=17.305946507782178 stroke=""black"" stroke-width=""1.5"" fill=""none"" />
    <circle cx=1012.3896810327163 cy=540 r=17.305946507782178 stroke=""black"" stroke-width=""1.5"" fill=""none"" />
    <circle cx=1104.52 cy=447.86968103271636 r=17.305946507782178 stroke=""black"" stroke-width=""1.5"" fill=""none"" />
    <polygon points = ""1104.52,540 1109.3880762229066,557.3059465077822 1099.6519237770933,557.3059465077822"" stroke=""white"" stroke-width=""3"" fill = ""white"" />
    
    </svg>
    </div>
        ",,,,,,,,,,,,stimulus,,,,,,,,,,,,,,,,,,27
45,html-keyboard-response,45,850340,0.0-45.0,351.60000000009313,arrowdown,,"
    <div style="" display: block;  position: relative;"">
    
    <svg width=1920 height=1080>
    <circle cx=897 cy=540 r=12.114162555447523 stroke=""black"" stroke-width=""1"" fill=""black"" />
    <circle cx=1196.6503189672835 cy=540 r=17.305946507782178 stroke=""none"" stroke-width=""1.5"" fill=""none"" />
    <circle cx=1104.52 cy=632.1303189672836 r=17.305946507782178 stroke=""none"" stroke-width=""1.5"" fill=""none"" />
    <circle cx=1012.3896810327163 cy=540 r=17.305946507782178 stroke=""none"" stroke-width=""1.5"" fill=""none"" />
    <circle cx=1104.52 cy=447.86968103271636 r=17.305946507782178 stroke=""none"" stroke-width=""1.5"" fill=""none"" />
    <polygon points = ""1104.52,540 1109.3880762229066,557.3059465077822 1099.6519237770933,557.3059465077822"" stroke=""none"" stroke-width=""3"" fill = ""none"" />
    
    </svg>
    </div>
        ",,,,,,,,,,,,get_response,True,cXEdleUvGAzbQbkZ,,,False,False,False,207.52,6.0,492.386,92.13031896728364,2.66,1.0,0.0,,,,27
46,html-keyboard-response,46,850842,0.0-46.0,,,,"
    <div style="" display: block;  position: relative;"">
    
    <svg width=1920 height=1080>
    <circle cx=897 cy=540 r=12.114162555447523 stroke=""black"" stroke-width=""1"" fill=""black"" />
    <circle cx=1196.6503189672835 cy=540 r=17.305946507782178 stroke=""none"" stroke-width=""1.5"" fill=""none"" />
    <circle cx=1104.52 cy=632.1303189672836 r=17.305946507782178 stroke=""none"" stroke-width=""1.5"" fill=""none"" />
    <circle cx=1012.3896810327163 cy=540 r=17.305946507782178 stroke=""none"" stroke-width=""1.5"" fill=""none"" />
    <circle cx=1104.52 cy=447.86968103271636 r=17.305946507782178 stroke=""none"" stroke-width=""1.5"" fill=""none"" />
    <polygon points = ""1104.52,540 1109.3880762229066,557.3059465077822 1099.6519237770933,557.3059465077822"" stroke=""none"" stroke-width=""3"" fill = ""none"" />
    
    </svg>
    </div>
        ",,,,,,,,,,,,,,,,,,,,,,,,,,,,,,27
47,html-keyboard-response,47,850994,0.0-47.0,,,,"
    <div style="" display: block;  position: relative;"">
    <svg width=1920 height=1080>
    
    <circle cx=897 cy=540 r=12.114162555447523 stroke=""black"" stroke-width=""1"" fill=""black"" />
    <circle cx=689.48 cy=540 r=17.305946507782178 stroke=""black"" stroke-width=""1.5"" fill=""none"" />
    <circle cx=773.2348354248034 cy=540 r=17.305946507782178 stroke=""black"" stroke-width=""1.5"" fill=""none"" />
    <circle cx=689.48 cy=623.7548354248033 r=17.305946507782178 stroke=""black"" stroke-width=""1.5"" fill=""none"" />
    <circle cx=605.7251645751967 cy=540 r=17.305946507782178 stroke=""black"" stroke-width=""1.5"" fill=""none"" />
    <circle cx=689.48 cy=456.24516457519667 r=17.305946507782178 stroke=""black"" stroke-width=""1.5"" fill=""none"" />
    <polygon points = ""689.48,540 694.3480762229066,557.3059465077822 684.6119237770935,557.3059465077822"" stroke=""white"" stroke-width=""3"" fill = ""white"" />
    
    </svg>
    </div>
        ",,,,,,,,,,,,stimulus,,,,,,,,,,,,,,,,,,27
48,html-keyboard-response,48,851404,0.0-48.0,407.89999999990687,arrowdown,,"
    <div style="" display: block;  position: relative;"">
    
    <svg width=1920 height=1080>
    <circle cx=897 cy=540 r=12.114162555447523 stroke=""black"" stroke-width=""1"" fill=""black"" />
    <circle cx=773.2348354248034 cy=540 r=17.305946507782178 stroke=""none"" stroke-width=""1.5"" fill=""none"" />
    <circle cx=689.48 cy=623.7548354248033 r=17.305946507782178 stroke=""none"" stroke-width=""1.5"" fill=""none"" />
    <circle cx=605.7251645751967 cy=540 r=17.305946507782178 stroke=""none"" stroke-width=""1.5"" fill=""none"" />
    <circle cx=689.48 cy=456.24516457519667 r=17.305946507782178 stroke=""none"" stroke-width=""1.5"" fill=""none"" />
    <polygon points = ""689.48,540 694.3480762229066,557.3059465077822 684.6119237770935,557.3059465077822"" stroke=""none"" stroke-width=""3"" fill = ""none"" />
    
    </svg>
    </div>
        ",,,,,,,,,,,,get_response,True,cXEdleUvGAzbQbkZ,,,True,False,False,207.52,6.0,492.386,83.7548354248033,2.41,1.0,0.0,,,,27
49,html-keyboard-response,49,851906,0.0-49.0,,,,"
    <div style="" display: block;  position: relative;"">
    
    <svg width=1920 height=1080>
    <circle cx=897 cy=540 r=12.114162555447523 stroke=""black"" stroke-width=""1"" fill=""black"" />
    <circle cx=773.2348354248034 cy=540 r=17.305946507782178 stroke=""none"" stroke-width=""1.5"" fill=""none"" />
    <circle cx=689.48 cy=623.7548354248033 r=17.305946507782178 stroke=""none"" stroke-width=""1.5"" fill=""none"" />
    <circle cx=605.7251645751967 cy=540 r=17.305946507782178 stroke=""none"" stroke-width=""1.5"" fill=""none"" />
    <circle cx=689.48 cy=456.24516457519667 r=17.305946507782178 stroke=""none"" stroke-width=""1.5"" fill=""none"" />
    <polygon points = ""689.48,540 694.3480762229066,557.3059465077822 684.6119237770935,557.3059465077822"" stroke=""none"" stroke-width=""3"" fill = ""none"" />
    
    </svg>
    </div>
        ",,,,,,,,,,,,,,,,,,,,,,,,,,,,,,27
50,html-keyboard-response,50,852058,0.0-50.0,,,,"
    <div style="" display: block;  position: relative;"">
    <svg width=1920 height=1080>
    
    <circle cx=897 cy=540 r=12.114162555447523 stroke=""black"" stroke-width=""1"" fill=""black"" />
    <circle cx=1104.52 cy=540 r=17.305946507782178 stroke=""black"" stroke-width=""1.5"" fill=""none"" />
    <circle cx=1180.660759477094 cy=540 r=17.305946507782178 stroke=""black"" stroke-width=""1.5"" fill=""none"" />
    <circle cx=1104.52 cy=616.1407594770939 r=17.305946507782178 stroke=""black"" stroke-width=""1.5"" fill=""none"" />
    <circle cx=1028.379240522906 cy=540 r=17.305946507782178 stroke=""black"" stroke-width=""1.5"" fill=""none"" />
    <circle cx=1104.52 cy=463.8592405229061 r=17.305946507782178 stroke=""black"" stroke-width=""1.5"" fill=""none"" />
    <polygon points = ""1104.52,540 1109.3880762229066,557.3059465077822 1099.6519237770933,557.3059465077822"" stroke=""white"" stroke-width=""3"" fill = ""white"" />
    
    </svg>
    </div>
        ",,,,,,,,,,,,stimulus,,,,,,,,,,,,,,,,,,27
51,html-keyboard-response,51,852452,0.0-51.0,392.2000000001863,arrowdown,,"
    <div style="" display: block;  position: relative;"">
    
    <svg width=1920 height=1080>
    <circle cx=897 cy=540 r=12.114162555447523 stroke=""black"" stroke-width=""1"" fill=""black"" />
    <circle cx=1180.660759477094 cy=540 r=17.305946507782178 stroke=""none"" stroke-width=""1.5"" fill=""none"" />
    <circle cx=1104.52 cy=616.1407594770939 r=17.305946507782178 stroke=""none"" stroke-width=""1.5"" fill=""none"" />
    <circle cx=1028.379240522906 cy=540 r=17.305946507782178 stroke=""none"" stroke-width=""1.5"" fill=""none"" />
    <circle cx=1104.52 cy=463.8592405229061 r=17.305946507782178 stroke=""none"" stroke-width=""1.5"" fill=""none"" />
    <polygon points = ""1104.52,540 1109.3880762229066,557.3059465077822 1099.6519237770933,557.3059465077822"" stroke=""none"" stroke-width=""3"" fill = ""none"" />
    
    </svg>
    </div>
        ",,,,,,,,,,,,get_response,True,cXEdleUvGAzbQbkZ,,,False,False,False,207.52,6.0,492.386,76.14075947709391,2.19,1.0,0.0,,,,27
52,html-keyboard-response,52,852954,0.0-52.0,,,,"
    <div style="" display: block;  position: relative;"">
    
    <svg width=1920 height=1080>
    <circle cx=897 cy=540 r=12.114162555447523 stroke=""black"" stroke-width=""1"" fill=""black"" />
    <circle cx=1180.660759477094 cy=540 r=17.305946507782178 stroke=""none"" stroke-width=""1.5"" fill=""none"" />
    <circle cx=1104.52 cy=616.1407594770939 r=17.305946507782178 stroke=""none"" stroke-width=""1.5"" fill=""none"" />
    <circle cx=1028.379240522906 cy=540 r=17.305946507782178 stroke=""none"" stroke-width=""1.5"" fill=""none"" />
    <circle cx=1104.52 cy=463.8592405229061 r=17.305946507782178 stroke=""none"" stroke-width=""1.5"" fill=""none"" />
    <polygon points = ""1104.52,540 1109.3880762229066,557.3059465077822 1099.6519237770933,557.3059465077822"" stroke=""none"" stroke-width=""3"" fill = ""none"" />
    
    </svg>
    </div>
        ",,,,,,,,,,,,,,,,,,,,,,,,,,,,,,27
53,html-keyboard-response,53,853107,0.0-53.0,,,,"
    <div style="" display: block;  position: relative;"">
    <svg width=1920 height=1080>
    
    <circle cx=897 cy=540 r=12.114162555447523 stroke=""black"" stroke-width=""1"" fill=""black"" />
    <circle cx=689.48 cy=540 r=17.305946507782178 stroke=""black"" stroke-width=""1.5"" fill=""none"" />
    <circle cx=758.6988722519036 cy=540 r=17.305946507782178 stroke=""black"" stroke-width=""1.5"" fill=""none"" />
    <circle cx=689.48 cy=609.2188722519036 r=17.305946507782178 stroke=""black"" stroke-width=""1.5"" fill=""none"" />
    <circle cx=620.2611277480964 cy=540 r=17.305946507782178 stroke=""black"" stroke-width=""1.5"" fill=""none"" />
    <circle cx=689.48 cy=470.7811277480964 r=17.305946507782178 stroke=""black"" stroke-width=""1.5"" fill=""none"" />
    <polygon points = ""689.48,540 694.3480762229066,522.6940534922178 684.6119237770935,522.6940534922178"" stroke=""white"" stroke-width=""3"" fill = ""white"" />
    
    </svg>
    </div>
        ",,,,,,,,,,,,stimulus,,,,,,,,,,,,,,,,,,27
54,html-keyboard-response,54,853588,0.0-54.0,479.2000000001863,arrowup,,"
    <div style="" display: block;  position: relative;"">
    
    <svg width=1920 height=1080>
    <circle cx=897 cy=540 r=12.114162555447523 stroke=""black"" stroke-width=""1"" fill=""black"" />
    <circle cx=758.6988722519036 cy=540 r=17.305946507782178 stroke=""none"" stroke-width=""1.5"" fill=""none"" />
    <circle cx=689.48 cy=609.2188722519036 r=17.305946507782178 stroke=""none"" stroke-width=""1.5"" fill=""none"" />
    <circle cx=620.2611277480964 cy=540 r=17.305946507782178 stroke=""none"" stroke-width=""1.5"" fill=""none"" />
    <circle cx=689.48 cy=470.7811277480964 r=17.305946507782178 stroke=""none"" stroke-width=""1.5"" fill=""none"" />
    <polygon points = ""689.48,540 694.3480762229066,522.6940534922178 684.6119237770935,522.6940534922178"" stroke=""none"" stroke-width=""3"" fill = ""none"" />
    
    </svg>
    </div>
        ",,,,,,,,,,,,get_response,True,cXEdleUvGAzbQbkZ,,,True,True,False,207.52,6.0,492.386,69.21887225190355,1.99,1.0,0.0,,,,27
55,html-keyboard-response,55,854090,0.0-55.0,,,,"
    <div style="" display: block;  position: relative;"">
    
    <svg width=1920 height=1080>
    <circle cx=897 cy=540 r=12.114162555447523 stroke=""black"" stroke-width=""1"" fill=""black"" />
    <circle cx=758.6988722519036 cy=540 r=17.305946507782178 stroke=""none"" stroke-width=""1.5"" fill=""none"" />
    <circle cx=689.48 cy=609.2188722519036 r=17.305946507782178 stroke=""none"" stroke-width=""1.5"" fill=""none"" />
    <circle cx=620.2611277480964 cy=540 r=17.305946507782178 stroke=""none"" stroke-width=""1.5"" fill=""none"" />
    <circle cx=689.48 cy=470.7811277480964 r=17.305946507782178 stroke=""none"" stroke-width=""1.5"" fill=""none"" />
    <polygon points = ""689.48,540 694.3480762229066,522.6940534922178 684.6119237770935,522.6940534922178"" stroke=""none"" stroke-width=""3"" fill = ""none"" />
    
    </svg>
    </div>
        ",,,,,,,,,,,,,,,,,,,,,,,,,,,,,,27
56,html-keyboard-response,56,854242,0.0-56.0,,,,"
    <div style="" display: block;  position: relative;"">
    <svg width=1920 height=1080>
    
    <circle cx=897 cy=540 r=12.114162555447523 stroke=""black"" stroke-width=""1"" fill=""black"" />
    <circle cx=689.48 cy=540 r=17.305946507782178 stroke=""black"" stroke-width=""1.5"" fill=""none"" />
    <circle cx=752.4062475017305 cy=540 r=17.305946507782178 stroke=""black"" stroke-width=""1.5"" fill=""none"" />
    <circle cx=689.48 cy=602.9262475017305 r=17.305946507782178 stroke=""black"" stroke-width=""1.5"" fill=""none"" />
    <circle cx=626.5537524982695 cy=540 r=17.305946507782178 stroke=""black"" stroke-width=""1.5"" fill=""none"" />
    <circle cx=689.48 cy=477.0737524982695 r=17.305946507782178 stroke=""black"" stroke-width=""1.5"" fill=""none"" />
    <polygon points = ""689.48,540 694.3480762229066,522.6940534922178 684.6119237770935,522.6940534922178"" stroke=""white"" stroke-width=""3"" fill = ""white"" />
    
    </svg>
    </div>
        ",,,,,,,,,,,,stimulus,,,,,,,,,,,,,,,,,,27
57,html-keyboard-response,57,854844,0.0-57.0,599.3999999999069,arrowdown,,"
    <div style="" display: block;  position: relative;"">
    
    <svg width=1920 height=1080>
    <circle cx=897 cy=540 r=12.114162555447523 stroke=""black"" stroke-width=""1"" fill=""black"" />
    <circle cx=752.4062475017305 cy=540 r=17.305946507782178 stroke=""none"" stroke-width=""1.5"" fill=""none"" />
    <circle cx=689.48 cy=602.9262475017305 r=17.305946507782178 stroke=""none"" stroke-width=""1.5"" fill=""none"" />
    <circle cx=626.5537524982695 cy=540 r=17.305946507782178 stroke=""none"" stroke-width=""1.5"" fill=""none"" />
    <circle cx=689.48 cy=477.0737524982695 r=17.305946507782178 stroke=""none"" stroke-width=""1.5"" fill=""none"" />
    <polygon points = ""689.48,540 694.3480762229066,522.6940534922178 684.6119237770935,522.6940534922178"" stroke=""none"" stroke-width=""3"" fill = ""none"" />
    
    </svg>
    </div>
        ",,,,,,,,,,,,get_response,False,cXEdleUvGAzbQbkZ,,,True,True,False,207.52,6.0,492.386,62.926247501730494,1.81,1.0,0.0,,,,27
58,html-keyboard-response,58,855346,0.0-58.0,,,,"
    <div style="" display: block;  position: relative;"">
    
    <svg width=1920 height=1080>
    <circle cx=897 cy=540 r=12.114162555447523 stroke=""black"" stroke-width=""1"" fill=""black"" />
    <circle cx=752.4062475017305 cy=540 r=17.305946507782178 stroke=""none"" stroke-width=""1.5"" fill=""none"" />
    <circle cx=689.48 cy=602.9262475017305 r=17.305946507782178 stroke=""none"" stroke-width=""1.5"" fill=""none"" />
    <circle cx=626.5537524982695 cy=540 r=17.305946507782178 stroke=""none"" stroke-width=""1.5"" fill=""none"" />
    <circle cx=689.48 cy=477.0737524982695 r=17.305946507782178 stroke=""none"" stroke-width=""1.5"" fill=""none"" />
    <polygon points = ""689.48,540 694.3480762229066,522.6940534922178 684.6119237770935,522.6940534922178"" stroke=""none"" stroke-width=""3"" fill = ""none"" />
    
    </svg>
    </div>
        ",,,,,,,,,,,,,,,,,,,,,,,,,,,,,,27
59,html-keyboard-response,59,855498,0.0-59.0,,,,"
    <div style="" display: block;  position: relative;"">
    <svg width=1920 height=1080>
    
    <circle cx=897 cy=540 r=12.114162555447523 stroke=""black"" stroke-width=""1"" fill=""black"" />
    <circle cx=689.48 cy=540 r=17.305946507782178 stroke=""black"" stroke-width=""1.5"" fill=""none"" />
    <circle cx=771.2841217522497 cy=540 r=17.305946507782178 stroke=""black"" stroke-width=""1.5"" fill=""none"" />
    <circle cx=689.48 cy=621.8041217522497 r=17.305946507782178 stroke=""black"" stroke-width=""1.5"" fill=""none"" />
    <circle cx=607.6758782477503 cy=540 r=17.305946507782178 stroke=""black"" stroke-width=""1.5"" fill=""none"" />
    <circle cx=689.48 cy=458.19587824775033 r=17.305946507782178 stroke=""black"" stroke-width=""1.5"" fill=""none"" />
    <polygon points = ""689.48,540 694.3480762229066,557.3059465077822 684.6119237770935,557.3059465077822"" stroke=""white"" stroke-width=""3"" fill = ""white"" />
    
    </svg>
    </div>
        ",,,,,,,,,,,,stimulus,,,,,,,,,,,,,,,,,,27
60,html-keyboard-response,60,856020,0.0-60.0,519.3999999999069,arrowdown,,"
    <div style="" display: block;  position: relative;"">
    
    <svg width=1920 height=1080>
    <circle cx=897 cy=540 r=12.114162555447523 stroke=""black"" stroke-width=""1"" fill=""black"" />
    <circle cx=771.2841217522497 cy=540 r=17.305946507782178 stroke=""none"" stroke-width=""1.5"" fill=""none"" />
    <circle cx=689.48 cy=621.8041217522497 r=17.305946507782178 stroke=""none"" stroke-width=""1.5"" fill=""none"" />
    <circle cx=607.6758782477503 cy=540 r=17.305946507782178 stroke=""none"" stroke-width=""1.5"" fill=""none"" />
    <circle cx=689.48 cy=458.19587824775033 r=17.305946507782178 stroke=""none"" stroke-width=""1.5"" fill=""none"" />
    <polygon points = ""689.48,540 694.3480762229066,557.3059465077822 684.6119237770935,557.3059465077822"" stroke=""none"" stroke-width=""3"" fill = ""none"" />
    
    </svg>
    </div>
        ",,,,,,,,,,,,get_response,True,cXEdleUvGAzbQbkZ,,,True,False,False,207.52,6.0,492.386,81.80412175224964,2.36,1.0,0.0,,,,27
61,html-keyboard-response,61,856522,0.0-61.0,,,,"
    <div style="" display: block;  position: relative;"">
    
    <svg width=1920 height=1080>
    <circle cx=897 cy=540 r=12.114162555447523 stroke=""black"" stroke-width=""1"" fill=""black"" />
    <circle cx=771.2841217522497 cy=540 r=17.305946507782178 stroke=""none"" stroke-width=""1.5"" fill=""none"" />
    <circle cx=689.48 cy=621.8041217522497 r=17.305946507782178 stroke=""none"" stroke-width=""1.5"" fill=""none"" />
    <circle cx=607.6758782477503 cy=540 r=17.305946507782178 stroke=""none"" stroke-width=""1.5"" fill=""none"" />
    <circle cx=689.48 cy=458.19587824775033 r=17.305946507782178 stroke=""none"" stroke-width=""1.5"" fill=""none"" />
    <polygon points = ""689.48,540 694.3480762229066,557.3059465077822 684.6119237770935,557.3059465077822"" stroke=""none"" stroke-width=""3"" fill = ""none"" />
    
    </svg>
    </div>
        ",,,,,,,,,,,,,,,,,,,,,,,,,,,,,,27
62,html-keyboard-response,62,856674,0.0-62.0,,,,"
    <div style="" display: block;  position: relative;"">
    <svg width=1920 height=1080>
    
    <circle cx=897 cy=540 r=12.114162555447523 stroke=""black"" stroke-width=""1"" fill=""black"" />
    <circle cx=689.48 cy=540 r=17.305946507782178 stroke=""black"" stroke-width=""1.5"" fill=""none"" />
    <circle cx=771.2841217522497 cy=540 r=17.305946507782178 stroke=""black"" stroke-width=""1.5"" fill=""none"" />
    <circle cx=689.48 cy=621.8041217522497 r=17.305946507782178 stroke=""black"" stroke-width=""1.5"" fill=""none"" />
    <circle cx=607.6758782477503 cy=540 r=17.305946507782178 stroke=""black"" stroke-width=""1.5"" fill=""none"" />
    <circle cx=689.48 cy=458.19587824775033 r=17.305946507782178 stroke=""black"" stroke-width=""1.5"" fill=""none"" />
    <polygon points = ""689.48,540 694.3480762229066,557.3059465077822 684.6119237770935,557.3059465077822"" stroke=""white"" stroke-width=""3"" fill = ""white"" />
    
    </svg>
    </div>
        ",,,,,,,,,,,,stimulus,,,,,,,,,,,,,,,,,,27
63,html-keyboard-response,63,857164,0.0-63.0,487.60000000009313,arrowdown,,"
    <div style="" display: block;  position: relative;"">
    
    <svg width=1920 height=1080>
    <circle cx=897 cy=540 r=12.114162555447523 stroke=""black"" stroke-width=""1"" fill=""black"" />
    <circle cx=771.2841217522497 cy=540 r=17.305946507782178 stroke=""none"" stroke-width=""1.5"" fill=""none"" />
    <circle cx=689.48 cy=621.8041217522497 r=17.305946507782178 stroke=""none"" stroke-width=""1.5"" fill=""none"" />
    <circle cx=607.6758782477503 cy=540 r=17.305946507782178 stroke=""none"" stroke-width=""1.5"" fill=""none"" />
    <circle cx=689.48 cy=458.19587824775033 r=17.305946507782178 stroke=""none"" stroke-width=""1.5"" fill=""none"" />
    <polygon points = ""689.48,540 694.3480762229066,557.3059465077822 684.6119237770935,557.3059465077822"" stroke=""none"" stroke-width=""3"" fill = ""none"" />
    
    </svg>
    </div>
        ",,,,,,,,,,,,get_response,True,cXEdleUvGAzbQbkZ,,,True,False,False,207.52,6.0,492.386,81.80412175224964,2.36,1.0,0.0,,,,27
64,html-keyboard-response,64,857666,0.0-64.0,,,,"
    <div style="" display: block;  position: relative;"">
    
    <svg width=1920 height=1080>
    <circle cx=897 cy=540 r=12.114162555447523 stroke=""black"" stroke-width=""1"" fill=""black"" />
    <circle cx=771.2841217522497 cy=540 r=17.305946507782178 stroke=""none"" stroke-width=""1.5"" fill=""none"" />
    <circle cx=689.48 cy=621.8041217522497 r=17.305946507782178 stroke=""none"" stroke-width=""1.5"" fill=""none"" />
    <circle cx=607.6758782477503 cy=540 r=17.305946507782178 stroke=""none"" stroke-width=""1.5"" fill=""none"" />
    <circle cx=689.48 cy=458.19587824775033 r=17.305946507782178 stroke=""none"" stroke-width=""1.5"" fill=""none"" />
    <polygon points = ""689.48,540 694.3480762229066,557.3059465077822 684.6119237770935,557.3059465077822"" stroke=""none"" stroke-width=""3"" fill = ""none"" />
    
    </svg>
    </div>
        ",,,,,,,,,,,,,,,,,,,,,,,,,,,,,,27
65,html-keyboard-response,65,857818,0.0-65.0,,,,"
    <div style="" display: block;  position: relative;"">
    <svg width=1920 height=1080>
    
    <circle cx=897 cy=540 r=12.114162555447523 stroke=""black"" stroke-width=""1"" fill=""black"" />
    <circle cx=1104.52 cy=540 r=17.305946507782178 stroke=""black"" stroke-width=""1.5"" fill=""none"" />
    <circle cx=1186.3241217522495 cy=540 r=17.305946507782178 stroke=""black"" stroke-width=""1.5"" fill=""none"" />
    <circle cx=1104.52 cy=621.8041217522497 r=17.305946507782178 stroke=""black"" stroke-width=""1.5"" fill=""none"" />
    <circle cx=1022.7158782477503 cy=540 r=17.305946507782178 stroke=""black"" stroke-width=""1.5"" fill=""none"" />
    <circle cx=1104.52 cy=458.19587824775033 r=17.305946507782178 stroke=""black"" stroke-width=""1.5"" fill=""none"" />
    <polygon points = ""1104.52,540 1109.3880762229066,557.3059465077822 1099.6519237770933,557.3059465077822"" stroke=""white"" stroke-width=""3"" fill = ""white"" />
    
    </svg>
    </div>
        ",,,,,,,,,,,,stimulus,,,,,,,,,,,,,,,,,,27
66,html-keyboard-response,66,858084,0.0-66.0,263.1999999997206,arrowup,,"
    <div style="" display: block;  position: relative;"">
    
    <svg width=1920 height=1080>
    <circle cx=897 cy=540 r=12.114162555447523 stroke=""black"" stroke-width=""1"" fill=""black"" />
    <circle cx=1186.3241217522495 cy=540 r=17.305946507782178 stroke=""none"" stroke-width=""1.5"" fill=""none"" />
    <circle cx=1104.52 cy=621.8041217522497 r=17.305946507782178 stroke=""none"" stroke-width=""1.5"" fill=""none"" />
    <circle cx=1022.7158782477503 cy=540 r=17.305946507782178 stroke=""none"" stroke-width=""1.5"" fill=""none"" />
    <circle cx=1104.52 cy=458.19587824775033 r=17.305946507782178 stroke=""none"" stroke-width=""1.5"" fill=""none"" />
    <polygon points = ""1104.52,540 1109.3880762229066,557.3059465077822 1099.6519237770933,557.3059465077822"" stroke=""none"" stroke-width=""3"" fill = ""none"" />
    
    </svg>
    </div>
        ",,,,,,,,,,,,get_response,False,cXEdleUvGAzbQbkZ,,,False,False,False,207.52,6.0,492.386,81.80412175224964,2.36,1.0,0.0,,,,27
67,html-keyboard-response,67,858586,0.0-67.0,,,,"
    <div style="" display: block;  position: relative;"">
    
    <svg width=1920 height=1080>
    <circle cx=897 cy=540 r=12.114162555447523 stroke=""black"" stroke-width=""1"" fill=""black"" />
    <circle cx=1186.3241217522495 cy=540 r=17.305946507782178 stroke=""none"" stroke-width=""1.5"" fill=""none"" />
    <circle cx=1104.52 cy=621.8041217522497 r=17.305946507782178 stroke=""none"" stroke-width=""1.5"" fill=""none"" />
    <circle cx=1022.7158782477503 cy=540 r=17.305946507782178 stroke=""none"" stroke-width=""1.5"" fill=""none"" />
    <circle cx=1104.52 cy=458.19587824775033 r=17.305946507782178 stroke=""none"" stroke-width=""1.5"" fill=""none"" />
    <polygon points = ""1104.52,540 1109.3880762229066,557.3059465077822 1099.6519237770933,557.3059465077822"" stroke=""none"" stroke-width=""3"" fill = ""none"" />
    
    </svg>
    </div>
        ",,,,,,,,,,,,,,,,,,,,,,,,,,,,,,27
68,html-keyboard-response,68,858738,0.0-68.0,,,,"
    <div style="" display: block;  position: relative;"">
    <svg width=1920 height=1080>
    
    <circle cx=897 cy=540 r=12.114162555447523 stroke=""black"" stroke-width=""1"" fill=""black"" />
    <circle cx=689.48 cy=540 r=17.305946507782178 stroke=""black"" stroke-width=""1.5"" fill=""none"" />
    <circle cx=795.8253582779246 cy=540 r=17.305946507782178 stroke=""black"" stroke-width=""1.5"" fill=""none"" />
    <circle cx=689.48 cy=646.3453582779246 r=17.305946507782178 stroke=""black"" stroke-width=""1.5"" fill=""none"" />
    <circle cx=583.1346417220755 cy=540 r=17.305946507782178 stroke=""black"" stroke-width=""1.5"" fill=""none"" />
    <circle cx=689.48 cy=433.65464172207544 r=17.305946507782178 stroke=""black"" stroke-width=""1.5"" fill=""none"" />
    <polygon points = ""689.48,540 694.3480762229066,557.3059465077822 684.6119237770935,557.3059465077822"" stroke=""white"" stroke-width=""3"" fill = ""white"" />
    
    </svg>
    </div>
        ",,,,,,,,,,,,stimulus,,,,,,,,,,,,,,,,,,27
69,html-keyboard-response,69,859092,0.0-69.0,351.70000000018626,arrowdown,,"
    <div style="" display: block;  position: relative;"">
    
    <svg width=1920 height=1080>
    <circle cx=897 cy=540 r=12.114162555447523 stroke=""black"" stroke-width=""1"" fill=""black"" />
    <circle cx=795.8253582779246 cy=540 r=17.305946507782178 stroke=""none"" stroke-width=""1.5"" fill=""none"" />
    <circle cx=689.48 cy=646.3453582779246 r=17.305946507782178 stroke=""none"" stroke-width=""1.5"" fill=""none"" />
    <circle cx=583.1346417220755 cy=540 r=17.305946507782178 stroke=""none"" stroke-width=""1.5"" fill=""none"" />
    <circle cx=689.48 cy=433.65464172207544 r=17.305946507782178 stroke=""none"" stroke-width=""1.5"" fill=""none"" />
    <polygon points = ""689.48,540 694.3480762229066,557.3059465077822 684.6119237770935,557.3059465077822"" stroke=""none"" stroke-width=""3"" fill = ""none"" />
    
    </svg>
    </div>
        ",,,,,,,,,,,,get_response,True,cXEdleUvGAzbQbkZ,,,True,False,False,207.52,6.0,492.386,106.34535827792452,3.07,1.0,0.0,,,,27
70,html-keyboard-response,70,859594,0.0-70.0,,,,"
    <div style="" display: block;  position: relative;"">
    
    <svg width=1920 height=1080>
    <circle cx=897 cy=540 r=12.114162555447523 stroke=""black"" stroke-width=""1"" fill=""black"" />
    <circle cx=795.8253582779246 cy=540 r=17.305946507782178 stroke=""none"" stroke-width=""1.5"" fill=""none"" />
    <circle cx=689.48 cy=646.3453582779246 r=17.305946507782178 stroke=""none"" stroke-width=""1.5"" fill=""none"" />
    <circle cx=583.1346417220755 cy=540 r=17.305946507782178 stroke=""none"" stroke-width=""1.5"" fill=""none"" />
    <circle cx=689.48 cy=433.65464172207544 r=17.305946507782178 stroke=""none"" stroke-width=""1.5"" fill=""none"" />
    <polygon points = ""689.48,540 694.3480762229066,557.3059465077822 684.6119237770935,557.3059465077822"" stroke=""none"" stroke-width=""3"" fill = ""none"" />
    
    </svg>
    </div>
        ",,,,,,,,,,,,,,,,,,,,,,,,,,,,,,27
71,html-keyboard-response,71,859746,0.0-71.0,,,,"
    <div style="" display: block;  position: relative;"">
    <svg width=1920 height=1080>
    
    <circle cx=897 cy=540 r=12.114162555447523 stroke=""black"" stroke-width=""1"" fill=""black"" />
    <circle cx=689.48 cy=540 r=17.305946507782178 stroke=""black"" stroke-width=""1.5"" fill=""none"" />
    <circle cx=795.8253582779246 cy=540 r=17.305946507782178 stroke=""black"" stroke-width=""1.5"" fill=""none"" />
    <circle cx=689.48 cy=646.3453582779246 r=17.305946507782178 stroke=""black"" stroke-width=""1.5"" fill=""none"" />
    <circle cx=583.1346417220755 cy=540 r=17.305946507782178 stroke=""black"" stroke-width=""1.5"" fill=""none"" />
    <circle cx=689.48 cy=433.65464172207544 r=17.305946507782178 stroke=""black"" stroke-width=""1.5"" fill=""none"" />
    <polygon points = ""689.48,540 694.3480762229066,522.6940534922178 684.6119237770935,522.6940534922178"" stroke=""white"" stroke-width=""3"" fill = ""white"" />
    
    </svg>
    </div>
        ",,,,,,,,,,,,stimulus,,,,,,,,,,,,,,,,,,27
72,html-keyboard-response,72,860051,0.0-72.0,303.5,arrowup,,"
    <div style="" display: block;  position: relative;"">
    
    <svg width=1920 height=1080>
    <circle cx=897 cy=540 r=12.114162555447523 stroke=""black"" stroke-width=""1"" fill=""black"" />
    <circle cx=795.8253582779246 cy=540 r=17.305946507782178 stroke=""none"" stroke-width=""1.5"" fill=""none"" />
    <circle cx=689.48 cy=646.3453582779246 r=17.305946507782178 stroke=""none"" stroke-width=""1.5"" fill=""none"" />
    <circle cx=583.1346417220755 cy=540 r=17.305946507782178 stroke=""none"" stroke-width=""1.5"" fill=""none"" />
    <circle cx=689.48 cy=433.65464172207544 r=17.305946507782178 stroke=""none"" stroke-width=""1.5"" fill=""none"" />
    <polygon points = ""689.48,540 694.3480762229066,522.6940534922178 684.6119237770935,522.6940534922178"" stroke=""none"" stroke-width=""3"" fill = ""none"" />
    
    </svg>
    </div>
        ",,,,,,,,,,,,get_response,True,cXEdleUvGAzbQbkZ,,,True,True,False,207.52,6.0,492.386,106.34535827792452,3.07,1.0,0.0,,,,27
73,html-keyboard-response,73,860553,0.0-73.0,,,,"
    <div style="" display: block;  position: relative;"">
    
    <svg width=1920 height=1080>
    <circle cx=897 cy=540 r=12.114162555447523 stroke=""black"" stroke-width=""1"" fill=""black"" />
    <circle cx=795.8253582779246 cy=540 r=17.305946507782178 stroke=""none"" stroke-width=""1.5"" fill=""none"" />
    <circle cx=689.48 cy=646.3453582779246 r=17.305946507782178 stroke=""none"" stroke-width=""1.5"" fill=""none"" />
    <circle cx=583.1346417220755 cy=540 r=17.305946507782178 stroke=""none"" stroke-width=""1.5"" fill=""none"" />
    <circle cx=689.48 cy=433.65464172207544 r=17.305946507782178 stroke=""none"" stroke-width=""1.5"" fill=""none"" />
    <polygon points = ""689.48,540 694.3480762229066,522.6940534922178 684.6119237770935,522.6940534922178"" stroke=""none"" stroke-width=""3"" fill = ""none"" />
    
    </svg>
    </div>
        ",,,,,,,,,,,,,,,,,,,,,,,,,,,,,,27
74,html-keyboard-response,74,860706,0.0-74.0,,,,"
    <div style="" display: block;  position: relative;"">
    <svg width=1920 height=1080>
    
    <circle cx=897 cy=540 r=12.114162555447523 stroke=""black"" stroke-width=""1"" fill=""black"" />
    <circle cx=689.48 cy=540 r=17.305946507782178 stroke=""black"" stroke-width=""1.5"" fill=""none"" />
    <circle cx=795.8253582779246 cy=540 r=17.305946507782178 stroke=""black"" stroke-width=""1.5"" fill=""none"" />
    <circle cx=689.48 cy=646.3453582779246 r=17.305946507782178 stroke=""black"" stroke-width=""1.5"" fill=""none"" />
    <circle cx=583.1346417220755 cy=540 r=17.305946507782178 stroke=""black"" stroke-width=""1.5"" fill=""none"" />
    <circle cx=689.48 cy=433.65464172207544 r=17.305946507782178 stroke=""black"" stroke-width=""1.5"" fill=""none"" />
    <polygon points = ""689.48,540 694.3480762229066,522.6940534922178 684.6119237770935,522.6940534922178"" stroke=""white"" stroke-width=""3"" fill = ""white"" />
    
    </svg>
    </div>
        ",,,,,,,,,,,,stimulus,,,,,,,,,,,,,,,,,,27
75,html-keyboard-response,75,861188,0.0-75.0,479.89999999990687,arrowup,,"
    <div style="" display: block;  position: relative;"">
    
    <svg width=1920 height=1080>
    <circle cx=897 cy=540 r=12.114162555447523 stroke=""black"" stroke-width=""1"" fill=""black"" />
    <circle cx=795.8253582779246 cy=540 r=17.305946507782178 stroke=""none"" stroke-width=""1.5"" fill=""none"" />
    <circle cx=689.48 cy=646.3453582779246 r=17.305946507782178 stroke=""none"" stroke-width=""1.5"" fill=""none"" />
    <circle cx=583.1346417220755 cy=540 r=17.305946507782178 stroke=""none"" stroke-width=""1.5"" fill=""none"" />
    <circle cx=689.48 cy=433.65464172207544 r=17.305946507782178 stroke=""none"" stroke-width=""1.5"" fill=""none"" />
    <polygon points = ""689.48,540 694.3480762229066,522.6940534922178 684.6119237770935,522.6940534922178"" stroke=""none"" stroke-width=""3"" fill = ""none"" />
    
    </svg>
    </div>
        ",,,,,,,,,,,,get_response,True,cXEdleUvGAzbQbkZ,,,True,True,False,207.52,6.0,492.386,106.34535827792452,3.07,1.0,0.0,,,,27
76,html-keyboard-response,76,861690,0.0-76.0,,,,"
    <div style="" display: block;  position: relative;"">
    
    <svg width=1920 height=1080>
    <circle cx=897 cy=540 r=12.114162555447523 stroke=""black"" stroke-width=""1"" fill=""black"" />
    <circle cx=795.8253582779246 cy=540 r=17.305946507782178 stroke=""none"" stroke-width=""1.5"" fill=""none"" />
    <circle cx=689.48 cy=646.3453582779246 r=17.305946507782178 stroke=""none"" stroke-width=""1.5"" fill=""none"" />
    <circle cx=583.1346417220755 cy=540 r=17.305946507782178 stroke=""none"" stroke-width=""1.5"" fill=""none"" />
    <circle cx=689.48 cy=433.65464172207544 r=17.305946507782178 stroke=""none"" stroke-width=""1.5"" fill=""none"" />
    <polygon points = ""689.48,540 694.3480762229066,522.6940534922178 684.6119237770935,522.6940534922178"" stroke=""none"" stroke-width=""3"" fill = ""none"" />
    
    </svg>
    </div>
        ",,,,,,,,,,,,,,,,,,,,,,,,,,,,,,27
77,html-keyboard-response,77,861842,0.0-77.0,,,,"
    <div style="" display: block;  position: relative;"">
    <svg width=1920 height=1080>
    
    <circle cx=897 cy=540 r=12.114162555447523 stroke=""black"" stroke-width=""1"" fill=""black"" />
    <circle cx=689.48 cy=540 r=17.305946507782178 stroke=""black"" stroke-width=""1.5"" fill=""none"" />
    <circle cx=786.1575984344769 cy=540 r=17.305946507782178 stroke=""black"" stroke-width=""1.5"" fill=""none"" />
    <circle cx=689.48 cy=636.6775984344769 r=17.305946507782178 stroke=""black"" stroke-width=""1.5"" fill=""none"" />
    <circle cx=592.8024015655232 cy=540 r=17.305946507782178 stroke=""black"" stroke-width=""1.5"" fill=""none"" />
    <circle cx=689.48 cy=443.32240156552314 r=17.305946507782178 stroke=""black"" stroke-width=""1.5"" fill=""none"" />
    <polygon points = ""689.48,540 694.3480762229066,557.3059465077822 684.6119237770935,557.3059465077822"" stroke=""white"" stroke-width=""3"" fill = ""white"" />
    
    </svg>
    </div>
        ",,,,,,,,,,,,stimulus,,,,,,,,,,,,,,,,,,27
78,html-keyboard-response,78,862268,0.0-78.0,423.6999999997206,arrowdown,,"
    <div style="" display: block;  position: relative;"">
    
    <svg width=1920 height=1080>
    <circle cx=897 cy=540 r=12.114162555447523 stroke=""black"" stroke-width=""1"" fill=""black"" />
    <circle cx=786.1575984344769 cy=540 r=17.305946507782178 stroke=""none"" stroke-width=""1.5"" fill=""none"" />
    <circle cx=689.48 cy=636.6775984344769 r=17.305946507782178 stroke=""none"" stroke-width=""1.5"" fill=""none"" />
    <circle cx=592.8024015655232 cy=540 r=17.305946507782178 stroke=""none"" stroke-width=""1.5"" fill=""none"" />
    <circle cx=689.48 cy=443.32240156552314 r=17.305946507782178 stroke=""none"" stroke-width=""1.5"" fill=""none"" />
    <polygon points = ""689.48,540 694.3480762229066,557.3059465077822 684.6119237770935,557.3059465077822"" stroke=""none"" stroke-width=""3"" fill = ""none"" />
    
    </svg>
    </div>
        ",,,,,,,,,,,,get_response,True,cXEdleUvGAzbQbkZ,,,True,False,False,207.52,6.0,492.386,96.67759843447683,2.79,1.0,0.0,,,,27
79,html-keyboard-response,79,862769,0.0-79.0,,,,"
    <div style="" display: block;  position: relative;"">
    
    <svg width=1920 height=1080>
    <circle cx=897 cy=540 r=12.114162555447523 stroke=""black"" stroke-width=""1"" fill=""black"" />
    <circle cx=786.1575984344769 cy=540 r=17.305946507782178 stroke=""none"" stroke-width=""1.5"" fill=""none"" />
    <circle cx=689.48 cy=636.6775984344769 r=17.305946507782178 stroke=""none"" stroke-width=""1.5"" fill=""none"" />
    <circle cx=592.8024015655232 cy=540 r=17.305946507782178 stroke=""none"" stroke-width=""1.5"" fill=""none"" />
    <circle cx=689.48 cy=443.32240156552314 r=17.305946507782178 stroke=""none"" stroke-width=""1.5"" fill=""none"" />
    <polygon points = ""689.48,540 694.3480762229066,557.3059465077822 684.6119237770935,557.3059465077822"" stroke=""none"" stroke-width=""3"" fill = ""none"" />
    
    </svg>
    </div>
        ",,,,,,,,,,,,,,,,,,,,,,,,,,,,,,27
80,html-keyboard-response,80,862922,0.0-80.0,,,,"
    <div style="" display: block;  position: relative;"">
    <svg width=1920 height=1080>
    
    <circle cx=897 cy=540 r=12.114162555447523 stroke=""black"" stroke-width=""1"" fill=""black"" />
    <circle cx=689.48 cy=540 r=17.305946507782178 stroke=""black"" stroke-width=""1.5"" fill=""none"" />
    <circle cx=777.3687258495244 cy=540 r=17.305946507782178 stroke=""black"" stroke-width=""1.5"" fill=""none"" />
    <circle cx=689.48 cy=627.8887258495243 r=17.305946507782178 stroke=""black"" stroke-width=""1.5"" fill=""none"" />
    <circle cx=601.5912741504757 cy=540 r=17.305946507782178 stroke=""black"" stroke-width=""1.5"" fill=""none"" />
    <circle cx=689.48 cy=452.1112741504756 r=17.305946507782178 stroke=""black"" stroke-width=""1.5"" fill=""none"" />
    <polygon points = ""689.48,540 694.3480762229066,557.3059465077822 684.6119237770935,557.3059465077822"" stroke=""white"" stroke-width=""3"" fill = ""white"" />
    
    </svg>
    </div>
        ",,,,,,,,,,,,stimulus,,,,,,,,,,,,,,,,,,27
81,html-keyboard-response,81,863396,0.0-81.0,472.10000000009313,arrowdown,,"
    <div style="" display: block;  position: relative;"">
    
    <svg width=1920 height=1080>
    <circle cx=897 cy=540 r=12.114162555447523 stroke=""black"" stroke-width=""1"" fill=""black"" />
    <circle cx=777.3687258495244 cy=540 r=17.305946507782178 stroke=""none"" stroke-width=""1.5"" fill=""none"" />
    <circle cx=689.48 cy=627.8887258495243 r=17.305946507782178 stroke=""none"" stroke-width=""1.5"" fill=""none"" />
    <circle cx=601.5912741504757 cy=540 r=17.305946507782178 stroke=""none"" stroke-width=""1.5"" fill=""none"" />
    <circle cx=689.48 cy=452.1112741504756 r=17.305946507782178 stroke=""none"" stroke-width=""1.5"" fill=""none"" />
    <polygon points = ""689.48,540 694.3480762229066,557.3059465077822 684.6119237770935,557.3059465077822"" stroke=""none"" stroke-width=""3"" fill = ""none"" />
    
    </svg>
    </div>
        ",,,,,,,,,,,,get_response,True,cXEdleUvGAzbQbkZ,,,True,False,False,207.52,6.0,492.386,87.88872584952439,2.53,1.0,0.0,,,,27
82,html-keyboard-response,82,863898,0.0-82.0,,,,"
    <div style="" display: block;  position: relative;"">
    
    <svg width=1920 height=1080>
    <circle cx=897 cy=540 r=12.114162555447523 stroke=""black"" stroke-width=""1"" fill=""black"" />
    <circle cx=777.3687258495244 cy=540 r=17.305946507782178 stroke=""none"" stroke-width=""1.5"" fill=""none"" />
    <circle cx=689.48 cy=627.8887258495243 r=17.305946507782178 stroke=""none"" stroke-width=""1.5"" fill=""none"" />
    <circle cx=601.5912741504757 cy=540 r=17.305946507782178 stroke=""none"" stroke-width=""1.5"" fill=""none"" />
    <circle cx=689.48 cy=452.1112741504756 r=17.305946507782178 stroke=""none"" stroke-width=""1.5"" fill=""none"" />
    <polygon points = ""689.48,540 694.3480762229066,557.3059465077822 684.6119237770935,557.3059465077822"" stroke=""none"" stroke-width=""3"" fill = ""none"" />
    
    </svg>
    </div>
        ",,,,,,,,,,,,,,,,,,,,,,,,,,,,,,27
83,html-keyboard-response,83,864050,0.0-83.0,,,,"
    <div style="" display: block;  position: relative;"">
    <svg width=1920 height=1080>
    
    <circle cx=897 cy=540 r=12.114162555447523 stroke=""black"" stroke-width=""1"" fill=""black"" />
    <circle cx=1104.52 cy=540 r=17.305946507782178 stroke=""black"" stroke-width=""1.5"" fill=""none"" />
    <circle cx=1184.4188416813859 cy=540 r=17.305946507782178 stroke=""black"" stroke-width=""1.5"" fill=""none"" />
    <circle cx=1104.52 cy=619.8988416813858 r=17.305946507782178 stroke=""black"" stroke-width=""1.5"" fill=""none"" />
    <circle cx=1024.621158318614 cy=540 r=17.305946507782178 stroke=""black"" stroke-width=""1.5"" fill=""none"" />
    <circle cx=1104.52 cy=460.1011583186142 r=17.305946507782178 stroke=""black"" stroke-width=""1.5"" fill=""none"" />
    <polygon points = ""1104.52,540 1109.3880762229066,522.6940534922178 1099.6519237770933,522.6940534922178"" stroke=""white"" stroke-width=""3"" fill = ""white"" />
    
    </svg>
    </div>
        ",,,,,,,,,,,,stimulus,,,,,,,,,,,,,,,,,,27
84,html-keyboard-response,84,864395,0.0-84.0,343.3000000002794,arrowup,,"
    <div style="" display: block;  position: relative;"">
    
    <svg width=1920 height=1080>
    <circle cx=897 cy=540 r=12.114162555447523 stroke=""black"" stroke-width=""1"" fill=""black"" />
    <circle cx=1184.4188416813859 cy=540 r=17.305946507782178 stroke=""none"" stroke-width=""1.5"" fill=""none"" />
    <circle cx=1104.52 cy=619.8988416813858 r=17.305946507782178 stroke=""none"" stroke-width=""1.5"" fill=""none"" />
    <circle cx=1024.621158318614 cy=540 r=17.305946507782178 stroke=""none"" stroke-width=""1.5"" fill=""none"" />
    <circle cx=1104.52 cy=460.1011583186142 r=17.305946507782178 stroke=""none"" stroke-width=""1.5"" fill=""none"" />
    <polygon points = ""1104.52,540 1109.3880762229066,522.6940534922178 1099.6519237770933,522.6940534922178"" stroke=""none"" stroke-width=""3"" fill = ""none"" />
    
    </svg>
    </div>
        ",,,,,,,,,,,,get_response,True,cXEdleUvGAzbQbkZ,,,False,True,False,207.52,6.0,492.386,79.8988416813858,2.3,1.0,0.0,,,,27
85,html-keyboard-response,85,864897,0.0-85.0,,,,"
    <div style="" display: block;  position: relative;"">
    
    <svg width=1920 height=1080>
    <circle cx=897 cy=540 r=12.114162555447523 stroke=""black"" stroke-width=""1"" fill=""black"" />
    <circle cx=1184.4188416813859 cy=540 r=17.305946507782178 stroke=""none"" stroke-width=""1.5"" fill=""none"" />
    <circle cx=1104.52 cy=619.8988416813858 r=17.305946507782178 stroke=""none"" stroke-width=""1.5"" fill=""none"" />
    <circle cx=1024.621158318614 cy=540 r=17.305946507782178 stroke=""none"" stroke-width=""1.5"" fill=""none"" />
    <circle cx=1104.52 cy=460.1011583186142 r=17.305946507782178 stroke=""none"" stroke-width=""1.5"" fill=""none"" />
    <polygon points = ""1104.52,540 1109.3880762229066,522.6940534922178 1099.6519237770933,522.6940534922178"" stroke=""none"" stroke-width=""3"" fill = ""none"" />
    
    </svg>
    </div>
        ",,,,,,,,,,,,,,,,,,,,,,,,,,,,,,27
86,html-keyboard-response,86,865050,0.0-86.0,,,,"
    <div style="" display: block;  position: relative;"">
    <svg width=1920 height=1080>
    
    <circle cx=897 cy=540 r=12.114162555447523 stroke=""black"" stroke-width=""1"" fill=""black"" />
    <circle cx=689.48 cy=540 r=17.305946507782178 stroke=""black"" stroke-width=""1.5"" fill=""none"" />
    <circle cx=762.1153106194416 cy=540 r=17.305946507782178 stroke=""black"" stroke-width=""1.5"" fill=""none"" />
    <circle cx=689.48 cy=612.6353106194416 r=17.305946507782178 stroke=""black"" stroke-width=""1.5"" fill=""none"" />
    <circle cx=616.8446893805584 cy=540 r=17.305946507782178 stroke=""black"" stroke-width=""1.5"" fill=""none"" />
    <circle cx=689.48 cy=467.3646893805584 r=17.305946507782178 stroke=""black"" stroke-width=""1.5"" fill=""none"" />
    <polygon points = ""689.48,540 694.3480762229066,557.3059465077822 684.6119237770935,557.3059465077822"" stroke=""white"" stroke-width=""3"" fill = ""white"" />
    
    </svg>
    </div>
        ",,,,,,,,,,,,stimulus,,,,,,,,,,,,,,,,,,27
87,html-keyboard-response,87,865435,0.0-87.0,383.6999999997206,arrowdown,,"
    <div style="" display: block;  position: relative;"">
    
    <svg width=1920 height=1080>
    <circle cx=897 cy=540 r=12.114162555447523 stroke=""black"" stroke-width=""1"" fill=""black"" />
    <circle cx=762.1153106194416 cy=540 r=17.305946507782178 stroke=""none"" stroke-width=""1.5"" fill=""none"" />
    <circle cx=689.48 cy=612.6353106194416 r=17.305946507782178 stroke=""none"" stroke-width=""1.5"" fill=""none"" />
    <circle cx=616.8446893805584 cy=540 r=17.305946507782178 stroke=""none"" stroke-width=""1.5"" fill=""none"" />
    <circle cx=689.48 cy=467.3646893805584 r=17.305946507782178 stroke=""none"" stroke-width=""1.5"" fill=""none"" />
    <polygon points = ""689.48,540 694.3480762229066,557.3059465077822 684.6119237770935,557.3059465077822"" stroke=""none"" stroke-width=""3"" fill = ""none"" />
    
    </svg>
    </div>
        ",,,,,,,,,,,,get_response,True,cXEdleUvGAzbQbkZ,,,True,False,False,207.52,6.0,492.386,72.63531061944164,2.09,1.0,0.0,,,,27
88,html-keyboard-response,88,865937,0.0-88.0,,,,"
    <div style="" display: block;  position: relative;"">
    
    <svg width=1920 height=1080>
    <circle cx=897 cy=540 r=12.114162555447523 stroke=""black"" stroke-width=""1"" fill=""black"" />
    <circle cx=762.1153106194416 cy=540 r=17.305946507782178 stroke=""none"" stroke-width=""1.5"" fill=""none"" />
    <circle cx=689.48 cy=612.6353106194416 r=17.305946507782178 stroke=""none"" stroke-width=""1.5"" fill=""none"" />
    <circle cx=616.8446893805584 cy=540 r=17.305946507782178 stroke=""none"" stroke-width=""1.5"" fill=""none"" />
    <circle cx=689.48 cy=467.3646893805584 r=17.305946507782178 stroke=""none"" stroke-width=""1.5"" fill=""none"" />
    <polygon points = ""689.48,540 694.3480762229066,557.3059465077822 684.6119237770935,557.3059465077822"" stroke=""none"" stroke-width=""3"" fill = ""none"" />
    
    </svg>
    </div>
        ",,,,,,,,,,,,,,,,,,,,,,,,,,,,,,27
89,html-keyboard-response,89,866090,0.0-89.0,,,,"
    <div style="" display: block;  position: relative;"">
    <svg width=1920 height=1080>
    
    <circle cx=897 cy=540 r=12.114162555447523 stroke=""black"" stroke-width=""1"" fill=""black"" />
    <circle cx=1104.52 cy=540 r=17.305946507782178 stroke=""black"" stroke-width=""1.5"" fill=""none"" />
    <circle cx=1170.5521005631288 cy=540 r=17.305946507782178 stroke=""black"" stroke-width=""1.5"" fill=""none"" />
    <circle cx=1104.52 cy=606.0321005631288 r=17.305946507782178 stroke=""black"" stroke-width=""1.5"" fill=""none"" />
    <circle cx=1038.4878994368712 cy=540 r=17.305946507782178 stroke=""black"" stroke-width=""1.5"" fill=""none"" />
    <circle cx=1104.52 cy=473.9678994368712 r=17.305946507782178 stroke=""black"" stroke-width=""1.5"" fill=""none"" />
    <polygon points = ""1104.52,540 1109.3880762229066,557.3059465077822 1099.6519237770933,557.3059465077822"" stroke=""white"" stroke-width=""3"" fill = ""white"" />
    
    </svg>
    </div>
        ",,,,,,,,,,,,stimulus,,,,,,,,,,,,,,,,,,27
90,html-keyboard-response,90,866499,0.0-90.0,407.89999999990687,arrowdown,,"
    <div style="" display: block;  position: relative;"">
    
    <svg width=1920 height=1080>
    <circle cx=897 cy=540 r=12.114162555447523 stroke=""black"" stroke-width=""1"" fill=""black"" />
    <circle cx=1170.5521005631288 cy=540 r=17.305946507782178 stroke=""none"" stroke-width=""1.5"" fill=""none"" />
    <circle cx=1104.52 cy=606.0321005631288 r=17.305946507782178 stroke=""none"" stroke-width=""1.5"" fill=""none"" />
    <circle cx=1038.4878994368712 cy=540 r=17.305946507782178 stroke=""none"" stroke-width=""1.5"" fill=""none"" />
    <circle cx=1104.52 cy=473.9678994368712 r=17.305946507782178 stroke=""none"" stroke-width=""1.5"" fill=""none"" />
    <polygon points = ""1104.52,540 1109.3880762229066,557.3059465077822 1099.6519237770933,557.3059465077822"" stroke=""none"" stroke-width=""3"" fill = ""none"" />
    
    </svg>
    </div>
        ",,,,,,,,,,,,get_response,True,cXEdleUvGAzbQbkZ,,,False,False,False,207.52,6.0,492.386,66.03210056312876,1.9,1.0,0.0,,,,27
91,html-keyboard-response,91,867001,0.0-91.0,,,,"
    <div style="" display: block;  position: relative;"">
    
    <svg width=1920 height=1080>
    <circle cx=897 cy=540 r=12.114162555447523 stroke=""black"" stroke-width=""1"" fill=""black"" />
    <circle cx=1170.5521005631288 cy=540 r=17.305946507782178 stroke=""none"" stroke-width=""1.5"" fill=""none"" />
    <circle cx=1104.52 cy=606.0321005631288 r=17.305946507782178 stroke=""none"" stroke-width=""1.5"" fill=""none"" />
    <circle cx=1038.4878994368712 cy=540 r=17.305946507782178 stroke=""none"" stroke-width=""1.5"" fill=""none"" />
    <circle cx=1104.52 cy=473.9678994368712 r=17.305946507782178 stroke=""none"" stroke-width=""1.5"" fill=""none"" />
    <polygon points = ""1104.52,540 1109.3880762229066,557.3059465077822 1099.6519237770933,557.3059465077822"" stroke=""none"" stroke-width=""3"" fill = ""none"" />
    
    </svg>
    </div>
        ",,,,,,,,,,,,,,,,,,,,,,,,,,,,,,27
92,html-keyboard-response,92,867154,0.0-92.0,,,,"
    <div style="" display: block;  position: relative;"">
    <svg width=1920 height=1080>
    
    <circle cx=897 cy=540 r=12.114162555447523 stroke=""black"" stroke-width=""1"" fill=""black"" />
    <circle cx=689.48 cy=540 r=17.305946507782178 stroke=""black"" stroke-width=""1.5"" fill=""none"" />
    <circle cx=749.509182330117 cy=540 r=17.305946507782178 stroke=""black"" stroke-width=""1.5"" fill=""none"" />
    <circle cx=689.48 cy=600.029182330117 r=17.305946507782178 stroke=""black"" stroke-width=""1.5"" fill=""none"" />
    <circle cx=629.450817669883 cy=540 r=17.305946507782178 stroke=""black"" stroke-width=""1.5"" fill=""none"" />
    <circle cx=689.48 cy=479.97081766988293 r=17.305946507782178 stroke=""black"" stroke-width=""1.5"" fill=""none"" />
    <polygon points = ""689.48,540 694.3480762229066,522.6940534922178 684.6119237770935,522.6940534922178"" stroke=""white"" stroke-width=""3"" fill = ""white"" />
    
    </svg>
    </div>
        ",,,,,,,,,,,,stimulus,,,,,,,,,,,,,,,,,,27
93,html-keyboard-response,93,867299,0.0-93.0,143.70000000018626,arrowup,,"
    <div style="" display: block;  position: relative;"">
    
    <svg width=1920 height=1080>
    <circle cx=897 cy=540 r=12.114162555447523 stroke=""black"" stroke-width=""1"" fill=""black"" />
    <circle cx=749.509182330117 cy=540 r=17.305946507782178 stroke=""none"" stroke-width=""1.5"" fill=""none"" />
    <circle cx=689.48 cy=600.029182330117 r=17.305946507782178 stroke=""none"" stroke-width=""1.5"" fill=""none"" />
    <circle cx=629.450817669883 cy=540 r=17.305946507782178 stroke=""none"" stroke-width=""1.5"" fill=""none"" />
    <circle cx=689.48 cy=479.97081766988293 r=17.305946507782178 stroke=""none"" stroke-width=""1.5"" fill=""none"" />
    <polygon points = ""689.48,540 694.3480762229066,522.6940534922178 684.6119237770935,522.6940534922178"" stroke=""none"" stroke-width=""3"" fill = ""none"" />
    
    </svg>
    </div>
        ",,,,,,,,,,,,get_response,True,cXEdleUvGAzbQbkZ,,,True,True,False,207.52,6.0,492.386,60.02918233011705,1.73,1.0,0.0,,,,27
94,html-keyboard-response,94,867801,0.0-94.0,,,,"
    <div style="" display: block;  position: relative;"">
    
    <svg width=1920 height=1080>
    <circle cx=897 cy=540 r=12.114162555447523 stroke=""black"" stroke-width=""1"" fill=""black"" />
    <circle cx=749.509182330117 cy=540 r=17.305946507782178 stroke=""none"" stroke-width=""1.5"" fill=""none"" />
    <circle cx=689.48 cy=600.029182330117 r=17.305946507782178 stroke=""none"" stroke-width=""1.5"" fill=""none"" />
    <circle cx=629.450817669883 cy=540 r=17.305946507782178 stroke=""none"" stroke-width=""1.5"" fill=""none"" />
    <circle cx=689.48 cy=479.97081766988293 r=17.305946507782178 stroke=""none"" stroke-width=""1.5"" fill=""none"" />
    <polygon points = ""689.48,540 694.3480762229066,522.6940534922178 684.6119237770935,522.6940534922178"" stroke=""none"" stroke-width=""3"" fill = ""none"" />
    
    </svg>
    </div>
        ",,,,,,,,,,,,,,,,,,,,,,,,,,,,,,27
95,html-keyboard-response,95,867953,0.0-95.0,,,,"
    <div style="" display: block;  position: relative;"">
    <svg width=1920 height=1080>
    
    <circle cx=897 cy=540 r=12.114162555447523 stroke=""black"" stroke-width=""1"" fill=""black"" />
    <circle cx=1104.52 cy=540 r=17.305946507782178 stroke=""black"" stroke-width=""1.5"" fill=""none"" />
    <circle cx=1159.0919839364701 cy=540 r=17.305946507782178 stroke=""black"" stroke-width=""1.5"" fill=""none"" />
    <circle cx=1104.52 cy=594.57198393647 r=17.305946507782178 stroke=""black"" stroke-width=""1.5"" fill=""none"" />
    <circle cx=1049.9480160635298 cy=540 r=17.305946507782178 stroke=""black"" stroke-width=""1.5"" fill=""none"" />
    <circle cx=1104.52 cy=485.42801606353 r=17.305946507782178 stroke=""black"" stroke-width=""1.5"" fill=""none"" />
    <polygon points = ""1104.52,540 1109.3880762229066,522.6940534922178 1099.6519237770933,522.6940534922178"" stroke=""white"" stroke-width=""3"" fill = ""white"" />
    
    </svg>
    </div>
        ",,,,,,,,,,,,stimulus,,,,,,,,,,,,,,,,,,27
96,html-keyboard-response,96,868195,0.0-96.0,239.70000000018624,arrowdown,,"
    <div style="" display: block;  position: relative;"">
    
    <svg width=1920 height=1080>
    <circle cx=897 cy=540 r=12.114162555447523 stroke=""black"" stroke-width=""1"" fill=""black"" />
    <circle cx=1159.0919839364701 cy=540 r=17.305946507782178 stroke=""none"" stroke-width=""1.5"" fill=""none"" />
    <circle cx=1104.52 cy=594.57198393647 r=17.305946507782178 stroke=""none"" stroke-width=""1.5"" fill=""none"" />
    <circle cx=1049.9480160635298 cy=540 r=17.305946507782178 stroke=""none"" stroke-width=""1.5"" fill=""none"" />
    <circle cx=1104.52 cy=485.42801606353 r=17.305946507782178 stroke=""none"" stroke-width=""1.5"" fill=""none"" />
    <polygon points = ""1104.52,540 1109.3880762229066,522.6940534922178 1099.6519237770933,522.6940534922178"" stroke=""none"" stroke-width=""3"" fill = ""none"" />
    
    </svg>
    </div>
        ",,,,,,,,,,,,get_response,False,cXEdleUvGAzbQbkZ,,,False,True,False,207.52,6.0,492.386,54.57198393647004,1.57,1.0,0.0,,,,27
97,html-keyboard-response,97,868697,0.0-97.0,,,,"
    <div style="" display: block;  position: relative;"">
    
    <svg width=1920 height=1080>
    <circle cx=897 cy=540 r=12.114162555447523 stroke=""black"" stroke-width=""1"" fill=""black"" />
    <circle cx=1159.0919839364701 cy=540 r=17.305946507782178 stroke=""none"" stroke-width=""1.5"" fill=""none"" />
    <circle cx=1104.52 cy=594.57198393647 r=17.305946507782178 stroke=""none"" stroke-width=""1.5"" fill=""none"" />
    <circle cx=1049.9480160635298 cy=540 r=17.305946507782178 stroke=""none"" stroke-width=""1.5"" fill=""none"" />
    <circle cx=1104.52 cy=485.42801606353 r=17.305946507782178 stroke=""none"" stroke-width=""1.5"" fill=""none"" />
    <polygon points = ""1104.52,540 1109.3880762229066,522.6940534922178 1099.6519237770933,522.6940534922178"" stroke=""none"" stroke-width=""3"" fill = ""none"" />
    
    </svg>
    </div>
        ",,,,,,,,,,,,,,,,,,,,,,,,,,,,,,27
98,html-keyboard-response,98,868850,0.0-98.0,,,,"
    <div style="" display: block;  position: relative;"">
    <svg width=1920 height=1080>
    
    <circle cx=897 cy=540 r=12.114162555447523 stroke=""black"" stroke-width=""1"" fill=""black"" />
    <circle cx=1104.52 cy=540 r=17.305946507782178 stroke=""black"" stroke-width=""1.5"" fill=""none"" />
    <circle cx=1175.463579117411 cy=540 r=17.305946507782178 stroke=""black"" stroke-width=""1.5"" fill=""none"" />
    <circle cx=1104.52 cy=610.9435791174111 r=17.305946507782178 stroke=""black"" stroke-width=""1.5"" fill=""none"" />
    <circle cx=1033.576420882589 cy=540 r=17.305946507782178 stroke=""black"" stroke-width=""1.5"" fill=""none"" />
    <circle cx=1104.52 cy=469.05642088258895 r=17.305946507782178 stroke=""black"" stroke-width=""1.5"" fill=""none"" />
    <polygon points = ""1104.52,540 1109.3880762229066,522.6940534922178 1099.6519237770933,522.6940534922178"" stroke=""white"" stroke-width=""3"" fill = ""white"" />
    
    </svg>
    </div>
        ",,,,,,,,,,,,stimulus,,,,,,,,,,,,,,,,,,27
99,html-keyboard-response,99,869395,0.0-99.0,543.8000000002794,arrowdown,,"
    <div style="" display: block;  position: relative;"">
    
    <svg width=1920 height=1080>
    <circle cx=897 cy=540 r=12.114162555447523 stroke=""black"" stroke-width=""1"" fill=""black"" />
    <circle cx=1175.463579117411 cy=540 r=17.305946507782178 stroke=""none"" stroke-width=""1.5"" fill=""none"" />
    <circle cx=1104.52 cy=610.9435791174111 r=17.305946507782178 stroke=""none"" stroke-width=""1.5"" fill=""none"" />
    <circle cx=1033.576420882589 cy=540 r=17.305946507782178 stroke=""none"" stroke-width=""1.5"" fill=""none"" />
    <circle cx=1104.52 cy=469.05642088258895 r=17.305946507782178 stroke=""none"" stroke-width=""1.5"" fill=""none"" />
    <polygon points = ""1104.52,540 1109.3880762229066,522.6940534922178 1099.6519237770933,522.6940534922178"" stroke=""none"" stroke-width=""3"" fill = ""none"" />
    
    </svg>
    </div>
        ",,,,,,,,,,,,get_response,False,cXEdleUvGAzbQbkZ,,,False,True,False,207.52,6.0,492.386,70.94357911741106,2.04,1.0,0.84,,,,27
100,html-keyboard-response,100,877940,0.0-100.0,8542.899999999907,arrowdown,,"<div id=""continue""> 
<h2 class=""bolded-blue"">Great Job! You have completed half of the study!</h2>
<p>Before you start the session 2, let&#39;s measure your viewing distance again using the virtual chinrest.</p>
<p>Please press the <b>down</b> arrow key to continue. </p>
</div>",,,,,,,,,,,,,,,,,,,,,,,,,,,,,,27
101,virtual-chinrest,101,956682,0.0-101.0,78740.0,,,,,,85.6,53.98,346.0,4.04,504.42,9.69985184070196,35.67064793176888,53.82576743973343,30.27699418485005,,,,,,,,,,,,,,,,,,,27
102,html-keyboard-response,102,968537,0.0-102.0,11852.600000000091,arrowdown,,"<div><h2 class=""bolded-blue"">Alright, let&#39;s do the peripheral vision test one more time!</h2>
<p>Please do not move around and keep your eye on the <b>black dot</b> all the time. Click <b>up</b> or <b>down</b> to indicate the opening
    of the center circle. The test is difficult for everyone, so if you are not sure, just take your best guess! </p> 
    <p>Now, press the <b>down</b> arrow key to start the task when you are ready!</p></div>",,,,,,,,,,,,,,,,,,,,,,,,,,,,,,27
103,html-keyboard-response,103,969039,0.0-103.0,,,,"
    <div style="" display: block;  position: relative;"">
    
    <svg width=1920 height=1080>
    <circle cx=897 cy=540 r=12.505284318044623 stroke=""black"" stroke-width=""1"" fill=""black"" />
    <circle cx=753.7235791174111 cy=540 r=17.86469188292089 stroke=""none"" stroke-width=""1.5"" fill=""none"" />
    <circle cx=682.78 cy=610.9435791174111 r=17.86469188292089 stroke=""none"" stroke-width=""1.5"" fill=""none"" />
    <circle cx=611.8364208825889 cy=540 r=17.86469188292089 stroke=""none"" stroke-width=""1.5"" fill=""none"" />
    <circle cx=682.78 cy=469.05642088258895 r=17.86469188292089 stroke=""none"" stroke-width=""1.5"" fill=""none"" />
    <polygon points = ""682.78,540 687.8052485032063,557.8646918829209 677.7547514967937,557.8646918829209"" stroke=""none"" stroke-width=""3"" fill = ""none"" />
    
    </svg>
    </div>
        ",,,,,,,,,,,,,,,,,,,,,,,,,,,,,,27
104,html-keyboard-response,104,969192,0.0-104.0,,,,"
    <div style="" display: block;  position: relative;"">
    <svg width=1920 height=1080>
    
    <circle cx=897 cy=540 r=12.505284318044623 stroke=""black"" stroke-width=""1"" fill=""black"" />
    <circle cx=682.78 cy=540 r=17.86469188292089 stroke=""black"" stroke-width=""1.5"" fill=""none"" />
    <circle cx=822.0229999999999 cy=540 r=17.86469188292089 stroke=""black"" stroke-width=""1.5"" fill=""none"" />
    <circle cx=682.78 cy=679.2429999999999 r=17.86469188292089 stroke=""black"" stroke-width=""1.5"" fill=""none"" />
    <circle cx=543.537 cy=540 r=17.86469188292089 stroke=""black"" stroke-width=""1.5"" fill=""none"" />
    <circle cx=682.78 cy=400.757 r=17.86469188292089 stroke=""black"" stroke-width=""1.5"" fill=""none"" />
    <polygon points = ""682.78,540 687.8052485032063,557.8646918829209 677.7547514967937,557.8646918829209"" stroke=""white"" stroke-width=""3"" fill = ""white"" />
    
    </svg>
    </div>
        ",,,,,,,,,,,,stimulus,,,,,,,,,,,,,,,,,,27
105,html-keyboard-response,105,969593,0.0-105.0,398.29999999981374,arrowdown,,"
    <div style="" display: block;  position: relative;"">
    
    <svg width=1920 height=1080>
    <circle cx=897 cy=540 r=12.505284318044623 stroke=""black"" stroke-width=""1"" fill=""black"" />
    <circle cx=822.0229999999999 cy=540 r=17.86469188292089 stroke=""none"" stroke-width=""1.5"" fill=""none"" />
