,trial_type,trial_index,time_elapsed,internal_node_id,rt,response,success,stimulus,start_time,start_time_unix,item_width_mm,item_height_mm,item_width_px,px2mm,view_dist_mm,item_width_deg,px2deg,win_width_deg,win_height_deg,trialType,correct,participantID,criticalSpacing,criticalSpacing_deg,isLeft,isUp,isEccen4,eccentricity,eccentricity_deg,viewingDistanceMean,critical_spacing,critical_spacing_deg,crowding_session,correctRate,viewDistance_1,viewDistance_2,viewDistance_3,age
0,pavlovia,0,7,0.0-0.0,,,,,,,,,,,,,,,,,,,,,,,,,,,,,,,,,,22
2,fullscreen,2,12831,0.0-2.0,,,True,,,,,,,,,,,,,,,,,,,,,,,,,,,,,,,22
3,html-keyboard-response,3,15267,0.0-3.0,2432.8000000715256,arrowright,,"<h1>Consent Form</h1>
       <p>By answering the following questions, you are participating in a study being performed by cognitive scientists in the Stanford Department of Psychology. If you have questions about this research, please contact us at stanfordpsych251@gmail.com. You must be at least 18 years old to participate. Your participation in this research is voluntary. You may decline to answer any or all of the following questions. You may decline further participation by closing the window, at any time, without adverse consequences. Your anonymity is assured; the researchers who have requested your participation will not receive any personal information about you.</p>
       <p>Press <b>any key</b> to start the experiment!</p>",,,,,,,,,,,,,,,,,,,,,,,,,,,,,,22
4,html-keyboard-response,4,20892,0.0-4.0,5622.600000023842,arrowright,,"<h1>Welcome to the Visual Crowding Experiment!</h1>
       <p>This test will take <b>10-12</b> minutes to complete.</p>
       <p>Press any key to start the experiment!</p>",1/12/2021 1:15:20,1638342920090.0,,,,,,,,,,,,,,,,,,,,,,,,,,,,22
5,html-keyboard-response,5,32497,0.0-5.0,11603.300000071526,arrowdown,,"<div> 
<p> Before you begin this study, let&#39;s quickly test how far away you are sitting. You might know that vision tests at a doctor&#39;s practice often involve chinrests, the doctor basically asks you to sit away from a screen in a specific distance. We do this here with a <b>virtual chinrest</b>. </p>
<p> Please press the <b>down</b> arrow to continue.
</p>
</div>",,,,,,,,,,,,,,,,,,,,,,,,,,,,,,22
6,virtual-chinrest,6,153310,0.0-6.0,120809.5,,,,,,85.6,53.98,374.0,4.37,599.7,8.164443834231502,45.80838665726502,29.819867052300086,16.765488943020838,,,,,,,,,,,,,,,,,,,22
7,html-keyboard-response,7,191751,0.0-7.0,38436.39999997616,arrowdown,,"
	<h2 class=""bolded-blue"">Now, you will take a peripheral vision test!</h2>
<p> 
	<b>
		<font size=""140%"">1. </font>
	</b>
	<em><b>Please use both eyes for the following task.</b></em> First, you will see a screen (like the one in the image below) showing a <b>black dot</b> in the middle of the screen, with a group of circles displayed on either the <span class=""bolded-blue"">left</span> or <span class=""bolded-blue"">right</span> of the black dot for 150 ms. <span class=""bolded-blue"">Please make sure to focus on the black dot all the time!</span>

	<div>
		<img src=""example.png"" alt=""example"" style=""border: 2px solid black"" width=""600""/> 
	</div>
	
	<b>
		<font size=""140%"">2. </font>
	</b>
	Your task is to identify whether the opening of the <b class=""bolded-blue"">center circle</b> is upward by pressing UP or downward by pressing DOWN on your keyboard. The opening of the circle will only be upward or downward, not towards left or right.

	<div>
		<img src=""arrow_keys+.png"" alt=""arrows"" style=""border: 2px solid black"" width=""600""/>
	</div>
	<br>

<p>Please press the <b>down</b> arrow key to start the <span class=""bolded-blue"">practice task</span> (this first practice task will not count toward your final results).</p>
</p>
",,,,,,,,,,,,,,,,,,,,,,,,,,,,,,22
8,html-keyboard-response,8,192268,0.0-8.0,,,,"
    <div style="" display: block;  position: relative;"">
    
    <svg width=1366 height=768>
    <circle cx=620 cy=384 r=16.007229962739274 stroke=""black"" stroke-width=""1"" fill=""black"" />
    <circle cx=NaN cy=384 r=22.86747137534182 stroke=""none"" stroke-width=""1.5"" fill=""none"" />
    <circle cx=436.83000000000004 cy=NaN r=22.86747137534182 stroke=""none"" stroke-width=""1.5"" fill=""none"" />
    <circle cx=NaN cy=384 r=22.86747137534182 stroke=""none"" stroke-width=""1.5"" fill=""none"" />
    <circle cx=436.83000000000004 cy=NaN r=22.86747137534182 stroke=""none"" stroke-width=""1.5"" fill=""none"" />
    <polygon points = ""436.83000000000004,384 443.2625053605268,406.86747137534184 430.3974946394733,406.86747137534184"" stroke=""none"" stroke-width=""3"" fill = ""none"" />
    
    </svg>
    </div>
        ",,,,,,,,,,,,,,,,,,,,,,,,,,,,,,22
9,html-keyboard-response,9,192425,0.0-9.0,,,,"
    <div style="" display: block;  position: relative;"">
    <svg width=1366 height=768>
    
    <circle cx=620 cy=384 r=16.007229962739274 stroke=""black"" stroke-width=""1"" fill=""black"" />
    <circle cx=803.17 cy=384 r=22.86747137534182 stroke=""black"" stroke-width=""1.5"" fill=""none"" />
    <circle cx=922.2304999999999 cy=384 r=22.86747137534182 stroke=""black"" stroke-width=""1.5"" fill=""none"" />
    <circle cx=803.17 cy=503.0605 r=22.86747137534182 stroke=""black"" stroke-width=""1.5"" fill=""none"" />
    <circle cx=684.1095 cy=384 r=22.86747137534182 stroke=""black"" stroke-width=""1.5"" fill=""none"" />
    <circle cx=803.17 cy=264.9395 r=22.86747137534182 stroke=""black"" stroke-width=""1.5"" fill=""none"" />
    <polygon points = ""803.17,384 809.6025053605267,361.13252862465816 796.7374946394732,361.13252862465816"" stroke=""white"" stroke-width=""3"" fill = ""white"" />
    
    </svg>
    </div>
        ",,,,,,,,,,,,stimulus,,,,,,,,,,,,,,,,,,22
10,html-keyboard-response,10,194235,0.0-10.0,1807.2999999523165,arrowdown,,"
    <div style="" display: block;  position: relative;"">
    
    <svg width=1366 height=768>
    <circle cx=620 cy=384 r=16.007229962739274 stroke=""black"" stroke-width=""1"" fill=""black"" />
    <circle cx=922.2304999999999 cy=384 r=22.86747137534182 stroke=""none"" stroke-width=""1.5"" fill=""none"" />
    <circle cx=803.17 cy=503.0605 r=22.86747137534182 stroke=""none"" stroke-width=""1.5"" fill=""none"" />
    <circle cx=684.1095 cy=384 r=22.86747137534182 stroke=""none"" stroke-width=""1.5"" fill=""none"" />
    <circle cx=803.17 cy=264.9395 r=22.86747137534182 stroke=""none"" stroke-width=""1.5"" fill=""none"" />
    <polygon points = ""803.17,384 809.6025053605267,361.13252862465816 796.7374946394732,361.13252862465816"" stroke=""none"" stroke-width=""3"" fill = ""none"" />
    
    </svg>
    </div>
        ",,,,,,,,,,,,practice_get_response,False,lLwnYe5CakH1TgfS,119.0605,2.6,False,True,False,183.17,4.0,601.49,,,,,,,,22
11,html-keyboard-response,11,194750,0.0-11.0,,,,"
    <div style="" display: block;  position: relative;"">
    
    <svg width=1366 height=768>
    <circle cx=620 cy=384 r=16.007229962739274 stroke=""black"" stroke-width=""1"" fill=""black"" />
    <circle cx=922.2304999999999 cy=384 r=22.86747137534182 stroke=""none"" stroke-width=""1.5"" fill=""none"" />
    <circle cx=803.17 cy=503.0605 r=22.86747137534182 stroke=""none"" stroke-width=""1.5"" fill=""none"" />
    <circle cx=684.1095 cy=384 r=22.86747137534182 stroke=""none"" stroke-width=""1.5"" fill=""none"" />
    <circle cx=803.17 cy=264.9395 r=22.86747137534182 stroke=""none"" stroke-width=""1.5"" fill=""none"" />
    <polygon points = ""803.17,384 809.6025053605267,361.13252862465816 796.7374946394732,361.13252862465816"" stroke=""none"" stroke-width=""3"" fill = ""none"" />
    
    </svg>
    </div>
        ",,,,,,,,,,,,,,,,,,,,,,,,,,,,,,22
12,html-keyboard-response,12,194906,0.0-12.0,,,,"
    <div style="" display: block;  position: relative;"">
    <svg width=1366 height=768>
    
    <circle cx=620 cy=384 r=16.007229962739274 stroke=""black"" stroke-width=""1"" fill=""black"" />
    <circle cx=803.17 cy=384 r=22.86747137534182 stroke=""black"" stroke-width=""1.5"" fill=""none"" />
    <circle cx=936.7001144986327 cy=384 r=22.86747137534182 stroke=""black"" stroke-width=""1.5"" fill=""none"" />
    <circle cx=803.17 cy=517.5301144986327 r=22.86747137534182 stroke=""black"" stroke-width=""1.5"" fill=""none"" />
    <circle cx=669.6398855013672 cy=384 r=22.86747137534182 stroke=""black"" stroke-width=""1.5"" fill=""none"" />
    <circle cx=803.17 cy=250.4698855013673 r=22.86747137534182 stroke=""black"" stroke-width=""1.5"" fill=""none"" />
    <polygon points = ""803.17,384 809.6025053605267,361.13252862465816 796.7374946394732,361.13252862465816"" stroke=""white"" stroke-width=""3"" fill = ""white"" />
    
    </svg>
    </div>
        ",,,,,,,,,,,,stimulus,,,,,,,,,,,,,,,,,,22
13,html-keyboard-response,13,195592,0.0-13.0,684.2000000476837,arrowdown,,"
    <div style="" display: block;  position: relative;"">
    
    <svg width=1366 height=768>
    <circle cx=620 cy=384 r=16.007229962739274 stroke=""black"" stroke-width=""1"" fill=""black"" />
    <circle cx=936.7001144986327 cy=384 r=22.86747137534182 stroke=""none"" stroke-width=""1.5"" fill=""none"" />
    <circle cx=803.17 cy=517.5301144986327 r=22.86747137534182 stroke=""none"" stroke-width=""1.5"" fill=""none"" />
    <circle cx=669.6398855013672 cy=384 r=22.86747137534182 stroke=""none"" stroke-width=""1.5"" fill=""none"" />
    <circle cx=803.17 cy=250.4698855013673 r=22.86747137534182 stroke=""none"" stroke-width=""1.5"" fill=""none"" />
    <polygon points = ""803.17,384 809.6025053605267,361.13252862465816 796.7374946394732,361.13252862465816"" stroke=""none"" stroke-width=""3"" fill = ""none"" />
    
    </svg>
    </div>
        ",,,,,,,,,,,,practice_get_response,False,lLwnYe5CakH1TgfS,133.5301144986327,2.91,False,True,False,183.17,4.0,601.49,,,,,,,,22
14,html-keyboard-response,14,196110,0.0-14.0,,,,"
    <div style="" display: block;  position: relative;"">
    
    <svg width=1366 height=768>
    <circle cx=620 cy=384 r=16.007229962739274 stroke=""black"" stroke-width=""1"" fill=""black"" />
    <circle cx=936.7001144986327 cy=384 r=22.86747137534182 stroke=""none"" stroke-width=""1.5"" fill=""none"" />
    <circle cx=803.17 cy=517.5301144986327 r=22.86747137534182 stroke=""none"" stroke-width=""1.5"" fill=""none"" />
    <circle cx=669.6398855013672 cy=384 r=22.86747137534182 stroke=""none"" stroke-width=""1.5"" fill=""none"" />
    <circle cx=803.17 cy=250.4698855013673 r=22.86747137534182 stroke=""none"" stroke-width=""1.5"" fill=""none"" />
    <polygon points = ""803.17,384 809.6025053605267,361.13252862465816 796.7374946394732,361.13252862465816"" stroke=""none"" stroke-width=""3"" fill = ""none"" />
    
    </svg>
    </div>
        ",,,,,,,,,,,,,,,,,,,,,,,,,,,,,,22
15,html-keyboard-response,15,196265,0.0-15.0,,,,"
    <div style="" display: block;  position: relative;"">
    <svg width=1366 height=768>
    
    <circle cx=620 cy=384 r=16.007229962739274 stroke=""black"" stroke-width=""1"" fill=""black"" />
    <circle cx=803.17 cy=384 r=22.86747137534182 stroke=""black"" stroke-width=""1.5"" fill=""none"" />
    <circle cx=936.7001144986327 cy=384 r=22.86747137534182 stroke=""black"" stroke-width=""1.5"" fill=""none"" />
    <circle cx=803.17 cy=517.5301144986327 r=22.86747137534182 stroke=""black"" stroke-width=""1.5"" fill=""none"" />
    <circle cx=669.6398855013672 cy=384 r=22.86747137534182 stroke=""black"" stroke-width=""1.5"" fill=""none"" />
    <circle cx=803.17 cy=250.4698855013673 r=22.86747137534182 stroke=""black"" stroke-width=""1.5"" fill=""none"" />
    <polygon points = ""803.17,384 809.6025053605267,406.86747137534184 796.7374946394732,406.86747137534184"" stroke=""white"" stroke-width=""3"" fill = ""white"" />
    
    </svg>
    </div>
        ",,,,,,,,,,,,stimulus,,,,,,,,,,,,,,,,,,22
16,html-keyboard-response,16,197153,0.0-16.0,886.2999999523163,arrowdown,,"
    <div style="" display: block;  position: relative;"">
    
    <svg width=1366 height=768>
    <circle cx=620 cy=384 r=16.007229962739274 stroke=""black"" stroke-width=""1"" fill=""black"" />
    <circle cx=936.7001144986327 cy=384 r=22.86747137534182 stroke=""none"" stroke-width=""1.5"" fill=""none"" />
    <circle cx=803.17 cy=517.5301144986327 r=22.86747137534182 stroke=""none"" stroke-width=""1.5"" fill=""none"" />
    <circle cx=669.6398855013672 cy=384 r=22.86747137534182 stroke=""none"" stroke-width=""1.5"" fill=""none"" />
    <circle cx=803.17 cy=250.4698855013673 r=22.86747137534182 stroke=""none"" stroke-width=""1.5"" fill=""none"" />
    <polygon points = ""803.17,384 809.6025053605267,406.86747137534184 796.7374946394732,406.86747137534184"" stroke=""none"" stroke-width=""3"" fill = ""none"" />
    
    </svg>
    </div>
        ",,,,,,,,,,,,practice_get_response,True,lLwnYe5CakH1TgfS,133.5301144986327,2.91,False,False,False,183.17,4.0,601.49,,,,,,,,22
17,html-keyboard-response,17,197665,0.0-17.0,,,,"
    <div style="" display: block;  position: relative;"">
    
    <svg width=1366 height=768>
    <circle cx=620 cy=384 r=16.007229962739274 stroke=""black"" stroke-width=""1"" fill=""black"" />
    <circle cx=936.7001144986327 cy=384 r=22.86747137534182 stroke=""none"" stroke-width=""1.5"" fill=""none"" />
    <circle cx=803.17 cy=517.5301144986327 r=22.86747137534182 stroke=""none"" stroke-width=""1.5"" fill=""none"" />
    <circle cx=669.6398855013672 cy=384 r=22.86747137534182 stroke=""none"" stroke-width=""1.5"" fill=""none"" />
    <circle cx=803.17 cy=250.4698855013673 r=22.86747137534182 stroke=""none"" stroke-width=""1.5"" fill=""none"" />
    <polygon points = ""803.17,384 809.6025053605267,406.86747137534184 796.7374946394732,406.86747137534184"" stroke=""none"" stroke-width=""3"" fill = ""none"" />
    
    </svg>
    </div>
        ",,,,,,,,,,,,,,,,,,,,,,,,,,,,,,22
18,html-keyboard-response,18,197821,0.0-18.0,,,,"
    <div style="" display: block;  position: relative;"">
    <svg width=1366 height=768>
    
    <circle cx=620 cy=384 r=16.007229962739274 stroke=""black"" stroke-width=""1"" fill=""black"" />
    <circle cx=803.17 cy=384 r=22.86747137534182 stroke=""black"" stroke-width=""1.5"" fill=""none"" />
    <circle cx=936.7001144986327 cy=384 r=22.86747137534182 stroke=""black"" stroke-width=""1.5"" fill=""none"" />
    <circle cx=803.17 cy=517.5301144986327 r=22.86747137534182 stroke=""black"" stroke-width=""1.5"" fill=""none"" />
    <circle cx=669.6398855013672 cy=384 r=22.86747137534182 stroke=""black"" stroke-width=""1.5"" fill=""none"" />
    <circle cx=803.17 cy=250.4698855013673 r=22.86747137534182 stroke=""black"" stroke-width=""1.5"" fill=""none"" />
    <polygon points = ""803.17,384 809.6025053605267,406.86747137534184 796.7374946394732,406.86747137534184"" stroke=""white"" stroke-width=""3"" fill = ""white"" />
    
    </svg>
    </div>
        ",,,,,,,,,,,,stimulus,,,,,,,,,,,,,,,,,,22
19,html-keyboard-response,19,198403,0.0-19.0,580.8999999761581,arrowdown,,"
    <div style="" display: block;  position: relative;"">
    
    <svg width=1366 height=768>
    <circle cx=620 cy=384 r=16.007229962739274 stroke=""black"" stroke-width=""1"" fill=""black"" />
    <circle cx=936.7001144986327 cy=384 r=22.86747137534182 stroke=""none"" stroke-width=""1.5"" fill=""none"" />
    <circle cx=803.17 cy=517.5301144986327 r=22.86747137534182 stroke=""none"" stroke-width=""1.5"" fill=""none"" />
    <circle cx=669.6398855013672 cy=384 r=22.86747137534182 stroke=""none"" stroke-width=""1.5"" fill=""none"" />
    <circle cx=803.17 cy=250.4698855013673 r=22.86747137534182 stroke=""none"" stroke-width=""1.5"" fill=""none"" />
    <polygon points = ""803.17,384 809.6025053605267,406.86747137534184 796.7374946394732,406.86747137534184"" stroke=""none"" stroke-width=""3"" fill = ""none"" />
    
    </svg>
    </div>
        ",,,,,,,,,,,,practice_get_response,True,lLwnYe5CakH1TgfS,133.5301144986327,2.91,False,False,False,183.17,4.0,601.49,,,,,,,,22
20,html-keyboard-response,20,198909,0.0-20.0,,,,"
    <div style="" display: block;  position: relative;"">
    
    <svg width=1366 height=768>
    <circle cx=620 cy=384 r=16.007229962739274 stroke=""black"" stroke-width=""1"" fill=""black"" />
    <circle cx=936.7001144986327 cy=384 r=22.86747137534182 stroke=""none"" stroke-width=""1.5"" fill=""none"" />
    <circle cx=803.17 cy=517.5301144986327 r=22.86747137534182 stroke=""none"" stroke-width=""1.5"" fill=""none"" />
    <circle cx=669.6398855013672 cy=384 r=22.86747137534182 stroke=""none"" stroke-width=""1.5"" fill=""none"" />
    <circle cx=803.17 cy=250.4698855013673 r=22.86747137534182 stroke=""none"" stroke-width=""1.5"" fill=""none"" />
    <polygon points = ""803.17,384 809.6025053605267,406.86747137534184 796.7374946394732,406.86747137534184"" stroke=""none"" stroke-width=""3"" fill = ""none"" />
    
    </svg>
    </div>
        ",,,,,,,,,,,,,,,,,,,,,,,,,,,,,,22
21,html-keyboard-response,21,199065,0.0-21.0,,,,"
    <div style="" display: block;  position: relative;"">
    <svg width=1366 height=768>
    
    <circle cx=620 cy=384 r=16.007229962739274 stroke=""black"" stroke-width=""1"" fill=""black"" />
    <circle cx=436.83000000000004 cy=384 r=22.86747137534182 stroke=""black"" stroke-width=""1.5"" fill=""none"" />
    <circle cx=570.3601144986328 cy=384 r=22.86747137534182 stroke=""black"" stroke-width=""1.5"" fill=""none"" />
    <circle cx=436.83000000000004 cy=517.5301144986327 r=22.86747137534182 stroke=""black"" stroke-width=""1.5"" fill=""none"" />
    <circle cx=303.2998855013673 cy=384 r=22.86747137534182 stroke=""black"" stroke-width=""1.5"" fill=""none"" />
    <circle cx=436.83000000000004 cy=250.4698855013673 r=22.86747137534182 stroke=""black"" stroke-width=""1.5"" fill=""none"" />
    <polygon points = ""436.83000000000004,384 443.2625053605268,406.86747137534184 430.3974946394733,406.86747137534184"" stroke=""white"" stroke-width=""3"" fill = ""white"" />
    
    </svg>
    </div>
        ",,,,,,,,,,,,stimulus,,,,,,,,,,,,,,,,,,22
22,html-keyboard-response,22,200126,0.0-22.0,1059.5999999046326,arrowup,,"
    <div style="" display: block;  position: relative;"">
    
    <svg width=1366 height=768>
    <circle cx=620 cy=384 r=16.007229962739274 stroke=""black"" stroke-width=""1"" fill=""black"" />
    <circle cx=570.3601144986328 cy=384 r=22.86747137534182 stroke=""none"" stroke-width=""1.5"" fill=""none"" />
    <circle cx=436.83000000000004 cy=517.5301144986327 r=22.86747137534182 stroke=""none"" stroke-width=""1.5"" fill=""none"" />
    <circle cx=303.2998855013673 cy=384 r=22.86747137534182 stroke=""none"" stroke-width=""1.5"" fill=""none"" />
    <circle cx=436.83000000000004 cy=250.4698855013673 r=22.86747137534182 stroke=""none"" stroke-width=""1.5"" fill=""none"" />
    <polygon points = ""436.83000000000004,384 443.2625053605268,406.86747137534184 430.3974946394733,406.86747137534184"" stroke=""none"" stroke-width=""3"" fill = ""none"" />
    
    </svg>
    </div>
        ",,,,,,,,,,,,practice_get_response,False,lLwnYe5CakH1TgfS,133.5301144986327,2.91,True,False,False,183.17,4.0,601.49,,,,,,,,22
23,html-keyboard-response,23,205754,0.0-23.0,5625.899999976158,arrowdown,,"<div> 
<h2 class=""bolded-blue"">Well done!</h2>
<p> Now that you have the hang of it, we&#39;ll start the study. This session has 25 trials and takes about 2 minute to complete. </p> 
<p>If you are ready for the real deal, please press the <b>down</b> arrow to continue.
</p>
</div>",,,,,,,,,,,,,,,,,,,,,,,,,,,,,,22
24,html-keyboard-response,24,218976,0.0-24.0,13219.599999904633,arrowdown,,"<div id=""continue""> 
<p>Again, please keep the <b>full screen</b> mode for the best experience.</p>
<p>Please do not move around and keep your eye on the black dot. Click <b>up</b> or <b>down</b> key on your keyboard to indicate the opening of the center circle. Make your best guess!</p>
<p>Please press the <b>down</b> arrow key to start the session 1. </p>
</div>",,,,,,,,,,,,,,,,,,,,,,,,,,,,,,22
25,html-keyboard-response,25,219486,0.0-25.0,,,,"
    <div style="" display: block;  position: relative;"">
    
    <svg width=1366 height=768>
    <circle cx=620 cy=384 r=16.007229962739274 stroke=""black"" stroke-width=""1"" fill=""black"" />
    <circle cx=570.3601144986328 cy=384 r=22.86747137534182 stroke=""none"" stroke-width=""1.5"" fill=""none"" />
    <circle cx=436.83000000000004 cy=517.5301144986327 r=22.86747137534182 stroke=""none"" stroke-width=""1.5"" fill=""none"" />
    <circle cx=303.2998855013673 cy=384 r=22.86747137534182 stroke=""none"" stroke-width=""1.5"" fill=""none"" />
    <circle cx=436.83000000000004 cy=250.4698855013673 r=22.86747137534182 stroke=""none"" stroke-width=""1.5"" fill=""none"" />
    <polygon points = ""436.83000000000004,384 443.2625053605268,406.86747137534184 430.3974946394733,406.86747137534184"" stroke=""none"" stroke-width=""3"" fill = ""none"" />
    
    </svg>
    </div>
        ",,,,,,,,,,,,,,,,,,,,,,,,,,,,,,22
26,html-keyboard-response,26,219642,0.0-26.0,,,,"
    <div style="" display: block;  position: relative;"">
    <svg width=1366 height=768>
    
    <circle cx=620 cy=384 r=16.007229962739274 stroke=""black"" stroke-width=""1"" fill=""black"" />
    <circle cx=436.83000000000004 cy=384 r=22.86747137534182 stroke=""black"" stroke-width=""1.5"" fill=""none"" />
    <circle cx=555.8905 cy=384 r=22.86747137534182 stroke=""black"" stroke-width=""1.5"" fill=""none"" />
    <circle cx=436.83000000000004 cy=503.0605 r=22.86747137534182 stroke=""black"" stroke-width=""1.5"" fill=""none"" />
    <circle cx=317.76950000000005 cy=384 r=22.86747137534182 stroke=""black"" stroke-width=""1.5"" fill=""none"" />
    <circle cx=436.83000000000004 cy=264.9395 r=22.86747137534182 stroke=""black"" stroke-width=""1.5"" fill=""none"" />
    <polygon points = ""436.83000000000004,384 443.2625053605268,361.13252862465816 430.3974946394733,361.13252862465816"" stroke=""white"" stroke-width=""3"" fill = ""white"" />
    
    </svg>
    </div>
        ",,,,,,,,,,,,stimulus,,,,,,,,,,,,,,,,,,22
27,html-keyboard-response,27,220225,0.0-27.0,580.3999999761581,arrowup,,"
    <div style="" display: block;  position: relative;"">
    
    <svg width=1366 height=768>
    <circle cx=620 cy=384 r=16.007229962739274 stroke=""black"" stroke-width=""1"" fill=""black"" />
    <circle cx=555.8905 cy=384 r=22.86747137534182 stroke=""none"" stroke-width=""1.5"" fill=""none"" />
    <circle cx=436.83000000000004 cy=503.0605 r=22.86747137534182 stroke=""none"" stroke-width=""1.5"" fill=""none"" />
    <circle cx=317.76950000000005 cy=384 r=22.86747137534182 stroke=""none"" stroke-width=""1.5"" fill=""none"" />
    <circle cx=436.83000000000004 cy=264.9395 r=22.86747137534182 stroke=""none"" stroke-width=""1.5"" fill=""none"" />
    <polygon points = ""436.83000000000004,384 443.2625053605268,361.13252862465816 430.3974946394733,361.13252862465816"" stroke=""none"" stroke-width=""3"" fill = ""none"" />
    
    </svg>
    </div>
        ",,,,,,,,,,,,get_response,True,lLwnYe5CakH1TgfS,,,True,True,False,183.17,4.0,601.49,119.0605,2.6,1.0,0.0,,,,22
28,html-keyboard-response,28,220741,0.0-28.0,,,,"
    <div style="" display: block;  position: relative;"">
    
    <svg width=1366 height=768>
    <circle cx=620 cy=384 r=16.007229962739274 stroke=""black"" stroke-width=""1"" fill=""black"" />
    <circle cx=555.8905 cy=384 r=22.86747137534182 stroke=""none"" stroke-width=""1.5"" fill=""none"" />
    <circle cx=436.83000000000004 cy=503.0605 r=22.86747137534182 stroke=""none"" stroke-width=""1.5"" fill=""none"" />
    <circle cx=317.76950000000005 cy=384 r=22.86747137534182 stroke=""none"" stroke-width=""1.5"" fill=""none"" />
    <circle cx=436.83000000000004 cy=264.9395 r=22.86747137534182 stroke=""none"" stroke-width=""1.5"" fill=""none"" />
    <polygon points = ""436.83000000000004,384 443.2625053605268,361.13252862465816 430.3974946394733,361.13252862465816"" stroke=""none"" stroke-width=""3"" fill = ""none"" />
    
    </svg>
    </div>
        ",,,,,,,,,,,,,,,,,,,,,,,,,,,,,,22
29,html-keyboard-response,29,220896,0.0-29.0,,,,"
    <div style="" display: block;  position: relative;"">
    <svg width=1366 height=768>
    
    <circle cx=620 cy=384 r=16.007229962739274 stroke=""black"" stroke-width=""1"" fill=""black"" />
    <circle cx=803.17 cy=384 r=22.86747137534182 stroke=""black"" stroke-width=""1.5"" fill=""none"" />
    <circle cx=922.2304999999999 cy=384 r=22.86747137534182 stroke=""black"" stroke-width=""1.5"" fill=""none"" />
    <circle cx=803.17 cy=503.0605 r=22.86747137534182 stroke=""black"" stroke-width=""1.5"" fill=""none"" />
    <circle cx=684.1095 cy=384 r=22.86747137534182 stroke=""black"" stroke-width=""1.5"" fill=""none"" />
    <circle cx=803.17 cy=264.9395 r=22.86747137534182 stroke=""black"" stroke-width=""1.5"" fill=""none"" />
    <polygon points = ""803.17,384 809.6025053605267,406.86747137534184 796.7374946394732,406.86747137534184"" stroke=""white"" stroke-width=""3"" fill = ""white"" />
    
    </svg>
    </div>
        ",,,,,,,,,,,,stimulus,,,,,,,,,,,,,,,,,,22
30,html-keyboard-response,30,221283,0.0-30.0,384.60000002384186,arrowdown,,"
    <div style="" display: block;  position: relative;"">
    
    <svg width=1366 height=768>
    <circle cx=620 cy=384 r=16.007229962739274 stroke=""black"" stroke-width=""1"" fill=""black"" />
    <circle cx=922.2304999999999 cy=384 r=22.86747137534182 stroke=""none"" stroke-width=""1.5"" fill=""none"" />
    <circle cx=803.17 cy=503.0605 r=22.86747137534182 stroke=""none"" stroke-width=""1.5"" fill=""none"" />
    <circle cx=684.1095 cy=384 r=22.86747137534182 stroke=""none"" stroke-width=""1.5"" fill=""none"" />
    <circle cx=803.17 cy=264.9395 r=22.86747137534182 stroke=""none"" stroke-width=""1.5"" fill=""none"" />
    <polygon points = ""803.17,384 809.6025053605267,406.86747137534184 796.7374946394732,406.86747137534184"" stroke=""none"" stroke-width=""3"" fill = ""none"" />
    
    </svg>
    </div>
        ",,,,,,,,,,,,get_response,True,lLwnYe5CakH1TgfS,,,False,False,False,183.17,4.0,601.49,119.0605,2.6,1.0,0.0,,,,22
31,html-keyboard-response,31,221800,0.0-31.0,,,,"
    <div style="" display: block;  position: relative;"">
    
    <svg width=1366 height=768>
    <circle cx=620 cy=384 r=16.007229962739274 stroke=""black"" stroke-width=""1"" fill=""black"" />
    <circle cx=922.2304999999999 cy=384 r=22.86747137534182 stroke=""none"" stroke-width=""1.5"" fill=""none"" />
    <circle cx=803.17 cy=503.0605 r=22.86747137534182 stroke=""none"" stroke-width=""1.5"" fill=""none"" />
    <circle cx=684.1095 cy=384 r=22.86747137534182 stroke=""none"" stroke-width=""1.5"" fill=""none"" />
    <circle cx=803.17 cy=264.9395 r=22.86747137534182 stroke=""none"" stroke-width=""1.5"" fill=""none"" />
    <polygon points = ""803.17,384 809.6025053605267,406.86747137534184 796.7374946394732,406.86747137534184"" stroke=""none"" stroke-width=""3"" fill = ""none"" />
    
    </svg>
    </div>
        ",,,,,,,,,,,,,,,,,,,,,,,,,,,,,,22
32,html-keyboard-response,32,221956,0.0-32.0,,,,"
    <div style="" display: block;  position: relative;"">
    <svg width=1366 height=768>
    
    <circle cx=620 cy=384 r=16.007229962739274 stroke=""black"" stroke-width=""1"" fill=""black"" />
    <circle cx=803.17 cy=384 r=22.86747137534182 stroke=""black"" stroke-width=""1.5"" fill=""none"" />
    <circle cx=922.2304999999999 cy=384 r=22.86747137534182 stroke=""black"" stroke-width=""1.5"" fill=""none"" />
    <circle cx=803.17 cy=503.0605 r=22.86747137534182 stroke=""black"" stroke-width=""1.5"" fill=""none"" />
    <circle cx=684.1095 cy=384 r=22.86747137534182 stroke=""black"" stroke-width=""1.5"" fill=""none"" />
    <circle cx=803.17 cy=264.9395 r=22.86747137534182 stroke=""black"" stroke-width=""1.5"" fill=""none"" />
    <polygon points = ""803.17,384 809.6025053605267,361.13252862465816 796.7374946394732,361.13252862465816"" stroke=""white"" stroke-width=""3"" fill = ""white"" />
    
    </svg>
    </div>
        ",,,,,,,,,,,,stimulus,,,,,,,,,,,,,,,,,,22
33,html-keyboard-response,33,222537,0.0-33.0,579.1000000238419,arrowup,,"
    <div style="" display: block;  position: relative;"">
    
    <svg width=1366 height=768>
    <circle cx=620 cy=384 r=16.007229962739274 stroke=""black"" stroke-width=""1"" fill=""black"" />
    <circle cx=922.2304999999999 cy=384 r=22.86747137534182 stroke=""none"" stroke-width=""1.5"" fill=""none"" />
    <circle cx=803.17 cy=503.0605 r=22.86747137534182 stroke=""none"" stroke-width=""1.5"" fill=""none"" />
    <circle cx=684.1095 cy=384 r=22.86747137534182 stroke=""none"" stroke-width=""1.5"" fill=""none"" />
    <circle cx=803.17 cy=264.9395 r=22.86747137534182 stroke=""none"" stroke-width=""1.5"" fill=""none"" />
    <polygon points = ""803.17,384 809.6025053605267,361.13252862465816 796.7374946394732,361.13252862465816"" stroke=""none"" stroke-width=""3"" fill = ""none"" />
    
    </svg>
    </div>
        ",,,,,,,,,,,,get_response,True,lLwnYe5CakH1TgfS,,,False,True,False,183.17,4.0,601.49,119.0605,2.6,1.0,0.0,,,,22
34,html-keyboard-response,34,223041,0.0-34.0,,,,"
    <div style="" display: block;  position: relative;"">
    
    <svg width=1366 height=768>
    <circle cx=620 cy=384 r=16.007229962739274 stroke=""black"" stroke-width=""1"" fill=""black"" />
    <circle cx=922.2304999999999 cy=384 r=22.86747137534182 stroke=""none"" stroke-width=""1.5"" fill=""none"" />
    <circle cx=803.17 cy=503.0605 r=22.86747137534182 stroke=""none"" stroke-width=""1.5"" fill=""none"" />
    <circle cx=684.1095 cy=384 r=22.86747137534182 stroke=""none"" stroke-width=""1.5"" fill=""none"" />
    <circle cx=803.17 cy=264.9395 r=22.86747137534182 stroke=""none"" stroke-width=""1.5"" fill=""none"" />
    <polygon points = ""803.17,384 809.6025053605267,361.13252862465816 796.7374946394732,361.13252862465816"" stroke=""none"" stroke-width=""3"" fill = ""none"" />
    
    </svg>
    </div>
        ",,,,,,,,,,,,,,,,,,,,,,,,,,,,,,22
35,html-keyboard-response,35,223198,0.0-35.0,,,,"
    <div style="" display: block;  position: relative;"">
    <svg width=1366 height=768>
    
    <circle cx=620 cy=384 r=16.007229962739274 stroke=""black"" stroke-width=""1"" fill=""black"" />
    <circle cx=803.17 cy=384 r=22.86747137534182 stroke=""black"" stroke-width=""1.5"" fill=""none"" />
    <circle cx=911.4068181818182 cy=384 r=22.86747137534182 stroke=""black"" stroke-width=""1.5"" fill=""none"" />
    <circle cx=803.17 cy=492.2368181818182 r=22.86747137534182 stroke=""black"" stroke-width=""1.5"" fill=""none"" />
    <circle cx=694.9331818181818 cy=384 r=22.86747137534182 stroke=""black"" stroke-width=""1.5"" fill=""none"" />
    <circle cx=803.17 cy=275.7631818181818 r=22.86747137534182 stroke=""black"" stroke-width=""1.5"" fill=""none"" />
    <polygon points = ""803.17,384 809.6025053605267,406.86747137534184 796.7374946394732,406.86747137534184"" stroke=""white"" stroke-width=""3"" fill = ""white"" />
    
    </svg>
    </div>
        ",,,,,,,,,,,,stimulus,,,,,,,,,,,,,,,,,,22
36,html-keyboard-response,36,223515,0.0-36.0,315.5,arrowdown,,"
    <div style="" display: block;  position: relative;"">
    
    <svg width=1366 height=768>
    <circle cx=620 cy=384 r=16.007229962739274 stroke=""black"" stroke-width=""1"" fill=""black"" />
    <circle cx=911.4068181818182 cy=384 r=22.86747137534182 stroke=""none"" stroke-width=""1.5"" fill=""none"" />
    <circle cx=803.17 cy=492.2368181818182 r=22.86747137534182 stroke=""none"" stroke-width=""1.5"" fill=""none"" />
    <circle cx=694.9331818181818 cy=384 r=22.86747137534182 stroke=""none"" stroke-width=""1.5"" fill=""none"" />
    <circle cx=803.17 cy=275.7631818181818 r=22.86747137534182 stroke=""none"" stroke-width=""1.5"" fill=""none"" />
    <polygon points = ""803.17,384 809.6025053605267,406.86747137534184 796.7374946394732,406.86747137534184"" stroke=""none"" stroke-width=""3"" fill = ""none"" />
    
    </svg>
    </div>
        ",,,,,,,,,,,,get_response,True,lLwnYe5CakH1TgfS,,,False,False,False,183.17,4.0,601.49,108.23681818181817,2.36,1.0,0.0,,,,22
37,html-keyboard-response,37,224031,0.0-37.0,,,,"
    <div style="" display: block;  position: relative;"">
    
    <svg width=1366 height=768>
    <circle cx=620 cy=384 r=16.007229962739274 stroke=""black"" stroke-width=""1"" fill=""black"" />
    <circle cx=911.4068181818182 cy=384 r=22.86747137534182 stroke=""none"" stroke-width=""1.5"" fill=""none"" />
    <circle cx=803.17 cy=492.2368181818182 r=22.86747137534182 stroke=""none"" stroke-width=""1.5"" fill=""none"" />
    <circle cx=694.9331818181818 cy=384 r=22.86747137534182 stroke=""none"" stroke-width=""1.5"" fill=""none"" />
    <circle cx=803.17 cy=275.7631818181818 r=22.86747137534182 stroke=""none"" stroke-width=""1.5"" fill=""none"" />
    <polygon points = ""803.17,384 809.6025053605267,406.86747137534184 796.7374946394732,406.86747137534184"" stroke=""none"" stroke-width=""3"" fill = ""none"" />
    
    </svg>
    </div>
        ",,,,,,,,,,,,,,,,,,,,,,,,,,,,,,22
38,html-keyboard-response,38,224187,0.0-38.0,,,,"
    <div style="" display: block;  position: relative;"">
    <svg width=1366 height=768>
    
    <circle cx=620 cy=384 r=16.007229962739274 stroke=""black"" stroke-width=""1"" fill=""black"" />
    <circle cx=803.17 cy=384 r=22.86747137534182 stroke=""black"" stroke-width=""1.5"" fill=""none"" />
    <circle cx=901.5671074380165 cy=384 r=22.86747137534182 stroke=""black"" stroke-width=""1.5"" fill=""none"" />
    <circle cx=803.17 cy=482.3971074380165 r=22.86747137534182 stroke=""black"" stroke-width=""1.5"" fill=""none"" />
    <circle cx=704.7728925619834 cy=384 r=22.86747137534182 stroke=""black"" stroke-width=""1.5"" fill=""none"" />
    <circle cx=803.17 cy=285.6028925619835 r=22.86747137534182 stroke=""black"" stroke-width=""1.5"" fill=""none"" />
    <polygon points = ""803.17,384 809.6025053605267,361.13252862465816 796.7374946394732,361.13252862465816"" stroke=""white"" stroke-width=""3"" fill = ""white"" />
    
    </svg>
    </div>
        ",,,,,,,,,,,,stimulus,,,,,,,,,,,,,,,,,,22
39,html-keyboard-response,39,224485,0.0-39.0,295.0,arrowup,,"
    <div style="" display: block;  position: relative;"">
    
    <svg width=1366 height=768>
    <circle cx=620 cy=384 r=16.007229962739274 stroke=""black"" stroke-width=""1"" fill=""black"" />
    <circle cx=901.5671074380165 cy=384 r=22.86747137534182 stroke=""none"" stroke-width=""1.5"" fill=""none"" />
    <circle cx=803.17 cy=482.3971074380165 r=22.86747137534182 stroke=""none"" stroke-width=""1.5"" fill=""none"" />
    <circle cx=704.7728925619834 cy=384 r=22.86747137534182 stroke=""none"" stroke-width=""1.5"" fill=""none"" />
    <circle cx=803.17 cy=285.6028925619835 r=22.86747137534182 stroke=""none"" stroke-width=""1.5"" fill=""none"" />
    <polygon points = ""803.17,384 809.6025053605267,361.13252862465816 796.7374946394732,361.13252862465816"" stroke=""none"" stroke-width=""3"" fill = ""none"" />
    
    </svg>
    </div>
        ",,,,,,,,,,,,get_response,True,lLwnYe5CakH1TgfS,,,False,True,False,183.17,4.0,601.49,98.3971074380165,2.15,1.0,0.0,,,,22
40,html-keyboard-response,40,224994,0.0-40.0,,,,"
    <div style="" display: block;  position: relative;"">
    
    <svg width=1366 height=768>
    <circle cx=620 cy=384 r=16.007229962739274 stroke=""black"" stroke-width=""1"" fill=""black"" />
    <circle cx=901.5671074380165 cy=384 r=22.86747137534182 stroke=""none"" stroke-width=""1.5"" fill=""none"" />
    <circle cx=803.17 cy=482.3971074380165 r=22.86747137534182 stroke=""none"" stroke-width=""1.5"" fill=""none"" />
    <circle cx=704.7728925619834 cy=384 r=22.86747137534182 stroke=""none"" stroke-width=""1.5"" fill=""none"" />
    <circle cx=803.17 cy=285.6028925619835 r=22.86747137534182 stroke=""none"" stroke-width=""1.5"" fill=""none"" />
    <polygon points = ""803.17,384 809.6025053605267,361.13252862465816 796.7374946394732,361.13252862465816"" stroke=""none"" stroke-width=""3"" fill = ""none"" />
    
    </svg>
    </div>
        ",,,,,,,,,,,,,,,,,,,,,,,,,,,,,,22
41,html-keyboard-response,41,225151,0.0-41.0,,,,"
    <div style="" display: block;  position: relative;"">
    <svg width=1366 height=768>
    
    <circle cx=620 cy=384 r=16.007229962739274 stroke=""black"" stroke-width=""1"" fill=""black"" />
    <circle cx=436.83000000000004 cy=384 r=22.86747137534182 stroke=""black"" stroke-width=""1.5"" fill=""none"" />
    <circle cx=526.2819158527423 cy=384 r=22.86747137534182 stroke=""black"" stroke-width=""1.5"" fill=""none"" />
    <circle cx=436.83000000000004 cy=473.4519158527423 r=22.86747137534182 stroke=""black"" stroke-width=""1.5"" fill=""none"" />
    <circle cx=347.37808414725777 cy=384 r=22.86747137534182 stroke=""black"" stroke-width=""1.5"" fill=""none"" />
    <circle cx=436.83000000000004 cy=294.5480841472577 r=22.86747137534182 stroke=""black"" stroke-width=""1.5"" fill=""none"" />
    <polygon points = ""436.83000000000004,384 443.2625053605268,361.13252862465816 430.3974946394733,361.13252862465816"" stroke=""white"" stroke-width=""3"" fill = ""white"" />
    
    </svg>
    </div>
        ",,,,,,,,,,,,stimulus,,,,,,,,,,,,,,,,,,22
42,html-keyboard-response,42,225553,0.0-42.0,399.59999990463257,arrowdown,,"
    <div style="" display: block;  position: relative;"">
    
    <svg width=1366 height=768>
    <circle cx=620 cy=384 r=16.007229962739274 stroke=""black"" stroke-width=""1"" fill=""black"" />
    <circle cx=526.2819158527423 cy=384 r=22.86747137534182 stroke=""none"" stroke-width=""1.5"" fill=""none"" />
    <circle cx=436.83000000000004 cy=473.4519158527423 r=22.86747137534182 stroke=""none"" stroke-width=""1.5"" fill=""none"" />
    <circle cx=347.37808414725777 cy=384 r=22.86747137534182 stroke=""none"" stroke-width=""1.5"" fill=""none"" />
    <circle cx=436.83000000000004 cy=294.5480841472577 r=22.86747137534182 stroke=""none"" stroke-width=""1.5"" fill=""none"" />
    <polygon points = ""436.83000000000004,384 443.2625053605268,361.13252862465816 430.3974946394733,361.13252862465816"" stroke=""none"" stroke-width=""3"" fill = ""none"" />
    
    </svg>
    </div>
        ",,,,,,,,,,,,get_response,False,lLwnYe5CakH1TgfS,,,True,True,False,183.17,4.0,601.49,89.45191585274227,1.95,1.0,0.0,,,,22
43,html-keyboard-response,43,226065,0.0-43.0,,,,"
    <div style="" display: block;  position: relative;"">
    
    <svg width=1366 height=768>
    <circle cx=620 cy=384 r=16.007229962739274 stroke=""black"" stroke-width=""1"" fill=""black"" />
    <circle cx=526.2819158527423 cy=384 r=22.86747137534182 stroke=""none"" stroke-width=""1.5"" fill=""none"" />
    <circle cx=436.83000000000004 cy=473.4519158527423 r=22.86747137534182 stroke=""none"" stroke-width=""1.5"" fill=""none"" />
    <circle cx=347.37808414725777 cy=384 r=22.86747137534182 stroke=""none"" stroke-width=""1.5"" fill=""none"" />
    <circle cx=436.83000000000004 cy=294.5480841472577 r=22.86747137534182 stroke=""none"" stroke-width=""1.5"" fill=""none"" />
    <polygon points = ""436.83000000000004,384 443.2625053605268,361.13252862465816 430.3974946394733,361.13252862465816"" stroke=""none"" stroke-width=""3"" fill = ""none"" />
    
    </svg>
    </div>
        ",,,,,,,,,,,,,,,,,,,,,,,,,,,,,,22
44,html-keyboard-response,44,226220,0.0-44.0,,,,"
    <div style="" display: block;  position: relative;"">
    <svg width=1366 height=768>
    
    <circle cx=620 cy=384 r=16.007229962739274 stroke=""black"" stroke-width=""1"" fill=""black"" />
    <circle cx=803.17 cy=384 r=22.86747137534182 stroke=""black"" stroke-width=""1.5"" fill=""none"" />
    <circle cx=919.457490608565 cy=384 r=22.86747137534182 stroke=""black"" stroke-width=""1.5"" fill=""none"" />
    <circle cx=803.17 cy=500.28749060856495 r=22.86747137534182 stroke=""black"" stroke-width=""1.5"" fill=""none"" />
    <circle cx=686.882509391435 cy=384 r=22.86747137534182 stroke=""black"" stroke-width=""1.5"" fill=""none"" />
    <circle cx=803.17 cy=267.71250939143505 r=22.86747137534182 stroke=""black"" stroke-width=""1.5"" fill=""none"" />
    <polygon points = ""803.17,384 809.6025053605267,406.86747137534184 796.7374946394732,406.86747137534184"" stroke=""white"" stroke-width=""3"" fill = ""white"" />
    
    </svg>
    </div>
        ",,,,,,,,,,,,stimulus,,,,,,,,,,,,,,,,,,22
45,html-keyboard-response,45,226690,0.0-45.0,468.0,arrowdown,,"
    <div style="" display: block;  position: relative;"">
    
    <svg width=1366 height=768>
    <circle cx=620 cy=384 r=16.007229962739274 stroke=""black"" stroke-width=""1"" fill=""black"" />
    <circle cx=919.457490608565 cy=384 r=22.86747137534182 stroke=""none"" stroke-width=""1.5"" fill=""none"" />
    <circle cx=803.17 cy=500.28749060856495 r=22.86747137534182 stroke=""none"" stroke-width=""1.5"" fill=""none"" />
    <circle cx=686.882509391435 cy=384 r=22.86747137534182 stroke=""none"" stroke-width=""1.5"" fill=""none"" />
    <circle cx=803.17 cy=267.71250939143505 r=22.86747137534182 stroke=""none"" stroke-width=""1.5"" fill=""none"" />
    <polygon points = ""803.17,384 809.6025053605267,406.86747137534184 796.7374946394732,406.86747137534184"" stroke=""none"" stroke-width=""3"" fill = ""none"" />
    
    </svg>
    </div>
        ",,,,,,,,,,,,get_response,True,lLwnYe5CakH1TgfS,,,False,False,False,183.17,4.0,601.49,116.28749060856497,2.54,1.0,0.0,,,,22
46,html-keyboard-response,46,227195,0.0-46.0,,,,"
    <div style="" display: block;  position: relative;"">
    
    <svg width=1366 height=768>
    <circle cx=620 cy=384 r=16.007229962739274 stroke=""black"" stroke-width=""1"" fill=""black"" />
    <circle cx=919.457490608565 cy=384 r=22.86747137534182 stroke=""none"" stroke-width=""1.5"" fill=""none"" />
    <circle cx=803.17 cy=500.28749060856495 r=22.86747137534182 stroke=""none"" stroke-width=""1.5"" fill=""none"" />
    <circle cx=686.882509391435 cy=384 r=22.86747137534182 stroke=""none"" stroke-width=""1.5"" fill=""none"" />
    <circle cx=803.17 cy=267.71250939143505 r=22.86747137534182 stroke=""none"" stroke-width=""1.5"" fill=""none"" />
    <polygon points = ""803.17,384 809.6025053605267,406.86747137534184 796.7374946394732,406.86747137534184"" stroke=""none"" stroke-width=""3"" fill = ""none"" />
    
    </svg>
    </div>
        ",,,,,,,,,,,,,,,,,,,,,,,,,,,,,,22
47,html-keyboard-response,47,227353,0.0-47.0,,,,"
    <div style="" display: block;  position: relative;"">
    <svg width=1366 height=768>
    
    <circle cx=620 cy=384 r=16.007229962739274 stroke=""black"" stroke-width=""1"" fill=""black"" />
    <circle cx=436.83000000000004 cy=384 r=22.86747137534182 stroke=""black"" stroke-width=""1.5"" fill=""none"" />
    <circle cx=553.117490608565 cy=384 r=22.86747137534182 stroke=""black"" stroke-width=""1.5"" fill=""none"" />
    <circle cx=436.83000000000004 cy=500.28749060856495 r=22.86747137534182 stroke=""black"" stroke-width=""1.5"" fill=""none"" />
    <circle cx=320.5425093914351 cy=384 r=22.86747137534182 stroke=""black"" stroke-width=""1.5"" fill=""none"" />
    <circle cx=436.83000000000004 cy=267.71250939143505 r=22.86747137534182 stroke=""black"" stroke-width=""1.5"" fill=""none"" />
    <polygon points = ""436.83000000000004,384 443.2625053605268,361.13252862465816 430.3974946394733,361.13252862465816"" stroke=""white"" stroke-width=""3"" fill = ""white"" />
    
    </svg>
    </div>
        ",,,,,,,,,,,,stimulus,,,,,,,,,,,,,,,,,,22
48,html-keyboard-response,48,227940,0.0-48.0,585.6999999284744,arrowup,,"
    <div style="" display: block;  position: relative;"">
    
    <svg width=1366 height=768>
    <circle cx=620 cy=384 r=16.007229962739274 stroke=""black"" stroke-width=""1"" fill=""black"" />
    <circle cx=553.117490608565 cy=384 r=22.86747137534182 stroke=""none"" stroke-width=""1.5"" fill=""none"" />
    <circle cx=436.83000000000004 cy=500.28749060856495 r=22.86747137534182 stroke=""none"" stroke-width=""1.5"" fill=""none"" />
    <circle cx=320.5425093914351 cy=384 r=22.86747137534182 stroke=""none"" stroke-width=""1.5"" fill=""none"" />
    <circle cx=436.83000000000004 cy=267.71250939143505 r=22.86747137534182 stroke=""none"" stroke-width=""1.5"" fill=""none"" />
    <polygon points = ""436.83000000000004,384 443.2625053605268,361.13252862465816 430.3974946394733,361.13252862465816"" stroke=""none"" stroke-width=""3"" fill = ""none"" />
    
    </svg>
    </div>
        ",,,,,,,,,,,,get_response,True,lLwnYe5CakH1TgfS,,,True,True,False,183.17,4.0,601.49,116.28749060856497,2.54,1.0,0.0,,,,22
49,html-keyboard-response,49,228456,0.0-49.0,,,,"
    <div style="" display: block;  position: relative;"">
    
    <svg width=1366 height=768>
    <circle cx=620 cy=384 r=16.007229962739274 stroke=""black"" stroke-width=""1"" fill=""black"" />
    <circle cx=553.117490608565 cy=384 r=22.86747137534182 stroke=""none"" stroke-width=""1.5"" fill=""none"" />
    <circle cx=436.83000000000004 cy=500.28749060856495 r=22.86747137534182 stroke=""none"" stroke-width=""1.5"" fill=""none"" />
    <circle cx=320.5425093914351 cy=384 r=22.86747137534182 stroke=""none"" stroke-width=""1.5"" fill=""none"" />
    <circle cx=436.83000000000004 cy=267.71250939143505 r=22.86747137534182 stroke=""none"" stroke-width=""1.5"" fill=""none"" />
    <polygon points = ""436.83000000000004,384 443.2625053605268,361.13252862465816 430.3974946394733,361.13252862465816"" stroke=""none"" stroke-width=""3"" fill = ""none"" />
    
    </svg>
    </div>
        ",,,,,,,,,,,,,,,,,,,,,,,,,,,,,,22
50,html-keyboard-response,50,228612,0.0-50.0,,,,"
    <div style="" display: block;  position: relative;"">
    <svg width=1366 height=768>
    
    <circle cx=620 cy=384 r=16.007229962739274 stroke=""black"" stroke-width=""1"" fill=""black"" />
    <circle cx=436.83000000000004 cy=384 r=22.86747137534182 stroke=""black"" stroke-width=""1.5"" fill=""none"" />
    <circle cx=553.117490608565 cy=384 r=22.86747137534182 stroke=""black"" stroke-width=""1.5"" fill=""none"" />
    <circle cx=436.83000000000004 cy=500.28749060856495 r=22.86747137534182 stroke=""black"" stroke-width=""1.5"" fill=""none"" />
    <circle cx=320.5425093914351 cy=384 r=22.86747137534182 stroke=""black"" stroke-width=""1.5"" fill=""none"" />
    <circle cx=436.83000000000004 cy=267.71250939143505 r=22.86747137534182 stroke=""black"" stroke-width=""1.5"" fill=""none"" />
    <polygon points = ""436.83000000000004,384 443.2625053605268,406.86747137534184 430.3974946394733,406.86747137534184"" stroke=""white"" stroke-width=""3"" fill = ""white"" />
    
    </svg>
    </div>
        ",,,,,,,,,,,,stimulus,,,,,,,,,,,,,,,,,,22
51,html-keyboard-response,51,229019,0.0-51.0,404.5,arrowdown,,"
    <div style="" display: block;  position: relative;"">
    
    <svg width=1366 height=768>
    <circle cx=620 cy=384 r=16.007229962739274 stroke=""black"" stroke-width=""1"" fill=""black"" />
    <circle cx=553.117490608565 cy=384 r=22.86747137534182 stroke=""none"" stroke-width=""1.5"" fill=""none"" />
    <circle cx=436.83000000000004 cy=500.28749060856495 r=22.86747137534182 stroke=""none"" stroke-width=""1.5"" fill=""none"" />
    <circle cx=320.5425093914351 cy=384 r=22.86747137534182 stroke=""none"" stroke-width=""1.5"" fill=""none"" />
    <circle cx=436.83000000000004 cy=267.71250939143505 r=22.86747137534182 stroke=""none"" stroke-width=""1.5"" fill=""none"" />
    <polygon points = ""436.83000000000004,384 443.2625053605268,406.86747137534184 430.3974946394733,406.86747137534184"" stroke=""none"" stroke-width=""3"" fill = ""none"" />
    
    </svg>
    </div>
        ",,,,,,,,,,,,get_response,True,lLwnYe5CakH1TgfS,,,True,False,False,183.17,4.0,601.49,116.28749060856497,2.54,1.0,0.0,,,,22
52,html-keyboard-response,52,229525,0.0-52.0,,,,"
    <div style="" display: block;  position: relative;"">
    
    <svg width=1366 height=768>
    <circle cx=620 cy=384 r=16.007229962739274 stroke=""black"" stroke-width=""1"" fill=""black"" />
    <circle cx=553.117490608565 cy=384 r=22.86747137534182 stroke=""none"" stroke-width=""1.5"" fill=""none"" />
    <circle cx=436.83000000000004 cy=500.28749060856495 r=22.86747137534182 stroke=""none"" stroke-width=""1.5"" fill=""none"" />
    <circle cx=320.5425093914351 cy=384 r=22.86747137534182 stroke=""none"" stroke-width=""1.5"" fill=""none"" />
    <circle cx=436.83000000000004 cy=267.71250939143505 r=22.86747137534182 stroke=""none"" stroke-width=""1.5"" fill=""none"" />
    <polygon points = ""436.83000000000004,384 443.2625053605268,406.86747137534184 430.3974946394733,406.86747137534184"" stroke=""none"" stroke-width=""3"" fill = ""none"" />
    
    </svg>
    </div>
        ",,,,,,,,,,,,,,,,,,,,,,,,,,,,,,22
53,html-keyboard-response,53,229682,0.0-53.0,,,,"
    <div style="" display: block;  position: relative;"">
    <svg width=1366 height=768>
    
    <circle cx=620 cy=384 r=16.007229962739274 stroke=""black"" stroke-width=""1"" fill=""black"" />
    <circle cx=436.83000000000004 cy=384 r=22.86747137534182 stroke=""black"" stroke-width=""1.5"" fill=""none"" />
    <circle cx=542.5459005532409 cy=384 r=22.86747137534182 stroke=""black"" stroke-width=""1.5"" fill=""none"" />
    <circle cx=436.83000000000004 cy=489.7159005532409 r=22.86747137534182 stroke=""black"" stroke-width=""1.5"" fill=""none"" />
    <circle cx=331.11409944675916 cy=384 r=22.86747137534182 stroke=""black"" stroke-width=""1.5"" fill=""none"" />
    <circle cx=436.83000000000004 cy=278.2840994467591 r=22.86747137534182 stroke=""black"" stroke-width=""1.5"" fill=""none"" />
    <polygon points = ""436.83000000000004,384 443.2625053605268,406.86747137534184 430.3974946394733,406.86747137534184"" stroke=""white"" stroke-width=""3"" fill = ""white"" />
    
    </svg>
    </div>
        ",,,,,,,,,,,,stimulus,,,,,,,,,,,,,,,,,,22
54,html-keyboard-response,54,230142,0.0-54.0,458.3999999761581,arrowdown,,"
    <div style="" display: block;  position: relative;"">
    
    <svg width=1366 height=768>
    <circle cx=620 cy=384 r=16.007229962739274 stroke=""black"" stroke-width=""1"" fill=""black"" />
    <circle cx=542.5459005532409 cy=384 r=22.86747137534182 stroke=""none"" stroke-width=""1.5"" fill=""none"" />
    <circle cx=436.83000000000004 cy=489.7159005532409 r=22.86747137534182 stroke=""none"" stroke-width=""1.5"" fill=""none"" />
    <circle cx=331.11409944675916 cy=384 r=22.86747137534182 stroke=""none"" stroke-width=""1.5"" fill=""none"" />
    <circle cx=436.83000000000004 cy=278.2840994467591 r=22.86747137534182 stroke=""none"" stroke-width=""1.5"" fill=""none"" />
    <polygon points = ""436.83000000000004,384 443.2625053605268,406.86747137534184 430.3974946394733,406.86747137534184"" stroke=""none"" stroke-width=""3"" fill = ""none"" />
    
    </svg>
    </div>
        ",,,,,,,,,,,,get_response,True,lLwnYe5CakH1TgfS,,,True,False,False,183.17,4.0,601.49,105.71590055324089,2.31,1.0,0.0,,,,22
55,html-keyboard-response,55,230645,0.0-55.0,,,,"
    <div style="" display: block;  position: relative;"">
    
    <svg width=1366 height=768>
    <circle cx=620 cy=384 r=16.007229962739274 stroke=""black"" stroke-width=""1"" fill=""black"" />
    <circle cx=542.5459005532409 cy=384 r=22.86747137534182 stroke=""none"" stroke-width=""1.5"" fill=""none"" />
    <circle cx=436.83000000000004 cy=489.7159005532409 r=22.86747137534182 stroke=""none"" stroke-width=""1.5"" fill=""none"" />
    <circle cx=331.11409944675916 cy=384 r=22.86747137534182 stroke=""none"" stroke-width=""1.5"" fill=""none"" />
    <circle cx=436.83000000000004 cy=278.2840994467591 r=22.86747137534182 stroke=""none"" stroke-width=""1.5"" fill=""none"" />
    <polygon points = ""436.83000000000004,384 443.2625053605268,406.86747137534184 430.3974946394733,406.86747137534184"" stroke=""none"" stroke-width=""3"" fill = ""none"" />
    
    </svg>
    </div>
        ",,,,,,,,,,,,,,,,,,,,,,,,,,,,,,22
56,html-keyboard-response,56,230803,0.0-56.0,,,,"
    <div style="" display: block;  position: relative;"">
    <svg width=1366 height=768>
    
    <circle cx=620 cy=384 r=16.007229962739274 stroke=""black"" stroke-width=""1"" fill=""black"" />
    <circle cx=803.17 cy=384 r=22.86747137534182 stroke=""black"" stroke-width=""1.5"" fill=""none"" />
    <circle cx=899.2753641393099 cy=384 r=22.86747137534182 stroke=""black"" stroke-width=""1.5"" fill=""none"" />
    <circle cx=803.17 cy=480.10536413930987 r=22.86747137534182 stroke=""black"" stroke-width=""1.5"" fill=""none"" />
    <circle cx=707.06463586069 cy=384 r=22.86747137534182 stroke=""black"" stroke-width=""1.5"" fill=""none"" />
    <circle cx=803.17 cy=287.89463586069013 r=22.86747137534182 stroke=""black"" stroke-width=""1.5"" fill=""none"" />
    <polygon points = ""803.17,384 809.6025053605267,361.13252862465816 796.7374946394732,361.13252862465816"" stroke=""white"" stroke-width=""3"" fill = ""white"" />
    
    </svg>
    </div>
        ",,,,,,,,,,,,stimulus,,,,,,,,,,,,,,,,,,22
57,html-keyboard-response,57,231422,0.0-57.0,617.2999999523163,arrowup,,"
    <div style="" display: block;  position: relative;"">
    
    <svg width=1366 height=768>
    <circle cx=620 cy=384 r=16.007229962739274 stroke=""black"" stroke-width=""1"" fill=""black"" />
    <circle cx=899.2753641393099 cy=384 r=22.86747137534182 stroke=""none"" stroke-width=""1.5"" fill=""none"" />
    <circle cx=803.17 cy=480.10536413930987 r=22.86747137534182 stroke=""none"" stroke-width=""1.5"" fill=""none"" />
    <circle cx=707.06463586069 cy=384 r=22.86747137534182 stroke=""none"" stroke-width=""1.5"" fill=""none"" />
    <circle cx=803.17 cy=287.89463586069013 r=22.86747137534182 stroke=""none"" stroke-width=""1.5"" fill=""none"" />
    <polygon points = ""803.17,384 809.6025053605267,361.13252862465816 796.7374946394732,361.13252862465816"" stroke=""none"" stroke-width=""3"" fill = ""none"" />
    
    </svg>
    </div>
        ",,,,,,,,,,,,get_response,True,lLwnYe5CakH1TgfS,,,False,True,False,183.17,4.0,601.49,96.10536413930988,2.1,1.0,0.0,,,,22
58,html-keyboard-response,58,231929,0.0-58.0,,,,"
    <div style="" display: block;  position: relative;"">
    
    <svg width=1366 height=768>
    <circle cx=620 cy=384 r=16.007229962739274 stroke=""black"" stroke-width=""1"" fill=""black"" />
    <circle cx=899.2753641393099 cy=384 r=22.86747137534182 stroke=""none"" stroke-width=""1.5"" fill=""none"" />
    <circle cx=803.17 cy=480.10536413930987 r=22.86747137534182 stroke=""none"" stroke-width=""1.5"" fill=""none"" />
    <circle cx=707.06463586069 cy=384 r=22.86747137534182 stroke=""none"" stroke-width=""1.5"" fill=""none"" />
    <circle cx=803.17 cy=287.89463586069013 r=22.86747137534182 stroke=""none"" stroke-width=""1.5"" fill=""none"" />
    <polygon points = ""803.17,384 809.6025053605267,361.13252862465816 796.7374946394732,361.13252862465816"" stroke=""none"" stroke-width=""3"" fill = ""none"" />
    
    </svg>
    </div>
        ",,,,,,,,,,,,,,,,,,,,,,,,,,,,,,22
59,html-keyboard-response,59,232086,0.0-59.0,,,,"
    <div style="" display: block;  position: relative;"">
    <svg width=1366 height=768>
    
    <circle cx=620 cy=384 r=16.007229962739274 stroke=""black"" stroke-width=""1"" fill=""black"" />
    <circle cx=803.17 cy=384 r=22.86747137534182 stroke=""black"" stroke-width=""1.5"" fill=""none"" />
    <circle cx=890.5385128539181 cy=384 r=22.86747137534182 stroke=""black"" stroke-width=""1.5"" fill=""none"" />
    <circle cx=803.17 cy=471.36851285391805 r=22.86747137534182 stroke=""black"" stroke-width=""1.5"" fill=""none"" />
    <circle cx=715.8014871460819 cy=384 r=22.86747137534182 stroke=""black"" stroke-width=""1.5"" fill=""none"" />
    <circle cx=803.17 cy=296.63148714608195 r=22.86747137534182 stroke=""black"" stroke-width=""1.5"" fill=""none"" />
    <polygon points = ""803.17,384 809.6025053605267,361.13252862465816 796.7374946394732,361.13252862465816"" stroke=""white"" stroke-width=""3"" fill = ""white"" />
    
    </svg>
    </div>
        ",,,,,,,,,,,,stimulus,,,,,,,,,,,,,,,,,,22
60,html-keyboard-response,60,232692,0.0-60.0,604.2000000476837,arrowup,,"
    <div style="" display: block;  position: relative;"">
    
    <svg width=1366 height=768>
    <circle cx=620 cy=384 r=16.007229962739274 stroke=""black"" stroke-width=""1"" fill=""black"" />
    <circle cx=890.5385128539181 cy=384 r=22.86747137534182 stroke=""none"" stroke-width=""1.5"" fill=""none"" />
    <circle cx=803.17 cy=471.36851285391805 r=22.86747137534182 stroke=""none"" stroke-width=""1.5"" fill=""none"" />
    <circle cx=715.8014871460819 cy=384 r=22.86747137534182 stroke=""none"" stroke-width=""1.5"" fill=""none"" />
    <circle cx=803.17 cy=296.63148714608195 r=22.86747137534182 stroke=""none"" stroke-width=""1.5"" fill=""none"" />
    <polygon points = ""803.17,384 809.6025053605267,361.13252862465816 796.7374946394732,361.13252862465816"" stroke=""none"" stroke-width=""3"" fill = ""none"" />
    
    </svg>
    </div>
        ",,,,,,,,,,,,get_response,True,lLwnYe5CakH1TgfS,,,False,True,False,183.17,4.0,601.49,87.36851285391806,1.91,1.0,0.0,,,,22
61,html-keyboard-response,61,233199,0.0-61.0,,,,"
    <div style="" display: block;  position: relative;"">
    
    <svg width=1366 height=768>
    <circle cx=620 cy=384 r=16.007229962739274 stroke=""black"" stroke-width=""1"" fill=""black"" />
    <circle cx=890.5385128539181 cy=384 r=22.86747137534182 stroke=""none"" stroke-width=""1.5"" fill=""none"" />
    <circle cx=803.17 cy=471.36851285391805 r=22.86747137534182 stroke=""none"" stroke-width=""1.5"" fill=""none"" />
    <circle cx=715.8014871460819 cy=384 r=22.86747137534182 stroke=""none"" stroke-width=""1.5"" fill=""none"" />
    <circle cx=803.17 cy=296.63148714608195 r=22.86747137534182 stroke=""none"" stroke-width=""1.5"" fill=""none"" />
    <polygon points = ""803.17,384 809.6025053605267,361.13252862465816 796.7374946394732,361.13252862465816"" stroke=""none"" stroke-width=""3"" fill = ""none"" />
    
    </svg>
    </div>
        ",,,,,,,,,,,,,,,,,,,,,,,,,,,,,,22
62,html-keyboard-response,62,233355,0.0-62.0,,,,"
    <div style="" display: block;  position: relative;"">
    <svg width=1366 height=768>
    
    <circle cx=620 cy=384 r=16.007229962739274 stroke=""black"" stroke-width=""1"" fill=""black"" />
    <circle cx=803.17 cy=384 r=22.86747137534182 stroke=""black"" stroke-width=""1.5"" fill=""none"" />
    <circle cx=882.5959207762891 cy=384 r=22.86747137534182 stroke=""black"" stroke-width=""1.5"" fill=""none"" />
    <circle cx=803.17 cy=463.42592077628916 r=22.86747137534182 stroke=""black"" stroke-width=""1.5"" fill=""none"" />
    <circle cx=723.7440792237109 cy=384 r=22.86747137534182 stroke=""black"" stroke-width=""1.5"" fill=""none"" />
    <circle cx=803.17 cy=304.57407922371084 r=22.86747137534182 stroke=""black"" stroke-width=""1.5"" fill=""none"" />
    <polygon points = ""803.17,384 809.6025053605267,361.13252862465816 796.7374946394732,361.13252862465816"" stroke=""white"" stroke-width=""3"" fill = ""white"" />
    
    </svg>
    </div>
        ",,,,,,,,,,,,stimulus,,,,,,,,,,,,,,,,,,22
63,html-keyboard-response,63,233899,0.0-63.0,541.6999999284744,arrowup,,"
    <div style="" display: block;  position: relative;"">
    
    <svg width=1366 height=768>
    <circle cx=620 cy=384 r=16.007229962739274 stroke=""black"" stroke-width=""1"" fill=""black"" />
    <circle cx=882.5959207762891 cy=384 r=22.86747137534182 stroke=""none"" stroke-width=""1.5"" fill=""none"" />
    <circle cx=803.17 cy=463.42592077628916 r=22.86747137534182 stroke=""none"" stroke-width=""1.5"" fill=""none"" />
    <circle cx=723.7440792237109 cy=384 r=22.86747137534182 stroke=""none"" stroke-width=""1.5"" fill=""none"" />
    <circle cx=803.17 cy=304.57407922371084 r=22.86747137534182 stroke=""none"" stroke-width=""1.5"" fill=""none"" />
    <polygon points = ""803.17,384 809.6025053605267,361.13252862465816 796.7374946394732,361.13252862465816"" stroke=""none"" stroke-width=""3"" fill = ""none"" />
    
    </svg>
    </div>
        ",,,,,,,,,,,,get_response,True,lLwnYe5CakH1TgfS,,,False,True,False,183.17,4.0,601.49,79.42592077628915,1.73,1.0,0.0,,,,22
64,html-keyboard-response,64,234410,0.0-64.0,,,,"
    <div style="" display: block;  position: relative;"">
    
    <svg width=1366 height=768>
    <circle cx=620 cy=384 r=16.007229962739274 stroke=""black"" stroke-width=""1"" fill=""black"" />
    <circle cx=882.5959207762891 cy=384 r=22.86747137534182 stroke=""none"" stroke-width=""1.5"" fill=""none"" />
    <circle cx=803.17 cy=463.42592077628916 r=22.86747137534182 stroke=""none"" stroke-width=""1.5"" fill=""none"" />
    <circle cx=723.7440792237109 cy=384 r=22.86747137534182 stroke=""none"" stroke-width=""1.5"" fill=""none"" />
    <circle cx=803.17 cy=304.57407922371084 r=22.86747137534182 stroke=""none"" stroke-width=""1.5"" fill=""none"" />
    <polygon points = ""803.17,384 809.6025053605267,361.13252862465816 796.7374946394732,361.13252862465816"" stroke=""none"" stroke-width=""3"" fill = ""none"" />
    
    </svg>
    </div>
        ",,,,,,,,,,,,,,,,,,,,,,,,,,,,,,22
65,html-keyboard-response,65,234566,0.0-65.0,,,,"
    <div style="" display: block;  position: relative;"">
    <svg width=1366 height=768>
    
    <circle cx=620 cy=384 r=16.007229962739274 stroke=""black"" stroke-width=""1"" fill=""black"" />
    <circle cx=803.17 cy=384 r=22.86747137534182 stroke=""black"" stroke-width=""1.5"" fill=""none"" />
    <circle cx=875.3753825238991 cy=384 r=22.86747137534182 stroke=""black"" stroke-width=""1.5"" fill=""none"" />
    <circle cx=803.17 cy=456.20538252389923 r=22.86747137534182 stroke=""black"" stroke-width=""1.5"" fill=""none"" />
    <circle cx=730.9646174761008 cy=384 r=22.86747137534182 stroke=""black"" stroke-width=""1.5"" fill=""none"" />
    <circle cx=803.17 cy=311.79461747610077 r=22.86747137534182 stroke=""black"" stroke-width=""1.5"" fill=""none"" />
    <polygon points = ""803.17,384 809.6025053605267,406.86747137534184 796.7374946394732,406.86747137534184"" stroke=""white"" stroke-width=""3"" fill = ""white"" />
    
    </svg>
    </div>
        ",,,,,,,,,,,,stimulus,,,,,,,,,,,,,,,,,,22
66,html-keyboard-response,66,235177,0.0-66.0,608.7999999523163,arrowdown,,"
    <div style="" display: block;  position: relative;"">
    
    <svg width=1366 height=768>
    <circle cx=620 cy=384 r=16.007229962739274 stroke=""black"" stroke-width=""1"" fill=""black"" />
    <circle cx=875.3753825238991 cy=384 r=22.86747137534182 stroke=""none"" stroke-width=""1.5"" fill=""none"" />
    <circle cx=803.17 cy=456.20538252389923 r=22.86747137534182 stroke=""none"" stroke-width=""1.5"" fill=""none"" />
    <circle cx=730.9646174761008 cy=384 r=22.86747137534182 stroke=""none"" stroke-width=""1.5"" fill=""none"" />
    <circle cx=803.17 cy=311.79461747610077 r=22.86747137534182 stroke=""none"" stroke-width=""1.5"" fill=""none"" />
    <polygon points = ""803.17,384 809.6025053605267,406.86747137534184 796.7374946394732,406.86747137534184"" stroke=""none"" stroke-width=""3"" fill = ""none"" />
    
    </svg>
    </div>
        ",,,,,,,,,,,,get_response,True,lLwnYe5CakH1TgfS,,,False,False,False,183.17,4.0,601.49,72.20538252389922,1.57,1.0,0.0,,,,22
67,html-keyboard-response,67,235679,0.0-67.0,,,,"
    <div style="" display: block;  position: relative;"">
    
    <svg width=1366 height=768>
    <circle cx=620 cy=384 r=16.007229962739274 stroke=""black"" stroke-width=""1"" fill=""black"" />
    <circle cx=875.3753825238991 cy=384 r=22.86747137534182 stroke=""none"" stroke-width=""1.5"" fill=""none"" />
    <circle cx=803.17 cy=456.20538252389923 r=22.86747137534182 stroke=""none"" stroke-width=""1.5"" fill=""none"" />
    <circle cx=730.9646174761008 cy=384 r=22.86747137534182 stroke=""none"" stroke-width=""1.5"" fill=""none"" />
    <circle cx=803.17 cy=311.79461747610077 r=22.86747137534182 stroke=""none"" stroke-width=""1.5"" fill=""none"" />
    <polygon points = ""803.17,384 809.6025053605267,406.86747137534184 796.7374946394732,406.86747137534184"" stroke=""none"" stroke-width=""3"" fill = ""none"" />
    
    </svg>
    </div>
        ",,,,,,,,,,,,,,,,,,,,,,,,,,,,,,22
68,html-keyboard-response,68,235836,0.0-68.0,,,,"
    <div style="" display: block;  position: relative;"">
    <svg width=1366 height=768>
    
    <circle cx=620 cy=384 r=16.007229962739274 stroke=""black"" stroke-width=""1"" fill=""black"" />
    <circle cx=803.17 cy=384 r=22.86747137534182 stroke=""black"" stroke-width=""1.5"" fill=""none"" />
    <circle cx=868.8112568399083 cy=384 r=22.86747137534182 stroke=""black"" stroke-width=""1.5"" fill=""none"" />
    <circle cx=803.17 cy=449.64125683990835 r=22.86747137534182 stroke=""black"" stroke-width=""1.5"" fill=""none"" />
    <circle cx=737.5287431600916 cy=384 r=22.86747137534182 stroke=""black"" stroke-width=""1.5"" fill=""none"" />
    <circle cx=803.17 cy=318.35874316009165 r=22.86747137534182 stroke=""black"" stroke-width=""1.5"" fill=""none"" />
    <polygon points = ""803.17,384 809.6025053605267,361.13252862465816 796.7374946394732,361.13252862465816"" stroke=""white"" stroke-width=""3"" fill = ""white"" />
    
    </svg>
    </div>
        ",,,,,,,,,,,,stimulus,,,,,,,,,,,,,,,,,,22
69,html-keyboard-response,69,236331,0.0-69.0,492.8000000715256,arrowdown,,"
    <div style="" display: block;  position: relative;"">
    
    <svg width=1366 height=768>
    <circle cx=620 cy=384 r=16.007229962739274 stroke=""black"" stroke-width=""1"" fill=""black"" />
    <circle cx=868.8112568399083 cy=384 r=22.86747137534182 stroke=""none"" stroke-width=""1.5"" fill=""none"" />
    <circle cx=803.17 cy=449.64125683990835 r=22.86747137534182 stroke=""none"" stroke-width=""1.5"" fill=""none"" />
    <circle cx=737.5287431600916 cy=384 r=22.86747137534182 stroke=""none"" stroke-width=""1.5"" fill=""none"" />
    <circle cx=803.17 cy=318.35874316009165 r=22.86747137534182 stroke=""none"" stroke-width=""1.5"" fill=""none"" />
    <polygon points = ""803.17,384 809.6025053605267,361.13252862465816 796.7374946394732,361.13252862465816"" stroke=""none"" stroke-width=""3"" fill = ""none"" />
    
    </svg>
    </div>
        ",,,,,,,,,,,,get_response,False,lLwnYe5CakH1TgfS,,,False,True,False,183.17,4.0,601.49,65.64125683990838,1.43,1.0,0.0,,,,22
70,html-keyboard-response,70,236843,0.0-70.0,,,,"
    <div style="" display: block;  position: relative;"">
    
    <svg width=1366 height=768>
    <circle cx=620 cy=384 r=16.007229962739274 stroke=""black"" stroke-width=""1"" fill=""black"" />
    <circle cx=868.8112568399083 cy=384 r=22.86747137534182 stroke=""none"" stroke-width=""1.5"" fill=""none"" />
    <circle cx=803.17 cy=449.64125683990835 r=22.86747137534182 stroke=""none"" stroke-width=""1.5"" fill=""none"" />
    <circle cx=737.5287431600916 cy=384 r=22.86747137534182 stroke=""none"" stroke-width=""1.5"" fill=""none"" />
    <circle cx=803.17 cy=318.35874316009165 r=22.86747137534182 stroke=""none"" stroke-width=""1.5"" fill=""none"" />
    <polygon points = ""803.17,384 809.6025053605267,361.13252862465816 796.7374946394732,361.13252862465816"" stroke=""none"" stroke-width=""3"" fill = ""none"" />
    
    </svg>
    </div>
        ",,,,,,,,,,,,,,,,,,,,,,,,,,,,,,22
71,html-keyboard-response,71,236997,0.0-71.0,,,,"
    <div style="" display: block;  position: relative;"">
    <svg width=1366 height=768>
    
    <circle cx=620 cy=384 r=16.007229962739274 stroke=""black"" stroke-width=""1"" fill=""black"" />
    <circle cx=803.17 cy=384 r=22.86747137534182 stroke=""black"" stroke-width=""1.5"" fill=""none"" />
    <circle cx=888.5036338918809 cy=384 r=22.86747137534182 stroke=""black"" stroke-width=""1.5"" fill=""none"" />
    <circle cx=803.17 cy=469.3336338918809 r=22.86747137534182 stroke=""black"" stroke-width=""1.5"" fill=""none"" />
    <circle cx=717.836366108119 cy=384 r=22.86747137534182 stroke=""black"" stroke-width=""1.5"" fill=""none"" />
    <circle cx=803.17 cy=298.6663661081191 r=22.86747137534182 stroke=""black"" stroke-width=""1.5"" fill=""none"" />
    <polygon points = ""803.17,384 809.6025053605267,361.13252862465816 796.7374946394732,361.13252862465816"" stroke=""white"" stroke-width=""3"" fill = ""white"" />
    
    </svg>
    </div>
        ",,,,,,,,,,,,stimulus,,,,,,,,,,,,,,,,,,22
72,html-keyboard-response,72,237453,0.0-72.0,453.3000000715256,arrowup,,"
    <div style="" display: block;  position: relative;"">
    
    <svg width=1366 height=768>
    <circle cx=620 cy=384 r=16.007229962739274 stroke=""black"" stroke-width=""1"" fill=""black"" />
    <circle cx=888.5036338918809 cy=384 r=22.86747137534182 stroke=""none"" stroke-width=""1.5"" fill=""none"" />
    <circle cx=803.17 cy=469.3336338918809 r=22.86747137534182 stroke=""none"" stroke-width=""1.5"" fill=""none"" />
    <circle cx=717.836366108119 cy=384 r=22.86747137534182 stroke=""none"" stroke-width=""1.5"" fill=""none"" />
    <circle cx=803.17 cy=298.6663661081191 r=22.86747137534182 stroke=""none"" stroke-width=""1.5"" fill=""none"" />
    <polygon points = ""803.17,384 809.6025053605267,361.13252862465816 796.7374946394732,361.13252862465816"" stroke=""none"" stroke-width=""3"" fill = ""none"" />
    
    </svg>
    </div>
        ",,,,,,,,,,,,get_response,True,lLwnYe5CakH1TgfS,,,False,True,False,183.17,4.0,601.49,85.3336338918809,1.86,1.0,0.0,,,,22
73,html-keyboard-response,73,237960,0.0-73.0,,,,"
    <div style="" display: block;  position: relative;"">
    
    <svg width=1366 height=768>
    <circle cx=620 cy=384 r=16.007229962739274 stroke=""black"" stroke-width=""1"" fill=""black"" />
    <circle cx=888.5036338918809 cy=384 r=22.86747137534182 stroke=""none"" stroke-width=""1.5"" fill=""none"" />
    <circle cx=803.17 cy=469.3336338918809 r=22.86747137534182 stroke=""none"" stroke-width=""1.5"" fill=""none"" />
    <circle cx=717.836366108119 cy=384 r=22.86747137534182 stroke=""none"" stroke-width=""1.5"" fill=""none"" />
    <circle cx=803.17 cy=298.6663661081191 r=22.86747137534182 stroke=""none"" stroke-width=""1.5"" fill=""none"" />
    <polygon points = ""803.17,384 809.6025053605267,361.13252862465816 796.7374946394732,361.13252862465816"" stroke=""none"" stroke-width=""3"" fill = ""none"" />
    
    </svg>
    </div>
        ",,,,,,,,,,,,,,,,,,,,,,,,,,,,,,22
74,html-keyboard-response,74,238114,0.0-74.0,,,,"
    <div style="" display: block;  position: relative;"">
    <svg width=1366 height=768>
    
    <circle cx=620 cy=384 r=16.007229962739274 stroke=""black"" stroke-width=""1"" fill=""black"" />
    <circle cx=436.83000000000004 cy=384 r=22.86747137534182 stroke=""black"" stroke-width=""1.5"" fill=""none"" />
    <circle cx=522.163633891881 cy=384 r=22.86747137534182 stroke=""black"" stroke-width=""1.5"" fill=""none"" />
    <circle cx=436.83000000000004 cy=469.3336338918809 r=22.86747137534182 stroke=""black"" stroke-width=""1.5"" fill=""none"" />
    <circle cx=351.49636610811916 cy=384 r=22.86747137534182 stroke=""black"" stroke-width=""1.5"" fill=""none"" />
    <circle cx=436.83000000000004 cy=298.6663661081191 r=22.86747137534182 stroke=""black"" stroke-width=""1.5"" fill=""none"" />
    <polygon points = ""436.83000000000004,384 443.2625053605268,361.13252862465816 430.3974946394733,361.13252862465816"" stroke=""white"" stroke-width=""3"" fill = ""white"" />
    
    </svg>
    </div>
        ",,,,,,,,,,,,stimulus,,,,,,,,,,,,,,,,,,22
75,html-keyboard-response,75,238945,0.0-75.0,827.2999999523163,arrowup,,"
    <div style="" display: block;  position: relative;"">
    
    <svg width=1366 height=768>
    <circle cx=620 cy=384 r=16.007229962739274 stroke=""black"" stroke-width=""1"" fill=""black"" />
    <circle cx=522.163633891881 cy=384 r=22.86747137534182 stroke=""none"" stroke-width=""1.5"" fill=""none"" />
    <circle cx=436.83000000000004 cy=469.3336338918809 r=22.86747137534182 stroke=""none"" stroke-width=""1.5"" fill=""none"" />
    <circle cx=351.49636610811916 cy=384 r=22.86747137534182 stroke=""none"" stroke-width=""1.5"" fill=""none"" />
    <circle cx=436.83000000000004 cy=298.6663661081191 r=22.86747137534182 stroke=""none"" stroke-width=""1.5"" fill=""none"" />
    <polygon points = ""436.83000000000004,384 443.2625053605268,361.13252862465816 430.3974946394733,361.13252862465816"" stroke=""none"" stroke-width=""3"" fill = ""none"" />
    
    </svg>
    </div>
        ",,,,,,,,,,,,get_response,True,lLwnYe5CakH1TgfS,,,True,True,False,183.17,4.0,601.49,85.3336338918809,1.86,1.0,0.0,,,,22
76,html-keyboard-response,76,239448,0.0-76.0,,,,"
    <div style="" display: block;  position: relative;"">
    
    <svg width=1366 height=768>
    <circle cx=620 cy=384 r=16.007229962739274 stroke=""black"" stroke-width=""1"" fill=""black"" />
    <circle cx=522.163633891881 cy=384 r=22.86747137534182 stroke=""none"" stroke-width=""1.5"" fill=""none"" />
    <circle cx=436.83000000000004 cy=469.3336338918809 r=22.86747137534182 stroke=""none"" stroke-width=""1.5"" fill=""none"" />
    <circle cx=351.49636610811916 cy=384 r=22.86747137534182 stroke=""none"" stroke-width=""1.5"" fill=""none"" />
    <circle cx=436.83000000000004 cy=298.6663661081191 r=22.86747137534182 stroke=""none"" stroke-width=""1.5"" fill=""none"" />
    <polygon points = ""436.83000000000004,384 443.2625053605268,361.13252862465816 430.3974946394733,361.13252862465816"" stroke=""none"" stroke-width=""3"" fill = ""none"" />
    
    </svg>
    </div>
        ",,,,,,,,,,,,,,,,,,,,,,,,,,,,,,22
77,html-keyboard-response,77,239605,0.0-77.0,,,,"
    <div style="" display: block;  position: relative;"">
    <svg width=1366 height=768>
    
    <circle cx=620 cy=384 r=16.007229962739274 stroke=""black"" stroke-width=""1"" fill=""black"" />
    <circle cx=436.83000000000004 cy=384 r=22.86747137534182 stroke=""black"" stroke-width=""1.5"" fill=""none"" />
    <circle cx=522.163633891881 cy=384 r=22.86747137534182 stroke=""black"" stroke-width=""1.5"" fill=""none"" />
    <circle cx=436.83000000000004 cy=469.3336338918809 r=22.86747137534182 stroke=""black"" stroke-width=""1.5"" fill=""none"" />
    <circle cx=351.49636610811916 cy=384 r=22.86747137534182 stroke=""black"" stroke-width=""1.5"" fill=""none"" />
    <circle cx=436.83000000000004 cy=298.6663661081191 r=22.86747137534182 stroke=""black"" stroke-width=""1.5"" fill=""none"" />
    <polygon points = ""436.83000000000004,384 443.2625053605268,406.86747137534184 430.3974946394733,406.86747137534184"" stroke=""white"" stroke-width=""3"" fill = ""white"" />
    
    </svg>
    </div>
        ",,,,,,,,,,,,stimulus,,,,,,,,,,,,,,,,,,22
78,html-keyboard-response,78,239951,0.0-78.0,343.7000000476837,arrowdown,,"
    <div style="" display: block;  position: relative;"">
    
    <svg width=1366 height=768>
    <circle cx=620 cy=384 r=16.007229962739274 stroke=""black"" stroke-width=""1"" fill=""black"" />
    <circle cx=522.163633891881 cy=384 r=22.86747137534182 stroke=""none"" stroke-width=""1.5"" fill=""none"" />
    <circle cx=436.83000000000004 cy=469.3336338918809 r=22.86747137534182 stroke=""none"" stroke-width=""1.5"" fill=""none"" />
    <circle cx=351.49636610811916 cy=384 r=22.86747137534182 stroke=""none"" stroke-width=""1.5"" fill=""none"" />
    <circle cx=436.83000000000004 cy=298.6663661081191 r=22.86747137534182 stroke=""none"" stroke-width=""1.5"" fill=""none"" />
    <polygon points = ""436.83000000000004,384 443.2625053605268,406.86747137534184 430.3974946394733,406.86747137534184"" stroke=""none"" stroke-width=""3"" fill = ""none"" />
    
    </svg>
    </div>
        ",,,,,,,,,,,,get_response,True,lLwnYe5CakH1TgfS,,,True,False,False,183.17,4.0,601.49,85.3336338918809,1.86,1.0,0.0,,,,22
79,html-keyboard-response,79,240454,0.0-79.0,,,,"
    <div style="" display: block;  position: relative;"">
    
    <svg width=1366 height=768>
    <circle cx=620 cy=384 r=16.007229962739274 stroke=""black"" stroke-width=""1"" fill=""black"" />
    <circle cx=522.163633891881 cy=384 r=22.86747137534182 stroke=""none"" stroke-width=""1.5"" fill=""none"" />
    <circle cx=436.83000000000004 cy=469.3336338918809 r=22.86747137534182 stroke=""none"" stroke-width=""1.5"" fill=""none"" />
    <circle cx=351.49636610811916 cy=384 r=22.86747137534182 stroke=""none"" stroke-width=""1.5"" fill=""none"" />
    <circle cx=436.83000000000004 cy=298.6663661081191 r=22.86747137534182 stroke=""none"" stroke-width=""1.5"" fill=""none"" />
    <polygon points = ""436.83000000000004,384 443.2625053605268,406.86747137534184 430.3974946394733,406.86747137534184"" stroke=""none"" stroke-width=""3"" fill = ""none"" />
    
    </svg>
    </div>
        ",,,,,,,,,,,,,,,,,,,,,,,,,,,,,,22
80,html-keyboard-response,80,240609,0.0-80.0,,,,"
    <div style="" display: block;  position: relative;"">
    <svg width=1366 height=768>
    
    <circle cx=620 cy=384 r=16.007229962739274 stroke=""black"" stroke-width=""1"" fill=""black"" />
    <circle cx=803.17 cy=384 r=22.86747137534182 stroke=""black"" stroke-width=""1.5"" fill=""none"" />
    <circle cx=880.7460308108008 cy=384 r=22.86747137534182 stroke=""black"" stroke-width=""1.5"" fill=""none"" />
    <circle cx=803.17 cy=461.57603081080083 r=22.86747137534182 stroke=""black"" stroke-width=""1.5"" fill=""none"" />
    <circle cx=725.5939691891991 cy=384 r=22.86747137534182 stroke=""black"" stroke-width=""1.5"" fill=""none"" />
    <circle cx=803.17 cy=306.42396918919917 r=22.86747137534182 stroke=""black"" stroke-width=""1.5"" fill=""none"" />
    <polygon points = ""803.17,384 809.6025053605267,361.13252862465816 796.7374946394732,361.13252862465816"" stroke=""white"" stroke-width=""3"" fill = ""white"" />
    
    </svg>
    </div>
        ",,,,,,,,,,,,stimulus,,,,,,,,,,,,,,,,,,22
81,html-keyboard-response,81,240976,0.0-81.0,364.3000000715256,arrowup,,"
    <div style="" display: block;  position: relative;"">
    
    <svg width=1366 height=768>
    <circle cx=620 cy=384 r=16.007229962739274 stroke=""black"" stroke-width=""1"" fill=""black"" />
    <circle cx=880.7460308108008 cy=384 r=22.86747137534182 stroke=""none"" stroke-width=""1.5"" fill=""none"" />
    <circle cx=803.17 cy=461.57603081080083 r=22.86747137534182 stroke=""none"" stroke-width=""1.5"" fill=""none"" />
    <circle cx=725.5939691891991 cy=384 r=22.86747137534182 stroke=""none"" stroke-width=""1.5"" fill=""none"" />
    <circle cx=803.17 cy=306.42396918919917 r=22.86747137534182 stroke=""none"" stroke-width=""1.5"" fill=""none"" />
    <polygon points = ""803.17,384 809.6025053605267,361.13252862465816 796.7374946394732,361.13252862465816"" stroke=""none"" stroke-width=""3"" fill = ""none"" />
    
    </svg>
    </div>
        ",,,,,,,,,,,,get_response,True,lLwnYe5CakH1TgfS,,,False,True,False,183.17,4.0,601.49,77.5760308108008,1.69,1.0,0.0,,,,22
82,html-keyboard-response,82,241490,0.0-82.0,,,,"
    <div style="" display: block;  position: relative;"">
    
    <svg width=1366 height=768>
    <circle cx=620 cy=384 r=16.007229962739274 stroke=""black"" stroke-width=""1"" fill=""black"" />
    <circle cx=880.7460308108008 cy=384 r=22.86747137534182 stroke=""none"" stroke-width=""1.5"" fill=""none"" />
    <circle cx=803.17 cy=461.57603081080083 r=22.86747137534182 stroke=""none"" stroke-width=""1.5"" fill=""none"" />
    <circle cx=725.5939691891991 cy=384 r=22.86747137534182 stroke=""none"" stroke-width=""1.5"" fill=""none"" />
    <circle cx=803.17 cy=306.42396918919917 r=22.86747137534182 stroke=""none"" stroke-width=""1.5"" fill=""none"" />
    <polygon points = ""803.17,384 809.6025053605267,361.13252862465816 796.7374946394732,361.13252862465816"" stroke=""none"" stroke-width=""3"" fill = ""none"" />
    
    </svg>
    </div>
        ",,,,,,,,,,,,,,,,,,,,,,,,,,,,,,22
83,html-keyboard-response,83,241647,0.0-83.0,,,,"
    <div style="" display: block;  position: relative;"">
    <svg width=1366 height=768>
    
    <circle cx=620 cy=384 r=16.007229962739274 stroke=""black"" stroke-width=""1"" fill=""black"" />
    <circle cx=803.17 cy=384 r=22.86747137534182 stroke=""black"" stroke-width=""1.5"" fill=""none"" />
    <circle cx=873.6936643734552 cy=384 r=22.86747137534182 stroke=""black"" stroke-width=""1.5"" fill=""none"" />
    <circle cx=803.17 cy=454.5236643734553 r=22.86747137534182 stroke=""black"" stroke-width=""1.5"" fill=""none"" />
    <circle cx=732.6463356265447 cy=384 r=22.86747137534182 stroke=""black"" stroke-width=""1.5"" fill=""none"" />
    <circle cx=803.17 cy=313.4763356265447 r=22.86747137534182 stroke=""black"" stroke-width=""1.5"" fill=""none"" />
    <polygon points = ""803.17,384 809.6025053605267,361.13252862465816 796.7374946394732,361.13252862465816"" stroke=""white"" stroke-width=""3"" fill = ""white"" />
    
    </svg>
    </div>
        ",,,,,,,,,,,,stimulus,,,,,,,,,,,,,,,,,,22
84,html-keyboard-response,84,241974,0.0-84.0,324.5,arrowdown,,"
    <div style="" display: block;  position: relative;"">
    
    <svg width=1366 height=768>
    <circle cx=620 cy=384 r=16.007229962739274 stroke=""black"" stroke-width=""1"" fill=""black"" />
    <circle cx=873.6936643734552 cy=384 r=22.86747137534182 stroke=""none"" stroke-width=""1.5"" fill=""none"" />
    <circle cx=803.17 cy=454.5236643734553 r=22.86747137534182 stroke=""none"" stroke-width=""1.5"" fill=""none"" />
    <circle cx=732.6463356265447 cy=384 r=22.86747137534182 stroke=""none"" stroke-width=""1.5"" fill=""none"" />
    <circle cx=803.17 cy=313.4763356265447 r=22.86747137534182 stroke=""none"" stroke-width=""1.5"" fill=""none"" />
    <polygon points = ""803.17,384 809.6025053605267,361.13252862465816 796.7374946394732,361.13252862465816"" stroke=""none"" stroke-width=""3"" fill = ""none"" />
    
    </svg>
    </div>
        ",,,,,,,,,,,,get_response,False,lLwnYe5CakH1TgfS,,,False,True,False,183.17,4.0,601.49,70.52366437345528,1.54,1.0,0.0,,,,22
85,html-keyboard-response,85,242482,0.0-85.0,,,,"
    <div style="" display: block;  position: relative;"">
    
    <svg width=1366 height=768>
    <circle cx=620 cy=384 r=16.007229962739274 stroke=""black"" stroke-width=""1"" fill=""black"" />
    <circle cx=873.6936643734552 cy=384 r=22.86747137534182 stroke=""none"" stroke-width=""1.5"" fill=""none"" />
    <circle cx=803.17 cy=454.5236643734553 r=22.86747137534182 stroke=""none"" stroke-width=""1.5"" fill=""none"" />
    <circle cx=732.6463356265447 cy=384 r=22.86747137534182 stroke=""none"" stroke-width=""1.5"" fill=""none"" />
    <circle cx=803.17 cy=313.4763356265447 r=22.86747137534182 stroke=""none"" stroke-width=""1.5"" fill=""none"" />
    <polygon points = ""803.17,384 809.6025053605267,361.13252862465816 796.7374946394732,361.13252862465816"" stroke=""none"" stroke-width=""3"" fill = ""none"" />
    
    </svg>
    </div>
        ",,,,,,,,,,,,,,,,,,,,,,,,,,,,,,22
86,html-keyboard-response,86,242637,0.0-86.0,,,,"
    <div style="" display: block;  position: relative;"">
    <svg width=1366 height=768>
    
    <circle cx=620 cy=384 r=16.007229962739274 stroke=""black"" stroke-width=""1"" fill=""black"" />
    <circle cx=803.17 cy=384 r=22.86747137534182 stroke=""black"" stroke-width=""1.5"" fill=""none"" />
    <circle cx=894.8507636854919 cy=384 r=22.86747137534182 stroke=""black"" stroke-width=""1.5"" fill=""none"" />
    <circle cx=803.17 cy=475.68076368549185 r=22.86747137534182 stroke=""black"" stroke-width=""1.5"" fill=""none"" />
    <circle cx=711.489236314508 cy=384 r=22.86747137534182 stroke=""black"" stroke-width=""1.5"" fill=""none"" />
    <circle cx=803.17 cy=292.31923631450815 r=22.86747137534182 stroke=""black"" stroke-width=""1.5"" fill=""none"" />
    <polygon points = ""803.17,384 809.6025053605267,406.86747137534184 796.7374946394732,406.86747137534184"" stroke=""white"" stroke-width=""3"" fill = ""white"" />
    
    </svg>
    </div>
        ",,,,,,,,,,,,stimulus,,,,,,,,,,,,,,,,,,22
87,html-keyboard-response,87,243128,0.0-87.0,489.59999990463257,arrowdown,,"
    <div style="" display: block;  position: relative;"">
    
    <svg width=1366 height=768>
    <circle cx=620 cy=384 r=16.007229962739274 stroke=""black"" stroke-width=""1"" fill=""black"" />
    <circle cx=894.8507636854919 cy=384 r=22.86747137534182 stroke=""none"" stroke-width=""1.5"" fill=""none"" />
    <circle cx=803.17 cy=475.68076368549185 r=22.86747137534182 stroke=""none"" stroke-width=""1.5"" fill=""none"" />
    <circle cx=711.489236314508 cy=384 r=22.86747137534182 stroke=""none"" stroke-width=""1.5"" fill=""none"" />
    <circle cx=803.17 cy=292.31923631450815 r=22.86747137534182 stroke=""none"" stroke-width=""1.5"" fill=""none"" />
    <polygon points = ""803.17,384 809.6025053605267,406.86747137534184 796.7374946394732,406.86747137534184"" stroke=""none"" stroke-width=""3"" fill = ""none"" />
    
    </svg>
    </div>
        ",,,,,,,,,,,,get_response,True,lLwnYe5CakH1TgfS,,,False,False,False,183.17,4.0,601.49,91.68076368549188,2.0,1.0,0.0,,,,22
88,html-keyboard-response,88,243640,0.0-88.0,,,,"
    <div style="" display: block;  position: relative;"">
    
    <svg width=1366 height=768>
    <circle cx=620 cy=384 r=16.007229962739274 stroke=""black"" stroke-width=""1"" fill=""black"" />
    <circle cx=894.8507636854919 cy=384 r=22.86747137534182 stroke=""none"" stroke-width=""1.5"" fill=""none"" />
    <circle cx=803.17 cy=475.68076368549185 r=22.86747137534182 stroke=""none"" stroke-width=""1.5"" fill=""none"" />
    <circle cx=711.489236314508 cy=384 r=22.86747137534182 stroke=""none"" stroke-width=""1.5"" fill=""none"" />
    <circle cx=803.17 cy=292.31923631450815 r=22.86747137534182 stroke=""none"" stroke-width=""1.5"" fill=""none"" />
    <polygon points = ""803.17,384 809.6025053605267,406.86747137534184 796.7374946394732,406.86747137534184"" stroke=""none"" stroke-width=""3"" fill = ""none"" />
    
    </svg>
    </div>
        ",,,,,,,,,,,,,,,,,,,,,,,,,,,,,,22
89,html-keyboard-response,89,243793,0.0-89.0,,,,"
    <div style="" display: block;  position: relative;"">
    <svg width=1366 height=768>
    
    <circle cx=620 cy=384 r=16.007229962739274 stroke=""black"" stroke-width=""1"" fill=""black"" />
    <circle cx=803.17 cy=384 r=22.86747137534182 stroke=""black"" stroke-width=""1.5"" fill=""none"" />
    <circle cx=894.8507636854919 cy=384 r=22.86747137534182 stroke=""black"" stroke-width=""1.5"" fill=""none"" />
    <circle cx=803.17 cy=475.68076368549185 r=22.86747137534182 stroke=""black"" stroke-width=""1.5"" fill=""none"" />
    <circle cx=711.489236314508 cy=384 r=22.86747137534182 stroke=""black"" stroke-width=""1.5"" fill=""none"" />
    <circle cx=803.17 cy=292.31923631450815 r=22.86747137534182 stroke=""black"" stroke-width=""1.5"" fill=""none"" />
    <polygon points = ""803.17,384 809.6025053605267,361.13252862465816 796.7374946394732,361.13252862465816"" stroke=""white"" stroke-width=""3"" fill = ""white"" />
    
    </svg>
    </div>
        ",,,,,,,,,,,,stimulus,,,,,,,,,,,,,,,,,,22
90,html-keyboard-response,90,244225,0.0-90.0,430.3999999761581,arrowup,,"
    <div style="" display: block;  position: relative;"">
    
    <svg width=1366 height=768>
    <circle cx=620 cy=384 r=16.007229962739274 stroke=""black"" stroke-width=""1"" fill=""black"" />
    <circle cx=894.8507636854919 cy=384 r=22.86747137534182 stroke=""none"" stroke-width=""1.5"" fill=""none"" />
    <circle cx=803.17 cy=475.68076368549185 r=22.86747137534182 stroke=""none"" stroke-width=""1.5"" fill=""none"" />
    <circle cx=711.489236314508 cy=384 r=22.86747137534182 stroke=""none"" stroke-width=""1.5"" fill=""none"" />
    <circle cx=803.17 cy=292.31923631450815 r=22.86747137534182 stroke=""none"" stroke-width=""1.5"" fill=""none"" />
    <polygon points = ""803.17,384 809.6025053605267,361.13252862465816 796.7374946394732,361.13252862465816"" stroke=""none"" stroke-width=""3"" fill = ""none"" />
    
    </svg>
    </div>
        ",,,,,,,,,,,,get_response,True,lLwnYe5CakH1TgfS,,,False,True,False,183.17,4.0,601.49,91.68076368549188,2.0,1.0,0.0,,,,22
91,html-keyboard-response,91,244739,0.0-91.0,,,,"
    <div style="" display: block;  position: relative;"">
    
    <svg width=1366 height=768>
    <circle cx=620 cy=384 r=16.007229962739274 stroke=""black"" stroke-width=""1"" fill=""black"" />
    <circle cx=894.8507636854919 cy=384 r=22.86747137534182 stroke=""none"" stroke-width=""1.5"" fill=""none"" />
    <circle cx=803.17 cy=475.68076368549185 r=22.86747137534182 stroke=""none"" stroke-width=""1.5"" fill=""none"" />
    <circle cx=711.489236314508 cy=384 r=22.86747137534182 stroke=""none"" stroke-width=""1.5"" fill=""none"" />
    <circle cx=803.17 cy=292.31923631450815 r=22.86747137534182 stroke=""none"" stroke-width=""1.5"" fill=""none"" />
    <polygon points = ""803.17,384 809.6025053605267,361.13252862465816 796.7374946394732,361.13252862465816"" stroke=""none"" stroke-width=""3"" fill = ""none"" />
    
    </svg>
    </div>
        ",,,,,,,,,,,,,,,,,,,,,,,,,,,,,,22
92,html-keyboard-response,92,244896,0.0-92.0,,,,"
    <div style="" display: block;  position: relative;"">
    <svg width=1366 height=768>
    
    <circle cx=620 cy=384 r=16.007229962739274 stroke=""black"" stroke-width=""1"" fill=""black"" />
    <circle cx=803.17 cy=384 r=22.86747137534182 stroke=""black"" stroke-width=""1.5"" fill=""none"" />
    <circle cx=894.8507636854919 cy=384 r=22.86747137534182 stroke=""black"" stroke-width=""1.5"" fill=""none"" />
    <circle cx=803.17 cy=475.68076368549185 r=22.86747137534182 stroke=""black"" stroke-width=""1.5"" fill=""none"" />
    <circle cx=711.489236314508 cy=384 r=22.86747137534182 stroke=""black"" stroke-width=""1.5"" fill=""none"" />
    <circle cx=803.17 cy=292.31923631450815 r=22.86747137534182 stroke=""black"" stroke-width=""1.5"" fill=""none"" />
    <polygon points = ""803.17,384 809.6025053605267,361.13252862465816 796.7374946394732,361.13252862465816"" stroke=""white"" stroke-width=""3"" fill = ""white"" />
    
    </svg>
    </div>
        ",,,,,,,,,,,,stimulus,,,,,,,,,,,,,,,,,,22
93,html-keyboard-response,93,245225,0.0-93.0,326.39999997615814,arrowup,,"
    <div style="" display: block;  position: relative;"">
    
    <svg width=1366 height=768>
    <circle cx=620 cy=384 r=16.007229962739274 stroke=""black"" stroke-width=""1"" fill=""black"" />
    <circle cx=894.8507636854919 cy=384 r=22.86747137534182 stroke=""none"" stroke-width=""1.5"" fill=""none"" />
    <circle cx=803.17 cy=475.68076368549185 r=22.86747137534182 stroke=""none"" stroke-width=""1.5"" fill=""none"" />
    <circle cx=711.489236314508 cy=384 r=22.86747137534182 stroke=""none"" stroke-width=""1.5"" fill=""none"" />
    <circle cx=803.17 cy=292.31923631450815 r=22.86747137534182 stroke=""none"" stroke-width=""1.5"" fill=""none"" />
    <polygon points = ""803.17,384 809.6025053605267,361.13252862465816 796.7374946394732,361.13252862465816"" stroke=""none"" stroke-width=""3"" fill = ""none"" />
    
    </svg>
    </div>
        ",,,,,,,,,,,,get_response,True,lLwnYe5CakH1TgfS,,,False,True,False,183.17,4.0,601.49,91.68076368549188,2.0,1.0,0.0,,,,22
94,html-keyboard-response,94,245733,0.0-94.0,,,,"
    <div style="" display: block;  position: relative;"">
    
    <svg width=1366 height=768>
    <circle cx=620 cy=384 r=16.007229962739274 stroke=""black"" stroke-width=""1"" fill=""black"" />
    <circle cx=894.8507636854919 cy=384 r=22.86747137534182 stroke=""none"" stroke-width=""1.5"" fill=""none"" />
    <circle cx=803.17 cy=475.68076368549185 r=22.86747137534182 stroke=""none"" stroke-width=""1.5"" fill=""none"" />
    <circle cx=711.489236314508 cy=384 r=22.86747137534182 stroke=""none"" stroke-width=""1.5"" fill=""none"" />
    <circle cx=803.17 cy=292.31923631450815 r=22.86747137534182 stroke=""none"" stroke-width=""1.5"" fill=""none"" />
    <polygon points = ""803.17,384 809.6025053605267,361.13252862465816 796.7374946394732,361.13252862465816"" stroke=""none"" stroke-width=""3"" fill = ""none"" />
    
    </svg>
    </div>
        ",,,,,,,,,,,,,,,,,,,,,,,,,,,,,,22
95,html-keyboard-response,95,245887,0.0-95.0,,,,"
    <div style="" display: block;  position: relative;"">
    <svg width=1366 height=768>
    
    <circle cx=620 cy=384 r=16.007229962739274 stroke=""black"" stroke-width=""1"" fill=""black"" />
    <circle cx=436.83000000000004 cy=384 r=22.86747137534182 stroke=""black"" stroke-width=""1.5"" fill=""none"" />
    <circle cx=520.1761488049926 cy=384 r=22.86747137534182 stroke=""black"" stroke-width=""1.5"" fill=""none"" />
    <circle cx=436.83000000000004 cy=467.3461488049926 r=22.86747137534182 stroke=""black"" stroke-width=""1.5"" fill=""none"" />
    <circle cx=353.48385119500745 cy=384 r=22.86747137534182 stroke=""black"" stroke-width=""1.5"" fill=""none"" />
    <circle cx=436.83000000000004 cy=300.6538511950074 r=22.86747137534182 stroke=""black"" stroke-width=""1.5"" fill=""none"" />
    <polygon points = ""436.83000000000004,384 443.2625053605268,361.13252862465816 430.3974946394733,361.13252862465816"" stroke=""white"" stroke-width=""3"" fill = ""white"" />
    
    </svg>
    </div>
        ",,,,,,,,,,,,stimulus,,,,,,,,,,,,,,,,,,22
96,html-keyboard-response,96,246667,0.0-96.0,778.3000000715256,arrowdown,,"
    <div style="" display: block;  position: relative;"">
    
    <svg width=1366 height=768>
    <circle cx=620 cy=384 r=16.007229962739274 stroke=""black"" stroke-width=""1"" fill=""black"" />
    <circle cx=520.1761488049926 cy=384 r=22.86747137534182 stroke=""none"" stroke-width=""1.5"" fill=""none"" />
    <circle cx=436.83000000000004 cy=467.3461488049926 r=22.86747137534182 stroke=""none"" stroke-width=""1.5"" fill=""none"" />
    <circle cx=353.48385119500745 cy=384 r=22.86747137534182 stroke=""none"" stroke-width=""1.5"" fill=""none"" />
    <circle cx=436.83000000000004 cy=300.6538511950074 r=22.86747137534182 stroke=""none"" stroke-width=""1.5"" fill=""none"" />
    <polygon points = ""436.83000000000004,384 443.2625053605268,361.13252862465816 430.3974946394733,361.13252862465816"" stroke=""none"" stroke-width=""3"" fill = ""none"" />
    
    </svg>
    </div>
        ",,,,,,,,,,,,get_response,False,lLwnYe5CakH1TgfS,,,True,True,False,183.17,4.0,601.49,83.3461488049926,1.82,1.0,0.0,,,,22
97,html-keyboard-response,97,247179,0.0-97.0,,,,"
    <div style="" display: block;  position: relative;"">
    
    <svg width=1366 height=768>
    <circle cx=620 cy=384 r=16.007229962739274 stroke=""black"" stroke-width=""1"" fill=""black"" />
    <circle cx=520.1761488049926 cy=384 r=22.86747137534182 stroke=""none"" stroke-width=""1.5"" fill=""none"" />
    <circle cx=436.83000000000004 cy=467.3461488049926 r=22.86747137534182 stroke=""none"" stroke-width=""1.5"" fill=""none"" />
    <circle cx=353.48385119500745 cy=384 r=22.86747137534182 stroke=""none"" stroke-width=""1.5"" fill=""none"" />
    <circle cx=436.83000000000004 cy=300.6538511950074 r=22.86747137534182 stroke=""none"" stroke-width=""1.5"" fill=""none"" />
    <polygon points = ""436.83000000000004,384 443.2625053605268,361.13252862465816 430.3974946394733,361.13252862465816"" stroke=""none"" stroke-width=""3"" fill = ""none"" />
    
    </svg>
    </div>
        ",,,,,,,,,,,,,,,,,,,,,,,,,,,,,,22
98,html-keyboard-response,98,247334,0.0-98.0,,,,"
    <div style="" display: block;  position: relative;"">
    <svg width=1366 height=768>
    
    <circle cx=620 cy=384 r=16.007229962739274 stroke=""black"" stroke-width=""1"" fill=""black"" />
    <circle cx=803.17 cy=384 r=22.86747137534182 stroke=""black"" stroke-width=""1.5"" fill=""none"" />
    <circle cx=911.5199934464904 cy=384 r=22.86747137534182 stroke=""black"" stroke-width=""1.5"" fill=""none"" />
    <circle cx=803.17 cy=492.3499934464904 r=22.86747137534182 stroke=""black"" stroke-width=""1.5"" fill=""none"" />
    <circle cx=694.8200065535095 cy=384 r=22.86747137534182 stroke=""black"" stroke-width=""1.5"" fill=""none"" />
    <circle cx=803.17 cy=275.6500065535096 r=22.86747137534182 stroke=""black"" stroke-width=""1.5"" fill=""none"" />
    <polygon points = ""803.17,384 809.6025053605267,406.86747137534184 796.7374946394732,406.86747137534184"" stroke=""white"" stroke-width=""3"" fill = ""white"" />
    
    </svg>
    </div>
        ",,,,,,,,,,,,stimulus,,,,,,,,,,,,,,,,,,22
99,html-keyboard-response,99,247842,0.0-99.0,505.6999999284744,arrowdown,,"
    <div style="" display: block;  position: relative;"">
    
    <svg width=1366 height=768>
    <circle cx=620 cy=384 r=16.007229962739274 stroke=""black"" stroke-width=""1"" fill=""black"" />
    <circle cx=911.5199934464904 cy=384 r=22.86747137534182 stroke=""none"" stroke-width=""1.5"" fill=""none"" />
    <circle cx=803.17 cy=492.3499934464904 r=22.86747137534182 stroke=""none"" stroke-width=""1.5"" fill=""none"" />
    <circle cx=694.8200065535095 cy=384 r=22.86747137534182 stroke=""none"" stroke-width=""1.5"" fill=""none"" />
    <circle cx=803.17 cy=275.6500065535096 r=22.86747137534182 stroke=""none"" stroke-width=""1.5"" fill=""none"" />
    <polygon points = ""803.17,384 809.6025053605267,406.86747137534184 796.7374946394732,406.86747137534184"" stroke=""none"" stroke-width=""3"" fill = ""none"" />
    
    </svg>
    </div>
        ",,,,,,,,,,,,get_response,True,lLwnYe5CakH1TgfS,,,False,False,False,183.17,4.0,601.49,108.34999344649036,2.36,1.0,0.84,,,,22
100,html-keyboard-response,100,253428,0.0-100.0,5584.399999976158,arrowdown,,"<div id=""continue""> 
<h2 class=""bolded-blue"">Great Job! You have completed half of the study!</h2>
<p>Before you start the session 2, let&#39;s measure your viewing distance again using the virtual chinrest.</p>
<p>Please press the <b>down</b> arrow key to continue. </p>
</div>",,,,,,,,,,,,,,,,,,,,,,,,,,,,,,22
101,virtual-chinrest,101,300406,0.0-101.0,46976.29999995232,,,,,,85.6,53.98,377.0,4.4,598.49,8.180894363961768,46.08298105653939,29.64217957870497,16.665588518627686,,,,,,,,,,,,,,,,,,,22
102,html-keyboard-response,102,314136,0.0-102.0,13728.700000047684,arrowdown,,"<div><h2 class=""bolded-blue"">Alright, let&#39;s do the peripheral vision test one more time!</h2>
<p>Please do not move around and keep your eye on the <b>black dot</b> all the time. Click <b>up</b> or <b>down</b> to indicate the opening
    of the center circle. The test is difficult for everyone, so if you are not sure, just take your best guess! </p> 
    <p>Now, press the <b>down</b> arrow key to start the task when you are ready!</p></div>",,,,,,,,,,,,,,,,,,,,,,,,,,,,,,22
103,html-keyboard-response,103,314649,0.0-103.0,,,,"
    <div style="" display: block;  position: relative;"">
    
    <svg width=1366 height=768>
    <circle cx=620 cy=384 r=15.999666576559656 stroke=""black"" stroke-width=""1"" fill=""black"" />
    <circle cx=545.2599934464904 cy=384 r=22.856666537942367 stroke=""none"" stroke-width=""1.5"" fill=""none"" />
    <circle cx=436.90999999999997 cy=492.3499934464904 r=22.856666537942367 stroke=""none"" stroke-width=""1.5"" fill=""none"" />
    <circle cx=328.5600065535096 cy=384 r=22.856666537942367 stroke=""none"" stroke-width=""1.5"" fill=""none"" />
    <circle cx=436.90999999999997 cy=275.6500065535096 r=22.856666537942367 stroke=""none"" stroke-width=""1.5"" fill=""none"" />
    <polygon points = ""436.90999999999997,384 443.33946601379046,406.8566665379424 430.4805339862095,406.8566665379424"" stroke=""none"" stroke-width=""3"" fill = ""none"" />
    
    </svg>
    </div>
        ",,,,,,,,,,,,,,,,,,,,,,,,,,,,,,22
104,html-keyboard-response,104,314804,0.0-104.0,,,,"
    <div style="" display: block;  position: relative;"">
    <svg width=1366 height=768>
    
    <circle cx=620 cy=384 r=15.999666576559656 stroke=""black"" stroke-width=""1"" fill=""black"" />
    <circle cx=803.09 cy=384 r=22.856666537942367 stroke=""black"" stroke-width=""1.5"" fill=""none"" />
    <circle cx=922.0985000000001 cy=384 r=22.856666537942367 stroke=""black"" stroke-width=""1.5"" fill=""none"" />
    <circle cx=803.09 cy=503.0085 r=22.856666537942367 stroke=""black"" stroke-width=""1.5"" fill=""none"" />
    <circle cx=684.0815 cy=384 r=22.856666537942367 stroke=""black"" stroke-width=""1.5"" fill=""none"" />
