,trial_type,trial_index,time_elapsed,internal_node_id,rt,response,success,stimulus,start_time,start_time_unix,item_width_mm,item_height_mm,item_width_px,px2mm,view_dist_mm,item_width_deg,px2deg,win_width_deg,win_height_deg,trialType,correct,participantID,criticalSpacing,criticalSpacing_deg,isLeft,isUp,isEccen4,eccentricity,eccentricity_deg,viewingDistanceMean,critical_spacing,critical_spacing_deg,crowding_session,correctRate,viewDistance_1,viewDistance_2,viewDistance_3,age
0,pavlovia,0,5,0.0-0.0,,,,,,,,,,,,,,,,,,,,,,,,,,,,,,,,,,19
2,fullscreen,2,9203,0.0-2.0,,,True,,,,,,,,,,,,,,,,,,,,,,,,,,,,,,,19
3,html-keyboard-response,3,20900,0.0-3.0,11695.60000000894, ,,"<h1>Consent Form</h1>
       <p>By answering the following questions, you are participating in a study being performed by cognitive scientists in the Stanford Department of Psychology. If you have questions about this research, please contact us at stanfordpsych251@gmail.com. You must be at least 18 years old to participate. Your participation in this research is voluntary. You may decline to answer any or all of the following questions. You may decline further participation by closing the window, at any time, without adverse consequences. Your anonymity is assured; the researchers who have requested your participation will not receive any personal information about you.</p>
       <p>Press <b>any key</b> to start the experiment!</p>",,,,,,,,,,,,,,,,,,,,,,,,,,,,,,19
4,html-keyboard-response,4,22899,0.0-4.0,1998.1000000089407, ,,"<h1>Welcome to the Visual Crowding Experiment!</h1>
       <p>This test will take <b>10-12</b> minutes to complete.</p>
       <p>Press any key to start the experiment!</p>","1.12.2021, 06:58:24",1638338304560.0,,,,,,,,,,,,,,,,,,,,,,,,,,,,19
5,html-keyboard-response,5,37443,0.0-5.0,14543.20000000298,arrowdown,,"<div> 
<p> Before you begin this study, let&#39;s quickly test how far away you are sitting. You might know that vision tests at a doctor&#39;s practice often involve chinrests, the doctor basically asks you to sit away from a screen in a specific distance. We do this here with a <b>virtual chinrest</b>. </p>
<p> Please press the <b>down</b> arrow to continue.
</p>
</div>",,,,,,,,,,,,,,,,,,,,,,,,,,,,,,19
6,virtual-chinrest,6,281346,0.0-6.0,243900.70000000295,,,,,,85.6,53.98,388.0,4.53,652.89,7.501280764800355,51.724500410741065,37.119739867053305,20.879853675217483,,,,,,,,,,,,,,,,,,,19
7,html-keyboard-response,7,327220,0.0-7.0,45871.39999999106,arrowdown,,"
	<h2 class=""bolded-blue"">Now, you will take a peripheral vision test!</h2>
<p> 
	<b>
		<font size=""140%"">1. </font>
	</b>
	<em><b>Please use both eyes for the following task.</b></em> First, you will see a screen (like the one in the image below) showing a <b>black dot</b> in the middle of the screen, with a group of circles displayed on either the <span class=""bolded-blue"">left</span> or <span class=""bolded-blue"">right</span> of the black dot for 150 ms. <span class=""bolded-blue"">Please make sure to focus on the black dot all the time!</span>

	<div>
		<img src=""example.png"" alt=""example"" style=""border: 2px solid black"" width=""600""/> 
	</div>
	
	<b>
		<font size=""140%"">2. </font>
	</b>
	Your task is to identify whether the opening of the <b class=""bolded-blue"">center circle</b> is upward by pressing UP or downward by pressing DOWN on your keyboard. The opening of the circle will only be upward or downward, not towards left or right.

	<div>
		<img src=""arrow_keys+.png"" alt=""arrows"" style=""border: 2px solid black"" width=""600""/>
	</div>
	<br>

<p>Please press the <b>down</b> arrow key to start the <span class=""bolded-blue"">practice task</span> (this first practice task will not count toward your final results).</p>
</p>
",,,,,,,,,,,,,,,,,,,,,,,,,,,,,,19
8,html-keyboard-response,8,327735,0.0-8.0,,,,"
    <div style="" display: block;  position: relative;"">
    
    <svg width=1920 height=1080>
    <circle cx=897 cy=540 r=18.291673346196 stroke=""black"" stroke-width=""1"" fill=""black"" />
    <circle cx=NaN cy=540 r=26.130961923137143 stroke=""none"" stroke-width=""1.5"" fill=""none"" />
    <circle cx=687.69 cy=NaN r=26.130961923137143 stroke=""none"" stroke-width=""1.5"" fill=""none"" />
    <circle cx=NaN cy=540 r=26.130961923137143 stroke=""none"" stroke-width=""1.5"" fill=""none"" />
    <circle cx=687.69 cy=NaN r=26.130961923137143 stroke=""none"" stroke-width=""1.5"" fill=""none"" />
    <polygon points = ""687.69,540 695.0405089341689,566.1309619231372 680.3394910658312,566.1309619231372"" stroke=""none"" stroke-width=""3"" fill = ""none"" />
    
    </svg>
    </div>
        ",,,,,,,,,,,,,,,,,,,,,,,,,,,,,,19
9,html-keyboard-response,9,327893,0.0-9.0,,,,"
    <div style="" display: block;  position: relative;"">
    <svg width=1920 height=1080>
    
    <circle cx=897 cy=540 r=18.291673346196 stroke=""black"" stroke-width=""1"" fill=""black"" />
    <circle cx=1106.31 cy=540 r=26.130961923137143 stroke=""black"" stroke-width=""1.5"" fill=""none"" />
    <circle cx=1242.3615 cy=540 r=26.130961923137143 stroke=""black"" stroke-width=""1.5"" fill=""none"" />
    <circle cx=1106.31 cy=676.0515 r=26.130961923137143 stroke=""black"" stroke-width=""1.5"" fill=""none"" />
    <circle cx=970.2584999999999 cy=540 r=26.130961923137143 stroke=""black"" stroke-width=""1.5"" fill=""none"" />
    <circle cx=1106.31 cy=403.94849999999997 r=26.130961923137143 stroke=""black"" stroke-width=""1.5"" fill=""none"" />
    <polygon points = ""1106.31,540 1113.6605089341688,513.8690380768628 1098.9594910658311,513.8690380768628"" stroke=""white"" stroke-width=""3"" fill = ""white"" />
    
    </svg>
    </div>
        ",,,,,,,,,,,,stimulus,,,,,,,,,,,,,,,,,,19
10,html-keyboard-response,10,328571,0.0-10.0,676.3999999910593,arrowup,,"
    <div style="" display: block;  position: relative;"">
    
    <svg width=1920 height=1080>
    <circle cx=897 cy=540 r=18.291673346196 stroke=""black"" stroke-width=""1"" fill=""black"" />
    <circle cx=1242.3615 cy=540 r=26.130961923137143 stroke=""none"" stroke-width=""1.5"" fill=""none"" />
    <circle cx=1106.31 cy=676.0515 r=26.130961923137143 stroke=""none"" stroke-width=""1.5"" fill=""none"" />
    <circle cx=970.2584999999999 cy=540 r=26.130961923137143 stroke=""none"" stroke-width=""1.5"" fill=""none"" />
    <circle cx=1106.31 cy=403.94849999999997 r=26.130961923137143 stroke=""none"" stroke-width=""1.5"" fill=""none"" />
    <polygon points = ""1106.31,540 1113.6605089341688,513.8690380768628 1098.9594910658311,513.8690380768628"" stroke=""none"" stroke-width=""3"" fill = ""none"" />
    
    </svg>
    </div>
        ",,,,,,,,,,,,practice_get_response,True,09Q4u177dNRydcTp,136.0515,2.6,False,True,True,209.31,4.0,663.054,,,,,,,,19
11,html-keyboard-response,11,329085,0.0-11.0,,,,"
    <div style="" display: block;  position: relative;"">
    
    <svg width=1920 height=1080>
    <circle cx=897 cy=540 r=18.291673346196 stroke=""black"" stroke-width=""1"" fill=""black"" />
    <circle cx=1242.3615 cy=540 r=26.130961923137143 stroke=""none"" stroke-width=""1.5"" fill=""none"" />
    <circle cx=1106.31 cy=676.0515 r=26.130961923137143 stroke=""none"" stroke-width=""1.5"" fill=""none"" />
    <circle cx=970.2584999999999 cy=540 r=26.130961923137143 stroke=""none"" stroke-width=""1.5"" fill=""none"" />
    <circle cx=1106.31 cy=403.94849999999997 r=26.130961923137143 stroke=""none"" stroke-width=""1.5"" fill=""none"" />
    <polygon points = ""1106.31,540 1113.6605089341688,513.8690380768628 1098.9594910658311,513.8690380768628"" stroke=""none"" stroke-width=""3"" fill = ""none"" />
    
    </svg>
    </div>
        ",,,,,,,,,,,,,,,,,,,,,,,,,,,,,,19
12,html-keyboard-response,12,329244,0.0-12.0,,,,"
    <div style="" display: block;  position: relative;"">
    <svg width=1920 height=1080>
    
    <circle cx=897 cy=540 r=18.291673346196 stroke=""black"" stroke-width=""1"" fill=""black"" />
    <circle cx=687.69 cy=540 r=26.130961923137143 stroke=""black"" stroke-width=""1.5"" fill=""none"" />
    <circle cx=823.7415000000001 cy=540 r=26.130961923137143 stroke=""black"" stroke-width=""1.5"" fill=""none"" />
    <circle cx=687.69 cy=676.0515 r=26.130961923137143 stroke=""black"" stroke-width=""1.5"" fill=""none"" />
    <circle cx=551.6385 cy=540 r=26.130961923137143 stroke=""black"" stroke-width=""1.5"" fill=""none"" />
    <circle cx=687.69 cy=403.94849999999997 r=26.130961923137143 stroke=""black"" stroke-width=""1.5"" fill=""none"" />
    <polygon points = ""687.69,540 695.0405089341689,513.8690380768628 680.3394910658312,513.8690380768628"" stroke=""white"" stroke-width=""3"" fill = ""white"" />
    
    </svg>
    </div>
        ",,,,,,,,,,,,stimulus,,,,,,,,,,,,,,,,,,19
13,html-keyboard-response,13,329715,0.0-13.0,470.29999999701977,arrowup,,"
    <div style="" display: block;  position: relative;"">
    
    <svg width=1920 height=1080>
    <circle cx=897 cy=540 r=18.291673346196 stroke=""black"" stroke-width=""1"" fill=""black"" />
    <circle cx=823.7415000000001 cy=540 r=26.130961923137143 stroke=""none"" stroke-width=""1.5"" fill=""none"" />
    <circle cx=687.69 cy=676.0515 r=26.130961923137143 stroke=""none"" stroke-width=""1.5"" fill=""none"" />
    <circle cx=551.6385 cy=540 r=26.130961923137143 stroke=""none"" stroke-width=""1.5"" fill=""none"" />
    <circle cx=687.69 cy=403.94849999999997 r=26.130961923137143 stroke=""none"" stroke-width=""1.5"" fill=""none"" />
    <polygon points = ""687.69,540 695.0405089341689,513.8690380768628 680.3394910658312,513.8690380768628"" stroke=""none"" stroke-width=""3"" fill = ""none"" />
    
    </svg>
    </div>
        ",,,,,,,,,,,,practice_get_response,True,09Q4u177dNRydcTp,136.0515,2.6,True,True,True,209.31,4.0,663.054,,,,,,,,19
14,html-keyboard-response,14,330222,0.0-14.0,,,,"
    <div style="" display: block;  position: relative;"">
    
    <svg width=1920 height=1080>
    <circle cx=897 cy=540 r=18.291673346196 stroke=""black"" stroke-width=""1"" fill=""black"" />
    <circle cx=823.7415000000001 cy=540 r=26.130961923137143 stroke=""none"" stroke-width=""1.5"" fill=""none"" />
    <circle cx=687.69 cy=676.0515 r=26.130961923137143 stroke=""none"" stroke-width=""1.5"" fill=""none"" />
    <circle cx=551.6385 cy=540 r=26.130961923137143 stroke=""none"" stroke-width=""1.5"" fill=""none"" />
    <circle cx=687.69 cy=403.94849999999997 r=26.130961923137143 stroke=""none"" stroke-width=""1.5"" fill=""none"" />
    <polygon points = ""687.69,540 695.0405089341689,513.8690380768628 680.3394910658312,513.8690380768628"" stroke=""none"" stroke-width=""3"" fill = ""none"" />
    
    </svg>
    </div>
        ",,,,,,,,,,,,,,,,,,,,,,,,,,,,,,19
15,html-keyboard-response,15,330376,0.0-15.0,,,,"
    <div style="" display: block;  position: relative;"">
    <svg width=1920 height=1080>
    
    <circle cx=897 cy=540 r=18.291673346196 stroke=""black"" stroke-width=""1"" fill=""black"" />
    <circle cx=1106.31 cy=540 r=26.130961923137143 stroke=""black"" stroke-width=""1.5"" fill=""none"" />
    <circle cx=1242.3615 cy=540 r=26.130961923137143 stroke=""black"" stroke-width=""1.5"" fill=""none"" />
    <circle cx=1106.31 cy=676.0515 r=26.130961923137143 stroke=""black"" stroke-width=""1.5"" fill=""none"" />
    <circle cx=970.2584999999999 cy=540 r=26.130961923137143 stroke=""black"" stroke-width=""1.5"" fill=""none"" />
    <circle cx=1106.31 cy=403.94849999999997 r=26.130961923137143 stroke=""black"" stroke-width=""1.5"" fill=""none"" />
    <polygon points = ""1106.31,540 1113.6605089341688,566.1309619231372 1098.9594910658311,566.1309619231372"" stroke=""white"" stroke-width=""3"" fill = ""white"" />
    
    </svg>
    </div>
        ",,,,,,,,,,,,stimulus,,,,,,,,,,,,,,,,,,19
16,html-keyboard-response,16,330963,0.0-16.0,586.4000000059605,arrowdown,,"
    <div style="" display: block;  position: relative;"">
    
    <svg width=1920 height=1080>
    <circle cx=897 cy=540 r=18.291673346196 stroke=""black"" stroke-width=""1"" fill=""black"" />
    <circle cx=1242.3615 cy=540 r=26.130961923137143 stroke=""none"" stroke-width=""1.5"" fill=""none"" />
    <circle cx=1106.31 cy=676.0515 r=26.130961923137143 stroke=""none"" stroke-width=""1.5"" fill=""none"" />
    <circle cx=970.2584999999999 cy=540 r=26.130961923137143 stroke=""none"" stroke-width=""1.5"" fill=""none"" />
    <circle cx=1106.31 cy=403.94849999999997 r=26.130961923137143 stroke=""none"" stroke-width=""1.5"" fill=""none"" />
    <polygon points = ""1106.31,540 1113.6605089341688,566.1309619231372 1098.9594910658311,566.1309619231372"" stroke=""none"" stroke-width=""3"" fill = ""none"" />
    
    </svg>
    </div>
        ",,,,,,,,,,,,practice_get_response,True,09Q4u177dNRydcTp,136.0515,2.6,False,False,True,209.31,4.0,663.054,,,,,,,,19
17,html-keyboard-response,17,331470,0.0-17.0,,,,"
    <div style="" display: block;  position: relative;"">
    
    <svg width=1920 height=1080>
    <circle cx=897 cy=540 r=18.291673346196 stroke=""black"" stroke-width=""1"" fill=""black"" />
    <circle cx=1242.3615 cy=540 r=26.130961923137143 stroke=""none"" stroke-width=""1.5"" fill=""none"" />
    <circle cx=1106.31 cy=676.0515 r=26.130961923137143 stroke=""none"" stroke-width=""1.5"" fill=""none"" />
    <circle cx=970.2584999999999 cy=540 r=26.130961923137143 stroke=""none"" stroke-width=""1.5"" fill=""none"" />
    <circle cx=1106.31 cy=403.94849999999997 r=26.130961923137143 stroke=""none"" stroke-width=""1.5"" fill=""none"" />
    <polygon points = ""1106.31,540 1113.6605089341688,566.1309619231372 1098.9594910658311,566.1309619231372"" stroke=""none"" stroke-width=""3"" fill = ""none"" />
    
    </svg>
    </div>
        ",,,,,,,,,,,,,,,,,,,,,,,,,,,,,,19
18,html-keyboard-response,18,331627,0.0-18.0,,,,"
    <div style="" display: block;  position: relative;"">
    <svg width=1920 height=1080>
    
    <circle cx=897 cy=540 r=18.291673346196 stroke=""black"" stroke-width=""1"" fill=""black"" />
    <circle cx=1106.31 cy=540 r=26.130961923137143 stroke=""black"" stroke-width=""1.5"" fill=""none"" />
    <circle cx=1229.9931818181817 cy=540 r=26.130961923137143 stroke=""black"" stroke-width=""1.5"" fill=""none"" />
    <circle cx=1106.31 cy=663.6831818181818 r=26.130961923137143 stroke=""black"" stroke-width=""1.5"" fill=""none"" />
    <circle cx=982.6268181818182 cy=540 r=26.130961923137143 stroke=""black"" stroke-width=""1.5"" fill=""none"" />
    <circle cx=1106.31 cy=416.3168181818182 r=26.130961923137143 stroke=""black"" stroke-width=""1.5"" fill=""none"" />
    <polygon points = ""1106.31,540 1113.6605089341688,513.8690380768628 1098.9594910658311,513.8690380768628"" stroke=""white"" stroke-width=""3"" fill = ""white"" />
    
    </svg>
    </div>
        ",,,,,,,,,,,,stimulus,,,,,,,,,,,,,,,,,,19
19,html-keyboard-response,19,332123,0.0-19.0,495.1999999880791,arrowup,,"
    <div style="" display: block;  position: relative;"">
    
    <svg width=1920 height=1080>
    <circle cx=897 cy=540 r=18.291673346196 stroke=""black"" stroke-width=""1"" fill=""black"" />
    <circle cx=1229.9931818181817 cy=540 r=26.130961923137143 stroke=""none"" stroke-width=""1.5"" fill=""none"" />
    <circle cx=1106.31 cy=663.6831818181818 r=26.130961923137143 stroke=""none"" stroke-width=""1.5"" fill=""none"" />
    <circle cx=982.6268181818182 cy=540 r=26.130961923137143 stroke=""none"" stroke-width=""1.5"" fill=""none"" />
    <circle cx=1106.31 cy=416.3168181818182 r=26.130961923137143 stroke=""none"" stroke-width=""1.5"" fill=""none"" />
    <polygon points = ""1106.31,540 1113.6605089341688,513.8690380768628 1098.9594910658311,513.8690380768628"" stroke=""none"" stroke-width=""3"" fill = ""none"" />
    
    </svg>
    </div>
        ",,,,,,,,,,,,practice_get_response,True,09Q4u177dNRydcTp,123.6831818181818,2.36,False,True,True,209.31,4.0,663.054,,,,,,,,19
20,html-keyboard-response,20,332636,0.0-20.0,,,,"
    <div style="" display: block;  position: relative;"">
    
    <svg width=1920 height=1080>
    <circle cx=897 cy=540 r=18.291673346196 stroke=""black"" stroke-width=""1"" fill=""black"" />
    <circle cx=1229.9931818181817 cy=540 r=26.130961923137143 stroke=""none"" stroke-width=""1.5"" fill=""none"" />
    <circle cx=1106.31 cy=663.6831818181818 r=26.130961923137143 stroke=""none"" stroke-width=""1.5"" fill=""none"" />
    <circle cx=982.6268181818182 cy=540 r=26.130961923137143 stroke=""none"" stroke-width=""1.5"" fill=""none"" />
    <circle cx=1106.31 cy=416.3168181818182 r=26.130961923137143 stroke=""none"" stroke-width=""1.5"" fill=""none"" />
    <polygon points = ""1106.31,540 1113.6605089341688,513.8690380768628 1098.9594910658311,513.8690380768628"" stroke=""none"" stroke-width=""3"" fill = ""none"" />
    
    </svg>
    </div>
        ",,,,,,,,,,,,,,,,,,,,,,,,,,,,,,19
21,html-keyboard-response,21,332793,0.0-21.0,,,,"
    <div style="" display: block;  position: relative;"">
    <svg width=1920 height=1080>
    
    <circle cx=897 cy=540 r=18.291673346196 stroke=""black"" stroke-width=""1"" fill=""black"" />
    <circle cx=687.69 cy=540 r=26.130961923137143 stroke=""black"" stroke-width=""1.5"" fill=""none"" />
    <circle cx=800.1292561983471 cy=540 r=26.130961923137143 stroke=""black"" stroke-width=""1.5"" fill=""none"" />
    <circle cx=687.69 cy=652.439256198347 r=26.130961923137143 stroke=""black"" stroke-width=""1.5"" fill=""none"" />
    <circle cx=575.250743801653 cy=540 r=26.130961923137143 stroke=""black"" stroke-width=""1.5"" fill=""none"" />
    <circle cx=687.69 cy=427.5607438016529 r=26.130961923137143 stroke=""black"" stroke-width=""1.5"" fill=""none"" />
    <polygon points = ""687.69,540 695.0405089341689,566.1309619231372 680.3394910658312,566.1309619231372"" stroke=""white"" stroke-width=""3"" fill = ""white"" />
    
    </svg>
    </div>
        ",,,,,,,,,,,,stimulus,,,,,,,,,,,,,,,,,,19
22,html-keyboard-response,22,333139,0.0-22.0,345.1000000089407,arrowdown,,"
    <div style="" display: block;  position: relative;"">
    
    <svg width=1920 height=1080>
    <circle cx=897 cy=540 r=18.291673346196 stroke=""black"" stroke-width=""1"" fill=""black"" />
    <circle cx=800.1292561983471 cy=540 r=26.130961923137143 stroke=""none"" stroke-width=""1.5"" fill=""none"" />
    <circle cx=687.69 cy=652.439256198347 r=26.130961923137143 stroke=""none"" stroke-width=""1.5"" fill=""none"" />
    <circle cx=575.250743801653 cy=540 r=26.130961923137143 stroke=""none"" stroke-width=""1.5"" fill=""none"" />
    <circle cx=687.69 cy=427.5607438016529 r=26.130961923137143 stroke=""none"" stroke-width=""1.5"" fill=""none"" />
    <polygon points = ""687.69,540 695.0405089341689,566.1309619231372 680.3394910658312,566.1309619231372"" stroke=""none"" stroke-width=""3"" fill = ""none"" />
    
    </svg>
    </div>
        ",,,,,,,,,,,,practice_get_response,True,09Q4u177dNRydcTp,112.4392561983471,2.15,True,False,True,209.31,4.0,663.054,,,,,,,,19
23,html-keyboard-response,23,338435,0.0-23.0,5295.20000000298,arrowdown,,"<div> 
<h2 class=""bolded-blue"">Well done!</h2>
<p> Now that you have the hang of it, we&#39;ll start the study. This session has 25 trials and takes about 2 minute to complete. </p> 
<p>If you are ready for the real deal, please press the <b>down</b> arrow to continue.
</p>
</div>",,,,,,,,,,,,,,,,,,,,,,,,,,,,,,19
24,html-keyboard-response,24,346779,0.0-24.0,8342.79999999702,arrowdown,,"<div id=""continue""> 
<p>Again, please keep the <b>full screen</b> mode for the best experience.</p>
<p>Please do not move around and keep your eye on the black dot. Click <b>up</b> or <b>down</b> key on your keyboard to indicate the opening of the center circle. Make your best guess!</p>
<p>Please press the <b>down</b> arrow key to start the session 1. </p>
</div>",,,,,,,,,,,,,,,,,,,,,,,,,,,,,,19
25,html-keyboard-response,25,347287,0.0-25.0,,,,"
    <div style="" display: block;  position: relative;"">
    
    <svg width=1920 height=1080>
    <circle cx=897 cy=540 r=18.291673346196 stroke=""black"" stroke-width=""1"" fill=""black"" />
    <circle cx=800.1292561983471 cy=540 r=26.130961923137143 stroke=""none"" stroke-width=""1.5"" fill=""none"" />
    <circle cx=687.69 cy=652.439256198347 r=26.130961923137143 stroke=""none"" stroke-width=""1.5"" fill=""none"" />
    <circle cx=575.250743801653 cy=540 r=26.130961923137143 stroke=""none"" stroke-width=""1.5"" fill=""none"" />
    <circle cx=687.69 cy=427.5607438016529 r=26.130961923137143 stroke=""none"" stroke-width=""1.5"" fill=""none"" />
    <polygon points = ""687.69,540 695.0405089341689,566.1309619231372 680.3394910658312,566.1309619231372"" stroke=""none"" stroke-width=""3"" fill = ""none"" />
    
    </svg>
    </div>
        ",,,,,,,,,,,,,,,,,,,,,,,,,,,,,,19
26,html-keyboard-response,26,347443,0.0-26.0,,,,"
    <div style="" display: block;  position: relative;"">
    <svg width=1920 height=1080>
    
    <circle cx=897 cy=540 r=18.291673346196 stroke=""black"" stroke-width=""1"" fill=""black"" />
    <circle cx=687.69 cy=540 r=26.130961923137143 stroke=""black"" stroke-width=""1.5"" fill=""none"" />
    <circle cx=823.7415000000001 cy=540 r=26.130961923137143 stroke=""black"" stroke-width=""1.5"" fill=""none"" />
    <circle cx=687.69 cy=676.0515 r=26.130961923137143 stroke=""black"" stroke-width=""1.5"" fill=""none"" />
    <circle cx=551.6385 cy=540 r=26.130961923137143 stroke=""black"" stroke-width=""1.5"" fill=""none"" />
    <circle cx=687.69 cy=403.94849999999997 r=26.130961923137143 stroke=""black"" stroke-width=""1.5"" fill=""none"" />
    <polygon points = ""687.69,540 695.0405089341689,513.8690380768628 680.3394910658312,513.8690380768628"" stroke=""white"" stroke-width=""3"" fill = ""white"" />
    
    </svg>
    </div>
        ",,,,,,,,,,,,stimulus,,,,,,,,,,,,,,,,,,19
27,html-keyboard-response,27,347739,0.0-27.0,294.70000000298023,arrowup,,"
    <div style="" display: block;  position: relative;"">
    
    <svg width=1920 height=1080>
    <circle cx=897 cy=540 r=18.291673346196 stroke=""black"" stroke-width=""1"" fill=""black"" />
    <circle cx=823.7415000000001 cy=540 r=26.130961923137143 stroke=""none"" stroke-width=""1.5"" fill=""none"" />
    <circle cx=687.69 cy=676.0515 r=26.130961923137143 stroke=""none"" stroke-width=""1.5"" fill=""none"" />
    <circle cx=551.6385 cy=540 r=26.130961923137143 stroke=""none"" stroke-width=""1.5"" fill=""none"" />
    <circle cx=687.69 cy=403.94849999999997 r=26.130961923137143 stroke=""none"" stroke-width=""1.5"" fill=""none"" />
    <polygon points = ""687.69,540 695.0405089341689,513.8690380768628 680.3394910658312,513.8690380768628"" stroke=""none"" stroke-width=""3"" fill = ""none"" />
    
    </svg>
    </div>
        ",,,,,,,,,,,,get_response,True,09Q4u177dNRydcTp,,,True,True,True,209.31,4.0,663.054,136.0515,2.6,1.0,0.0,,,,19
28,html-keyboard-response,28,348252,0.0-28.0,,,,"
    <div style="" display: block;  position: relative;"">
    
    <svg width=1920 height=1080>
    <circle cx=897 cy=540 r=18.291673346196 stroke=""black"" stroke-width=""1"" fill=""black"" />
    <circle cx=823.7415000000001 cy=540 r=26.130961923137143 stroke=""none"" stroke-width=""1.5"" fill=""none"" />
    <circle cx=687.69 cy=676.0515 r=26.130961923137143 stroke=""none"" stroke-width=""1.5"" fill=""none"" />
    <circle cx=551.6385 cy=540 r=26.130961923137143 stroke=""none"" stroke-width=""1.5"" fill=""none"" />
    <circle cx=687.69 cy=403.94849999999997 r=26.130961923137143 stroke=""none"" stroke-width=""1.5"" fill=""none"" />
    <polygon points = ""687.69,540 695.0405089341689,513.8690380768628 680.3394910658312,513.8690380768628"" stroke=""none"" stroke-width=""3"" fill = ""none"" />
    
    </svg>
    </div>
        ",,,,,,,,,,,,,,,,,,,,,,,,,,,,,,19
29,html-keyboard-response,29,348410,0.0-29.0,,,,"
    <div style="" display: block;  position: relative;"">
    <svg width=1920 height=1080>
    
    <circle cx=897 cy=540 r=18.291673346196 stroke=""black"" stroke-width=""1"" fill=""black"" />
    <circle cx=687.69 cy=540 r=26.130961923137143 stroke=""black"" stroke-width=""1.5"" fill=""none"" />
    <circle cx=823.7415000000001 cy=540 r=26.130961923137143 stroke=""black"" stroke-width=""1.5"" fill=""none"" />
    <circle cx=687.69 cy=676.0515 r=26.130961923137143 stroke=""black"" stroke-width=""1.5"" fill=""none"" />
    <circle cx=551.6385 cy=540 r=26.130961923137143 stroke=""black"" stroke-width=""1.5"" fill=""none"" />
    <circle cx=687.69 cy=403.94849999999997 r=26.130961923137143 stroke=""black"" stroke-width=""1.5"" fill=""none"" />
    <polygon points = ""687.69,540 695.0405089341689,566.1309619231372 680.3394910658312,566.1309619231372"" stroke=""white"" stroke-width=""3"" fill = ""white"" />
    
    </svg>
    </div>
        ",,,,,,,,,,,,stimulus,,,,,,,,,,,,,,,,,,19
30,html-keyboard-response,30,348811,0.0-30.0,399.7000000029802,arrowdown,,"
    <div style="" display: block;  position: relative;"">
    
    <svg width=1920 height=1080>
    <circle cx=897 cy=540 r=18.291673346196 stroke=""black"" stroke-width=""1"" fill=""black"" />
    <circle cx=823.7415000000001 cy=540 r=26.130961923137143 stroke=""none"" stroke-width=""1.5"" fill=""none"" />
    <circle cx=687.69 cy=676.0515 r=26.130961923137143 stroke=""none"" stroke-width=""1.5"" fill=""none"" />
    <circle cx=551.6385 cy=540 r=26.130961923137143 stroke=""none"" stroke-width=""1.5"" fill=""none"" />
    <circle cx=687.69 cy=403.94849999999997 r=26.130961923137143 stroke=""none"" stroke-width=""1.5"" fill=""none"" />
    <polygon points = ""687.69,540 695.0405089341689,566.1309619231372 680.3394910658312,566.1309619231372"" stroke=""none"" stroke-width=""3"" fill = ""none"" />
    
    </svg>
    </div>
        ",,,,,,,,,,,,get_response,True,09Q4u177dNRydcTp,,,True,False,True,209.31,4.0,663.054,136.0515,2.6,1.0,0.0,,,,19
31,html-keyboard-response,31,349319,0.0-31.0,,,,"
    <div style="" display: block;  position: relative;"">
    
    <svg width=1920 height=1080>
    <circle cx=897 cy=540 r=18.291673346196 stroke=""black"" stroke-width=""1"" fill=""black"" />
    <circle cx=823.7415000000001 cy=540 r=26.130961923137143 stroke=""none"" stroke-width=""1.5"" fill=""none"" />
    <circle cx=687.69 cy=676.0515 r=26.130961923137143 stroke=""none"" stroke-width=""1.5"" fill=""none"" />
    <circle cx=551.6385 cy=540 r=26.130961923137143 stroke=""none"" stroke-width=""1.5"" fill=""none"" />
    <circle cx=687.69 cy=403.94849999999997 r=26.130961923137143 stroke=""none"" stroke-width=""1.5"" fill=""none"" />
    <polygon points = ""687.69,540 695.0405089341689,566.1309619231372 680.3394910658312,566.1309619231372"" stroke=""none"" stroke-width=""3"" fill = ""none"" />
    
    </svg>
    </div>
        ",,,,,,,,,,,,,,,,,,,,,,,,,,,,,,19
32,html-keyboard-response,32,349476,0.0-32.0,,,,"
    <div style="" display: block;  position: relative;"">
    <svg width=1920 height=1080>
    
    <circle cx=897 cy=540 r=18.291673346196 stroke=""black"" stroke-width=""1"" fill=""black"" />
    <circle cx=1106.31 cy=540 r=26.130961923137143 stroke=""black"" stroke-width=""1.5"" fill=""none"" />
    <circle cx=1242.3615 cy=540 r=26.130961923137143 stroke=""black"" stroke-width=""1.5"" fill=""none"" />
    <circle cx=1106.31 cy=676.0515 r=26.130961923137143 stroke=""black"" stroke-width=""1.5"" fill=""none"" />
    <circle cx=970.2584999999999 cy=540 r=26.130961923137143 stroke=""black"" stroke-width=""1.5"" fill=""none"" />
    <circle cx=1106.31 cy=403.94849999999997 r=26.130961923137143 stroke=""black"" stroke-width=""1.5"" fill=""none"" />
    <polygon points = ""1106.31,540 1113.6605089341688,566.1309619231372 1098.9594910658311,566.1309619231372"" stroke=""white"" stroke-width=""3"" fill = ""white"" />
    
    </svg>
    </div>
        ",,,,,,,,,,,,stimulus,,,,,,,,,,,,,,,,,,19
33,html-keyboard-response,33,349835,0.0-33.0,357.70000000298023,arrowdown,,"
    <div style="" display: block;  position: relative;"">
    
    <svg width=1920 height=1080>
    <circle cx=897 cy=540 r=18.291673346196 stroke=""black"" stroke-width=""1"" fill=""black"" />
    <circle cx=1242.3615 cy=540 r=26.130961923137143 stroke=""none"" stroke-width=""1.5"" fill=""none"" />
    <circle cx=1106.31 cy=676.0515 r=26.130961923137143 stroke=""none"" stroke-width=""1.5"" fill=""none"" />
    <circle cx=970.2584999999999 cy=540 r=26.130961923137143 stroke=""none"" stroke-width=""1.5"" fill=""none"" />
    <circle cx=1106.31 cy=403.94849999999997 r=26.130961923137143 stroke=""none"" stroke-width=""1.5"" fill=""none"" />
    <polygon points = ""1106.31,540 1113.6605089341688,566.1309619231372 1098.9594910658311,566.1309619231372"" stroke=""none"" stroke-width=""3"" fill = ""none"" />
    
    </svg>
    </div>
        ",,,,,,,,,,,,get_response,True,09Q4u177dNRydcTp,,,False,False,True,209.31,4.0,663.054,136.0515,2.6,1.0,0.0,,,,19
34,html-keyboard-response,34,350337,0.0-34.0,,,,"
    <div style="" display: block;  position: relative;"">
    
    <svg width=1920 height=1080>
    <circle cx=897 cy=540 r=18.291673346196 stroke=""black"" stroke-width=""1"" fill=""black"" />
    <circle cx=1242.3615 cy=540 r=26.130961923137143 stroke=""none"" stroke-width=""1.5"" fill=""none"" />
    <circle cx=1106.31 cy=676.0515 r=26.130961923137143 stroke=""none"" stroke-width=""1.5"" fill=""none"" />
    <circle cx=970.2584999999999 cy=540 r=26.130961923137143 stroke=""none"" stroke-width=""1.5"" fill=""none"" />
    <circle cx=1106.31 cy=403.94849999999997 r=26.130961923137143 stroke=""none"" stroke-width=""1.5"" fill=""none"" />
    <polygon points = ""1106.31,540 1113.6605089341688,566.1309619231372 1098.9594910658311,566.1309619231372"" stroke=""none"" stroke-width=""3"" fill = ""none"" />
    
    </svg>
    </div>
        ",,,,,,,,,,,,,,,,,,,,,,,,,,,,,,19
35,html-keyboard-response,35,350493,0.0-35.0,,,,"
    <div style="" display: block;  position: relative;"">
    <svg width=1920 height=1080>
    
    <circle cx=897 cy=540 r=18.291673346196 stroke=""black"" stroke-width=""1"" fill=""black"" />
    <circle cx=687.69 cy=540 r=26.130961923137143 stroke=""black"" stroke-width=""1.5"" fill=""none"" />
    <circle cx=811.3731818181818 cy=540 r=26.130961923137143 stroke=""black"" stroke-width=""1.5"" fill=""none"" />
    <circle cx=687.69 cy=663.6831818181818 r=26.130961923137143 stroke=""black"" stroke-width=""1.5"" fill=""none"" />
    <circle cx=564.0068181818183 cy=540 r=26.130961923137143 stroke=""black"" stroke-width=""1.5"" fill=""none"" />
    <circle cx=687.69 cy=416.3168181818182 r=26.130961923137143 stroke=""black"" stroke-width=""1.5"" fill=""none"" />
    <polygon points = ""687.69,540 695.0405089341689,513.8690380768628 680.3394910658312,513.8690380768628"" stroke=""white"" stroke-width=""3"" fill = ""white"" />
    
    </svg>
    </div>
        ",,,,,,,,,,,,stimulus,,,,,,,,,,,,,,,,,,19
36,html-keyboard-response,36,350835,0.0-36.0,340.59999999403954,arrowup,,"
    <div style="" display: block;  position: relative;"">
    
    <svg width=1920 height=1080>
    <circle cx=897 cy=540 r=18.291673346196 stroke=""black"" stroke-width=""1"" fill=""black"" />
    <circle cx=811.3731818181818 cy=540 r=26.130961923137143 stroke=""none"" stroke-width=""1.5"" fill=""none"" />
    <circle cx=687.69 cy=663.6831818181818 r=26.130961923137143 stroke=""none"" stroke-width=""1.5"" fill=""none"" />
    <circle cx=564.0068181818183 cy=540 r=26.130961923137143 stroke=""none"" stroke-width=""1.5"" fill=""none"" />
    <circle cx=687.69 cy=416.3168181818182 r=26.130961923137143 stroke=""none"" stroke-width=""1.5"" fill=""none"" />
    <polygon points = ""687.69,540 695.0405089341689,513.8690380768628 680.3394910658312,513.8690380768628"" stroke=""none"" stroke-width=""3"" fill = ""none"" />
    
    </svg>
    </div>
        ",,,,,,,,,,,,get_response,True,09Q4u177dNRydcTp,,,True,True,True,209.31,4.0,663.054,123.6831818181818,2.36,1.0,0.0,,,,19
37,html-keyboard-response,37,351337,0.0-37.0,,,,"
    <div style="" display: block;  position: relative;"">
    
    <svg width=1920 height=1080>
    <circle cx=897 cy=540 r=18.291673346196 stroke=""black"" stroke-width=""1"" fill=""black"" />
    <circle cx=811.3731818181818 cy=540 r=26.130961923137143 stroke=""none"" stroke-width=""1.5"" fill=""none"" />
    <circle cx=687.69 cy=663.6831818181818 r=26.130961923137143 stroke=""none"" stroke-width=""1.5"" fill=""none"" />
    <circle cx=564.0068181818183 cy=540 r=26.130961923137143 stroke=""none"" stroke-width=""1.5"" fill=""none"" />
    <circle cx=687.69 cy=416.3168181818182 r=26.130961923137143 stroke=""none"" stroke-width=""1.5"" fill=""none"" />
    <polygon points = ""687.69,540 695.0405089341689,513.8690380768628 680.3394910658312,513.8690380768628"" stroke=""none"" stroke-width=""3"" fill = ""none"" />
    
    </svg>
    </div>
        ",,,,,,,,,,,,,,,,,,,,,,,,,,,,,,19
38,html-keyboard-response,38,351494,0.0-38.0,,,,"
    <div style="" display: block;  position: relative;"">
    <svg width=1920 height=1080>
    
    <circle cx=897 cy=540 r=18.291673346196 stroke=""black"" stroke-width=""1"" fill=""black"" />
    <circle cx=1106.31 cy=540 r=26.130961923137143 stroke=""black"" stroke-width=""1.5"" fill=""none"" />
    <circle cx=1218.749256198347 cy=540 r=26.130961923137143 stroke=""black"" stroke-width=""1.5"" fill=""none"" />
    <circle cx=1106.31 cy=652.439256198347 r=26.130961923137143 stroke=""black"" stroke-width=""1.5"" fill=""none"" />
    <circle cx=993.8707438016529 cy=540 r=26.130961923137143 stroke=""black"" stroke-width=""1.5"" fill=""none"" />
    <circle cx=1106.31 cy=427.5607438016529 r=26.130961923137143 stroke=""black"" stroke-width=""1.5"" fill=""none"" />
    <polygon points = ""1106.31,540 1113.6605089341688,513.8690380768628 1098.9594910658311,513.8690380768628"" stroke=""white"" stroke-width=""3"" fill = ""white"" />
    
    </svg>
    </div>
        ",,,,,,,,,,,,stimulus,,,,,,,,,,,,,,,,,,19
39,html-keyboard-response,39,351763,0.0-39.0,267.79999999701977,arrowup,,"
    <div style="" display: block;  position: relative;"">
    
    <svg width=1920 height=1080>
    <circle cx=897 cy=540 r=18.291673346196 stroke=""black"" stroke-width=""1"" fill=""black"" />
    <circle cx=1218.749256198347 cy=540 r=26.130961923137143 stroke=""none"" stroke-width=""1.5"" fill=""none"" />
    <circle cx=1106.31 cy=652.439256198347 r=26.130961923137143 stroke=""none"" stroke-width=""1.5"" fill=""none"" />
    <circle cx=993.8707438016529 cy=540 r=26.130961923137143 stroke=""none"" stroke-width=""1.5"" fill=""none"" />
    <circle cx=1106.31 cy=427.5607438016529 r=26.130961923137143 stroke=""none"" stroke-width=""1.5"" fill=""none"" />
    <polygon points = ""1106.31,540 1113.6605089341688,513.8690380768628 1098.9594910658311,513.8690380768628"" stroke=""none"" stroke-width=""3"" fill = ""none"" />
    
    </svg>
    </div>
        ",,,,,,,,,,,,get_response,True,09Q4u177dNRydcTp,,,False,True,True,209.31,4.0,663.054,112.4392561983471,2.15,1.0,0.0,,,,19
40,html-keyboard-response,40,352270,0.0-40.0,,,,"
    <div style="" display: block;  position: relative;"">
    
    <svg width=1920 height=1080>
    <circle cx=897 cy=540 r=18.291673346196 stroke=""black"" stroke-width=""1"" fill=""black"" />
    <circle cx=1218.749256198347 cy=540 r=26.130961923137143 stroke=""none"" stroke-width=""1.5"" fill=""none"" />
    <circle cx=1106.31 cy=652.439256198347 r=26.130961923137143 stroke=""none"" stroke-width=""1.5"" fill=""none"" />
    <circle cx=993.8707438016529 cy=540 r=26.130961923137143 stroke=""none"" stroke-width=""1.5"" fill=""none"" />
    <circle cx=1106.31 cy=427.5607438016529 r=26.130961923137143 stroke=""none"" stroke-width=""1.5"" fill=""none"" />
    <polygon points = ""1106.31,540 1113.6605089341688,513.8690380768628 1098.9594910658311,513.8690380768628"" stroke=""none"" stroke-width=""3"" fill = ""none"" />
    
    </svg>
    </div>
        ",,,,,,,,,,,,,,,,,,,,,,,,,,,,,,19
41,html-keyboard-response,41,352427,0.0-41.0,,,,"
    <div style="" display: block;  position: relative;"">
    <svg width=1920 height=1080>
    
    <circle cx=897 cy=540 r=18.291673346196 stroke=""black"" stroke-width=""1"" fill=""black"" />
    <circle cx=1106.31 cy=540 r=26.130961923137143 stroke=""black"" stroke-width=""1.5"" fill=""none"" />
    <circle cx=1208.527505634861 cy=540 r=26.130961923137143 stroke=""black"" stroke-width=""1.5"" fill=""none"" />
    <circle cx=1106.31 cy=642.217505634861 r=26.130961923137143 stroke=""black"" stroke-width=""1.5"" fill=""none"" />
    <circle cx=1004.0924943651389 cy=540 r=26.130961923137143 stroke=""black"" stroke-width=""1.5"" fill=""none"" />
    <circle cx=1106.31 cy=437.78249436513903 r=26.130961923137143 stroke=""black"" stroke-width=""1.5"" fill=""none"" />
    <polygon points = ""1106.31,540 1113.6605089341688,513.8690380768628 1098.9594910658311,513.8690380768628"" stroke=""white"" stroke-width=""3"" fill = ""white"" />
    
    </svg>
    </div>
        ",,,,,,,,,,,,stimulus,,,,,,,,,,,,,,,,,,19
42,html-keyboard-response,42,352755,0.0-42.0,327.09999999403954,arrowup,,"
    <div style="" display: block;  position: relative;"">
    
    <svg width=1920 height=1080>
    <circle cx=897 cy=540 r=18.291673346196 stroke=""black"" stroke-width=""1"" fill=""black"" />
    <circle cx=1208.527505634861 cy=540 r=26.130961923137143 stroke=""none"" stroke-width=""1.5"" fill=""none"" />
    <circle cx=1106.31 cy=642.217505634861 r=26.130961923137143 stroke=""none"" stroke-width=""1.5"" fill=""none"" />
    <circle cx=1004.0924943651389 cy=540 r=26.130961923137143 stroke=""none"" stroke-width=""1.5"" fill=""none"" />
    <circle cx=1106.31 cy=437.78249436513903 r=26.130961923137143 stroke=""none"" stroke-width=""1.5"" fill=""none"" />
    <polygon points = ""1106.31,540 1113.6605089341688,513.8690380768628 1098.9594910658311,513.8690380768628"" stroke=""none"" stroke-width=""3"" fill = ""none"" />
    
    </svg>
    </div>
        ",,,,,,,,,,,,get_response,True,09Q4u177dNRydcTp,,,False,True,True,209.31,4.0,663.054,102.21750563486098,1.95,1.0,0.0,,,,19
43,html-keyboard-response,43,353269,0.0-43.0,,,,"
    <div style="" display: block;  position: relative;"">
    
    <svg width=1920 height=1080>
    <circle cx=897 cy=540 r=18.291673346196 stroke=""black"" stroke-width=""1"" fill=""black"" />
    <circle cx=1208.527505634861 cy=540 r=26.130961923137143 stroke=""none"" stroke-width=""1.5"" fill=""none"" />
    <circle cx=1106.31 cy=642.217505634861 r=26.130961923137143 stroke=""none"" stroke-width=""1.5"" fill=""none"" />
    <circle cx=1004.0924943651389 cy=540 r=26.130961923137143 stroke=""none"" stroke-width=""1.5"" fill=""none"" />
    <circle cx=1106.31 cy=437.78249436513903 r=26.130961923137143 stroke=""none"" stroke-width=""1.5"" fill=""none"" />
    <polygon points = ""1106.31,540 1113.6605089341688,513.8690380768628 1098.9594910658311,513.8690380768628"" stroke=""none"" stroke-width=""3"" fill = ""none"" />
    
    </svg>
    </div>
        ",,,,,,,,,,,,,,,,,,,,,,,,,,,,,,19
44,html-keyboard-response,44,353427,0.0-44.0,,,,"
    <div style="" display: block;  position: relative;"">
    <svg width=1920 height=1080>
    
    <circle cx=897 cy=540 r=18.291673346196 stroke=""black"" stroke-width=""1"" fill=""black"" />
    <circle cx=1106.31 cy=540 r=26.130961923137143 stroke=""black"" stroke-width=""1.5"" fill=""none"" />
    <circle cx=1199.2350051226008 cy=540 r=26.130961923137143 stroke=""black"" stroke-width=""1.5"" fill=""none"" />
    <circle cx=1106.31 cy=632.9250051226009 r=26.130961923137143 stroke=""black"" stroke-width=""1.5"" fill=""none"" />
    <circle cx=1013.3849948773991 cy=540 r=26.130961923137143 stroke=""black"" stroke-width=""1.5"" fill=""none"" />
    <circle cx=1106.31 cy=447.0749948773991 r=26.130961923137143 stroke=""black"" stroke-width=""1.5"" fill=""none"" />
    <polygon points = ""1106.31,540 1113.6605089341688,513.8690380768628 1098.9594910658311,513.8690380768628"" stroke=""white"" stroke-width=""3"" fill = ""white"" />
    
    </svg>
    </div>
        ",,,,,,,,,,,,stimulus,,,,,,,,,,,,,,,,,,19
45,html-keyboard-response,45,353723,0.0-45.0,295.5,arrowup,,"
    <div style="" display: block;  position: relative;"">
    
    <svg width=1920 height=1080>
    <circle cx=897 cy=540 r=18.291673346196 stroke=""black"" stroke-width=""1"" fill=""black"" />
    <circle cx=1199.2350051226008 cy=540 r=26.130961923137143 stroke=""none"" stroke-width=""1.5"" fill=""none"" />
    <circle cx=1106.31 cy=632.9250051226009 r=26.130961923137143 stroke=""none"" stroke-width=""1.5"" fill=""none"" />
    <circle cx=1013.3849948773991 cy=540 r=26.130961923137143 stroke=""none"" stroke-width=""1.5"" fill=""none"" />
    <circle cx=1106.31 cy=447.0749948773991 r=26.130961923137143 stroke=""none"" stroke-width=""1.5"" fill=""none"" />
    <polygon points = ""1106.31,540 1113.6605089341688,513.8690380768628 1098.9594910658311,513.8690380768628"" stroke=""none"" stroke-width=""3"" fill = ""none"" />
    
    </svg>
    </div>
        ",,,,,,,,,,,,get_response,True,09Q4u177dNRydcTp,,,False,True,True,209.31,4.0,663.054,92.9250051226009,1.77,1.0,0.0,,,,19
46,html-keyboard-response,46,354226,0.0-46.0,,,,"
    <div style="" display: block;  position: relative;"">
    
    <svg width=1920 height=1080>
    <circle cx=897 cy=540 r=18.291673346196 stroke=""black"" stroke-width=""1"" fill=""black"" />
    <circle cx=1199.2350051226008 cy=540 r=26.130961923137143 stroke=""none"" stroke-width=""1.5"" fill=""none"" />
    <circle cx=1106.31 cy=632.9250051226009 r=26.130961923137143 stroke=""none"" stroke-width=""1.5"" fill=""none"" />
    <circle cx=1013.3849948773991 cy=540 r=26.130961923137143 stroke=""none"" stroke-width=""1.5"" fill=""none"" />
    <circle cx=1106.31 cy=447.0749948773991 r=26.130961923137143 stroke=""none"" stroke-width=""1.5"" fill=""none"" />
    <polygon points = ""1106.31,540 1113.6605089341688,513.8690380768628 1098.9594910658311,513.8690380768628"" stroke=""none"" stroke-width=""3"" fill = ""none"" />
    
    </svg>
    </div>
        ",,,,,,,,,,,,,,,,,,,,,,,,,,,,,,19
47,html-keyboard-response,47,354393,0.0-47.0,,,,"
    <div style="" display: block;  position: relative;"">
    <svg width=1920 height=1080>
    
    <circle cx=897 cy=540 r=18.291673346196 stroke=""black"" stroke-width=""1"" fill=""black"" />
    <circle cx=687.69 cy=540 r=26.130961923137143 stroke=""black"" stroke-width=""1.5"" fill=""none"" />
    <circle cx=772.1672773841826 cy=540 r=26.130961923137143 stroke=""black"" stroke-width=""1.5"" fill=""none"" />
    <circle cx=687.69 cy=624.4772773841826 r=26.130961923137143 stroke=""black"" stroke-width=""1.5"" fill=""none"" />
    <circle cx=603.2127226158175 cy=540 r=26.130961923137143 stroke=""black"" stroke-width=""1.5"" fill=""none"" />
    <circle cx=687.69 cy=455.5227226158174 r=26.130961923137143 stroke=""black"" stroke-width=""1.5"" fill=""none"" />
    <polygon points = ""687.69,540 695.0405089341689,513.8690380768628 680.3394910658312,513.8690380768628"" stroke=""white"" stroke-width=""3"" fill = ""white"" />
    
    </svg>
    </div>
        ",,,,,,,,,,,,stimulus,,,,,,,,,,,,,,,,,,19
48,html-keyboard-response,48,354619,0.0-48.0,225.20000000298023,arrowup,,"
    <div style="" display: block;  position: relative;"">
    
    <svg width=1920 height=1080>
    <circle cx=897 cy=540 r=18.291673346196 stroke=""black"" stroke-width=""1"" fill=""black"" />
    <circle cx=772.1672773841826 cy=540 r=26.130961923137143 stroke=""none"" stroke-width=""1.5"" fill=""none"" />
    <circle cx=687.69 cy=624.4772773841826 r=26.130961923137143 stroke=""none"" stroke-width=""1.5"" fill=""none"" />
    <circle cx=603.2127226158175 cy=540 r=26.130961923137143 stroke=""none"" stroke-width=""1.5"" fill=""none"" />
    <circle cx=687.69 cy=455.5227226158174 r=26.130961923137143 stroke=""none"" stroke-width=""1.5"" fill=""none"" />
    <polygon points = ""687.69,540 695.0405089341689,513.8690380768628 680.3394910658312,513.8690380768628"" stroke=""none"" stroke-width=""3"" fill = ""none"" />
    
    </svg>
    </div>
        ",,,,,,,,,,,,get_response,True,09Q4u177dNRydcTp,,,True,True,True,209.31,4.0,663.054,84.47727738418263,1.61,1.0,0.0,,,,19
49,html-keyboard-response,49,355136,0.0-49.0,,,,"
    <div style="" display: block;  position: relative;"">
    
    <svg width=1920 height=1080>
    <circle cx=897 cy=540 r=18.291673346196 stroke=""black"" stroke-width=""1"" fill=""black"" />
    <circle cx=772.1672773841826 cy=540 r=26.130961923137143 stroke=""none"" stroke-width=""1.5"" fill=""none"" />
    <circle cx=687.69 cy=624.4772773841826 r=26.130961923137143 stroke=""none"" stroke-width=""1.5"" fill=""none"" />
    <circle cx=603.2127226158175 cy=540 r=26.130961923137143 stroke=""none"" stroke-width=""1.5"" fill=""none"" />
    <circle cx=687.69 cy=455.5227226158174 r=26.130961923137143 stroke=""none"" stroke-width=""1.5"" fill=""none"" />
    <polygon points = ""687.69,540 695.0405089341689,513.8690380768628 680.3394910658312,513.8690380768628"" stroke=""none"" stroke-width=""3"" fill = ""none"" />
    
    </svg>
    </div>
        ",,,,,,,,,,,,,,,,,,,,,,,,,,,,,,19
50,html-keyboard-response,50,355294,0.0-50.0,,,,"
    <div style="" display: block;  position: relative;"">
    <svg width=1920 height=1080>
    
    <circle cx=897 cy=540 r=18.291673346196 stroke=""black"" stroke-width=""1"" fill=""black"" />
    <circle cx=1106.31 cy=540 r=26.130961923137143 stroke=""black"" stroke-width=""1.5"" fill=""none"" />
    <circle cx=1183.1075248947113 cy=540 r=26.130961923137143 stroke=""black"" stroke-width=""1.5"" fill=""none"" />
    <circle cx=1106.31 cy=616.7975248947115 r=26.130961923137143 stroke=""black"" stroke-width=""1.5"" fill=""none"" />
    <circle cx=1029.5124751052886 cy=540 r=26.130961923137143 stroke=""black"" stroke-width=""1.5"" fill=""none"" />
    <circle cx=1106.31 cy=463.2024751052885 r=26.130961923137143 stroke=""black"" stroke-width=""1.5"" fill=""none"" />
    <polygon points = ""1106.31,540 1113.6605089341688,566.1309619231372 1098.9594910658311,566.1309619231372"" stroke=""white"" stroke-width=""3"" fill = ""white"" />
    
    </svg>
    </div>
        ",,,,,,,,,,,,stimulus,,,,,,,,,,,,,,,,,,19
51,html-keyboard-response,51,355683,0.0-51.0,388.5,arrowdown,,"
    <div style="" display: block;  position: relative;"">
    
    <svg width=1920 height=1080>
    <circle cx=897 cy=540 r=18.291673346196 stroke=""black"" stroke-width=""1"" fill=""black"" />
    <circle cx=1183.1075248947113 cy=540 r=26.130961923137143 stroke=""none"" stroke-width=""1.5"" fill=""none"" />
    <circle cx=1106.31 cy=616.7975248947115 r=26.130961923137143 stroke=""none"" stroke-width=""1.5"" fill=""none"" />
    <circle cx=1029.5124751052886 cy=540 r=26.130961923137143 stroke=""none"" stroke-width=""1.5"" fill=""none"" />
    <circle cx=1106.31 cy=463.2024751052885 r=26.130961923137143 stroke=""none"" stroke-width=""1.5"" fill=""none"" />
    <polygon points = ""1106.31,540 1113.6605089341688,566.1309619231372 1098.9594910658311,566.1309619231372"" stroke=""none"" stroke-width=""3"" fill = ""none"" />
    
    </svg>
    </div>
        ",,,,,,,,,,,,get_response,True,09Q4u177dNRydcTp,,,False,False,True,209.31,4.0,663.054,76.79752489471147,1.47,1.0,0.0,,,,19
52,html-keyboard-response,52,356187,0.0-52.0,,,,"
    <div style="" display: block;  position: relative;"">
    
    <svg width=1920 height=1080>
    <circle cx=897 cy=540 r=18.291673346196 stroke=""black"" stroke-width=""1"" fill=""black"" />
    <circle cx=1183.1075248947113 cy=540 r=26.130961923137143 stroke=""none"" stroke-width=""1.5"" fill=""none"" />
    <circle cx=1106.31 cy=616.7975248947115 r=26.130961923137143 stroke=""none"" stroke-width=""1.5"" fill=""none"" />
    <circle cx=1029.5124751052886 cy=540 r=26.130961923137143 stroke=""none"" stroke-width=""1.5"" fill=""none"" />
    <circle cx=1106.31 cy=463.2024751052885 r=26.130961923137143 stroke=""none"" stroke-width=""1.5"" fill=""none"" />
    <polygon points = ""1106.31,540 1113.6605089341688,566.1309619231372 1098.9594910658311,566.1309619231372"" stroke=""none"" stroke-width=""3"" fill = ""none"" />
    
    </svg>
    </div>
        ",,,,,,,,,,,,,,,,,,,,,,,,,,,,,,19
53,html-keyboard-response,53,356344,0.0-53.0,,,,"
    <div style="" display: block;  position: relative;"">
    <svg width=1920 height=1080>
    
    <circle cx=897 cy=540 r=18.291673346196 stroke=""black"" stroke-width=""1"" fill=""black"" />
    <circle cx=687.69 cy=540 r=26.130961923137143 stroke=""black"" stroke-width=""1.5"" fill=""none"" />
    <circle cx=757.505931722465 cy=540 r=26.130961923137143 stroke=""black"" stroke-width=""1.5"" fill=""none"" />
    <circle cx=687.69 cy=609.8159317224649 r=26.130961923137143 stroke=""black"" stroke-width=""1.5"" fill=""none"" />
    <circle cx=617.8740682775351 cy=540 r=26.130961923137143 stroke=""black"" stroke-width=""1.5"" fill=""none"" />
    <circle cx=687.69 cy=470.18406827753506 r=26.130961923137143 stroke=""black"" stroke-width=""1.5"" fill=""none"" />
    <polygon points = ""687.69,540 695.0405089341689,566.1309619231372 680.3394910658312,566.1309619231372"" stroke=""white"" stroke-width=""3"" fill = ""white"" />
    
    </svg>
    </div>
        ",,,,,,,,,,,,stimulus,,,,,,,,,,,,,,,,,,19
54,html-keyboard-response,54,356747,0.0-54.0,402.0,arrowdown,,"
    <div style="" display: block;  position: relative;"">
    
    <svg width=1920 height=1080>
    <circle cx=897 cy=540 r=18.291673346196 stroke=""black"" stroke-width=""1"" fill=""black"" />
    <circle cx=757.505931722465 cy=540 r=26.130961923137143 stroke=""none"" stroke-width=""1.5"" fill=""none"" />
    <circle cx=687.69 cy=609.8159317224649 r=26.130961923137143 stroke=""none"" stroke-width=""1.5"" fill=""none"" />
    <circle cx=617.8740682775351 cy=540 r=26.130961923137143 stroke=""none"" stroke-width=""1.5"" fill=""none"" />
    <circle cx=687.69 cy=470.18406827753506 r=26.130961923137143 stroke=""none"" stroke-width=""1.5"" fill=""none"" />
    <polygon points = ""687.69,540 695.0405089341689,566.1309619231372 680.3394910658312,566.1309619231372"" stroke=""none"" stroke-width=""3"" fill = ""none"" />
    
    </svg>
    </div>
        ",,,,,,,,,,,,get_response,True,09Q4u177dNRydcTp,,,True,False,True,209.31,4.0,663.054,69.81593172246497,1.33,1.0,0.0,,,,19
55,html-keyboard-response,55,357253,0.0-55.0,,,,"
    <div style="" display: block;  position: relative;"">
    
    <svg width=1920 height=1080>
    <circle cx=897 cy=540 r=18.291673346196 stroke=""black"" stroke-width=""1"" fill=""black"" />
    <circle cx=757.505931722465 cy=540 r=26.130961923137143 stroke=""none"" stroke-width=""1.5"" fill=""none"" />
    <circle cx=687.69 cy=609.8159317224649 r=26.130961923137143 stroke=""none"" stroke-width=""1.5"" fill=""none"" />
    <circle cx=617.8740682775351 cy=540 r=26.130961923137143 stroke=""none"" stroke-width=""1.5"" fill=""none"" />
    <circle cx=687.69 cy=470.18406827753506 r=26.130961923137143 stroke=""none"" stroke-width=""1.5"" fill=""none"" />
    <polygon points = ""687.69,540 695.0405089341689,566.1309619231372 680.3394910658312,566.1309619231372"" stroke=""none"" stroke-width=""3"" fill = ""none"" />
    
    </svg>
    </div>
        ",,,,,,,,,,,,,,,,,,,,,,,,,,,,,,19
56,html-keyboard-response,56,357410,0.0-56.0,,,,"
    <div style="" display: block;  position: relative;"">
    <svg width=1920 height=1080>
    
    <circle cx=897 cy=540 r=18.291673346196 stroke=""black"" stroke-width=""1"" fill=""black"" />
    <circle cx=687.69 cy=540 r=26.130961923137143 stroke=""black"" stroke-width=""1.5"" fill=""none"" />
    <circle cx=751.1590288386045 cy=540 r=26.130961923137143 stroke=""black"" stroke-width=""1.5"" fill=""none"" />
    <circle cx=687.69 cy=603.4690288386045 r=26.130961923137143 stroke=""black"" stroke-width=""1.5"" fill=""none"" />
    <circle cx=624.2209711613956 cy=540 r=26.130961923137143 stroke=""black"" stroke-width=""1.5"" fill=""none"" />
    <circle cx=687.69 cy=476.5309711613955 r=26.130961923137143 stroke=""black"" stroke-width=""1.5"" fill=""none"" />
    <polygon points = ""687.69,540 695.0405089341689,513.8690380768628 680.3394910658312,513.8690380768628"" stroke=""white"" stroke-width=""3"" fill = ""white"" />
    
    </svg>
    </div>
        ",,,,,,,,,,,,stimulus,,,,,,,,,,,,,,,,,,19
57,html-keyboard-response,57,357795,0.0-57.0,383.90000000596046,arrowup,,"
    <div style="" display: block;  position: relative;"">
    
    <svg width=1920 height=1080>
    <circle cx=897 cy=540 r=18.291673346196 stroke=""black"" stroke-width=""1"" fill=""black"" />
    <circle cx=751.1590288386045 cy=540 r=26.130961923137143 stroke=""none"" stroke-width=""1.5"" fill=""none"" />
    <circle cx=687.69 cy=603.4690288386045 r=26.130961923137143 stroke=""none"" stroke-width=""1.5"" fill=""none"" />
    <circle cx=624.2209711613956 cy=540 r=26.130961923137143 stroke=""none"" stroke-width=""1.5"" fill=""none"" />
    <circle cx=687.69 cy=476.5309711613955 r=26.130961923137143 stroke=""none"" stroke-width=""1.5"" fill=""none"" />
    <polygon points = ""687.69,540 695.0405089341689,513.8690380768628 680.3394910658312,513.8690380768628"" stroke=""none"" stroke-width=""3"" fill = ""none"" />
    
    </svg>
    </div>
        ",,,,,,,,,,,,get_response,True,09Q4u177dNRydcTp,,,True,True,True,209.31,4.0,663.054,63.46902883860451,1.21,1.0,0.0,,,,19
58,html-keyboard-response,58,358302,0.0-58.0,,,,"
    <div style="" display: block;  position: relative;"">
    
    <svg width=1920 height=1080>
    <circle cx=897 cy=540 r=18.291673346196 stroke=""black"" stroke-width=""1"" fill=""black"" />
    <circle cx=751.1590288386045 cy=540 r=26.130961923137143 stroke=""none"" stroke-width=""1.5"" fill=""none"" />
    <circle cx=687.69 cy=603.4690288386045 r=26.130961923137143 stroke=""none"" stroke-width=""1.5"" fill=""none"" />
    <circle cx=624.2209711613956 cy=540 r=26.130961923137143 stroke=""none"" stroke-width=""1.5"" fill=""none"" />
    <circle cx=687.69 cy=476.5309711613955 r=26.130961923137143 stroke=""none"" stroke-width=""1.5"" fill=""none"" />
    <polygon points = ""687.69,540 695.0405089341689,513.8690380768628 680.3394910658312,513.8690380768628"" stroke=""none"" stroke-width=""3"" fill = ""none"" />
    
    </svg>
    </div>
        ",,,,,,,,,,,,,,,,,,,,,,,,,,,,,,19
59,html-keyboard-response,59,358460,0.0-59.0,,,,"
    <div style="" display: block;  position: relative;"">
    <svg width=1920 height=1080>
    
    <circle cx=897 cy=540 r=18.291673346196 stroke=""black"" stroke-width=""1"" fill=""black"" />
    <circle cx=1106.31 cy=540 r=26.130961923137143 stroke=""black"" stroke-width=""1.5"" fill=""none"" />
    <circle cx=1164.009117126004 cy=540 r=26.130961923137143 stroke=""black"" stroke-width=""1.5"" fill=""none"" />
    <circle cx=1106.31 cy=597.6991171260041 r=26.130961923137143 stroke=""black"" stroke-width=""1.5"" fill=""none"" />
    <circle cx=1048.610882873996 cy=540 r=26.130961923137143 stroke=""black"" stroke-width=""1.5"" fill=""none"" />
    <circle cx=1106.31 cy=482.3008828739959 r=26.130961923137143 stroke=""black"" stroke-width=""1.5"" fill=""none"" />
    <polygon points = ""1106.31,540 1113.6605089341688,513.8690380768628 1098.9594910658311,513.8690380768628"" stroke=""white"" stroke-width=""3"" fill = ""white"" />
    
    </svg>
    </div>
        ",,,,,,,,,,,,stimulus,,,,,,,,,,,,,,,,,,19
60,html-keyboard-response,60,359003,0.0-60.0,541.9000000059605,arrowup,,"
    <div style="" display: block;  position: relative;"">
    
    <svg width=1920 height=1080>
    <circle cx=897 cy=540 r=18.291673346196 stroke=""black"" stroke-width=""1"" fill=""black"" />
    <circle cx=1164.009117126004 cy=540 r=26.130961923137143 stroke=""none"" stroke-width=""1.5"" fill=""none"" />
    <circle cx=1106.31 cy=597.6991171260041 r=26.130961923137143 stroke=""none"" stroke-width=""1.5"" fill=""none"" />
    <circle cx=1048.610882873996 cy=540 r=26.130961923137143 stroke=""none"" stroke-width=""1.5"" fill=""none"" />
    <circle cx=1106.31 cy=482.3008828739959 r=26.130961923137143 stroke=""none"" stroke-width=""1.5"" fill=""none"" />
    <polygon points = ""1106.31,540 1113.6605089341688,513.8690380768628 1098.9594910658311,513.8690380768628"" stroke=""none"" stroke-width=""3"" fill = ""none"" />
    
    </svg>
    </div>
        ",,,,,,,,,,,,get_response,True,09Q4u177dNRydcTp,,,False,True,True,209.31,4.0,663.054,57.6991171260041,1.1,1.0,0.0,,,,19
61,html-keyboard-response,61,359519,0.0-61.0,,,,"
    <div style="" display: block;  position: relative;"">
    
    <svg width=1920 height=1080>
    <circle cx=897 cy=540 r=18.291673346196 stroke=""black"" stroke-width=""1"" fill=""black"" />
    <circle cx=1164.009117126004 cy=540 r=26.130961923137143 stroke=""none"" stroke-width=""1.5"" fill=""none"" />
    <circle cx=1106.31 cy=597.6991171260041 r=26.130961923137143 stroke=""none"" stroke-width=""1.5"" fill=""none"" />
    <circle cx=1048.610882873996 cy=540 r=26.130961923137143 stroke=""none"" stroke-width=""1.5"" fill=""none"" />
    <circle cx=1106.31 cy=482.3008828739959 r=26.130961923137143 stroke=""none"" stroke-width=""1.5"" fill=""none"" />
    <polygon points = ""1106.31,540 1113.6605089341688,513.8690380768628 1098.9594910658311,513.8690380768628"" stroke=""none"" stroke-width=""3"" fill = ""none"" />
    
    </svg>
    </div>
        ",,,,,,,,,,,,,,,,,,,,,,,,,,,,,,19
62,html-keyboard-response,62,359678,0.0-62.0,,,,"
    <div style="" display: block;  position: relative;"">
    <svg width=1920 height=1080>
    
    <circle cx=897 cy=540 r=18.291673346196 stroke=""black"" stroke-width=""1"" fill=""black"" />
    <circle cx=687.69 cy=540 r=26.130961923137143 stroke=""black"" stroke-width=""1.5"" fill=""none"" />
    <circle cx=740.1437428418219 cy=540 r=26.130961923137143 stroke=""black"" stroke-width=""1.5"" fill=""none"" />
    <circle cx=687.69 cy=592.4537428418218 r=26.130961923137143 stroke=""black"" stroke-width=""1.5"" fill=""none"" />
    <circle cx=635.2362571581782 cy=540 r=26.130961923137143 stroke=""black"" stroke-width=""1.5"" fill=""none"" />
    <circle cx=687.69 cy=487.5462571581781 r=26.130961923137143 stroke=""black"" stroke-width=""1.5"" fill=""none"" />
    <polygon points = ""687.69,540 695.0405089341689,566.1309619231372 680.3394910658312,566.1309619231372"" stroke=""white"" stroke-width=""3"" fill = ""white"" />
    
    </svg>
    </div>
        ",,,,,,,,,,,,stimulus,,,,,,,,,,,,,,,,,,19
63,html-keyboard-response,63,360083,0.0-63.0,403.90000000596046,arrowdown,,"
    <div style="" display: block;  position: relative;"">
    
    <svg width=1920 height=1080>
    <circle cx=897 cy=540 r=18.291673346196 stroke=""black"" stroke-width=""1"" fill=""black"" />
    <circle cx=740.1437428418219 cy=540 r=26.130961923137143 stroke=""none"" stroke-width=""1.5"" fill=""none"" />
    <circle cx=687.69 cy=592.4537428418218 r=26.130961923137143 stroke=""none"" stroke-width=""1.5"" fill=""none"" />
    <circle cx=635.2362571581782 cy=540 r=26.130961923137143 stroke=""none"" stroke-width=""1.5"" fill=""none"" />
    <circle cx=687.69 cy=487.5462571581781 r=26.130961923137143 stroke=""none"" stroke-width=""1.5"" fill=""none"" />
    <polygon points = ""687.69,540 695.0405089341689,566.1309619231372 680.3394910658312,566.1309619231372"" stroke=""none"" stroke-width=""3"" fill = ""none"" />
    
    </svg>
    </div>
        ",,,,,,,,,,,,get_response,True,09Q4u177dNRydcTp,,,True,False,True,209.31,4.0,663.054,52.4537428418219,1.0,1.0,0.0,,,,19
64,html-keyboard-response,64,360595,0.0-64.0,,,,"
    <div style="" display: block;  position: relative;"">
    
    <svg width=1920 height=1080>
    <circle cx=897 cy=540 r=18.291673346196 stroke=""black"" stroke-width=""1"" fill=""black"" />
    <circle cx=740.1437428418219 cy=540 r=26.130961923137143 stroke=""none"" stroke-width=""1.5"" fill=""none"" />
    <circle cx=687.69 cy=592.4537428418218 r=26.130961923137143 stroke=""none"" stroke-width=""1.5"" fill=""none"" />
    <circle cx=635.2362571581782 cy=540 r=26.130961923137143 stroke=""none"" stroke-width=""1.5"" fill=""none"" />
    <circle cx=687.69 cy=487.5462571581781 r=26.130961923137143 stroke=""none"" stroke-width=""1.5"" fill=""none"" />
    <polygon points = ""687.69,540 695.0405089341689,566.1309619231372 680.3394910658312,566.1309619231372"" stroke=""none"" stroke-width=""3"" fill = ""none"" />
    
    </svg>
    </div>
        ",,,,,,,,,,,,,,,,,,,,,,,,,,,,,,19
65,html-keyboard-response,65,360755,0.0-65.0,,,,"
    <div style="" display: block;  position: relative;"">
    <svg width=1920 height=1080>
    
    <circle cx=897 cy=540 r=18.291673346196 stroke=""black"" stroke-width=""1"" fill=""black"" />
    <circle cx=1106.31 cy=540 r=26.130961923137143 stroke=""black"" stroke-width=""1.5"" fill=""none"" />
    <circle cx=1158.5719238462743 cy=540 r=26.130961923137143 stroke=""black"" stroke-width=""1.5"" fill=""none"" />
    <circle cx=1106.31 cy=592.2619238462743 r=26.130961923137143 stroke=""black"" stroke-width=""1.5"" fill=""none"" />
    <circle cx=1054.0480761537256 cy=540 r=26.130961923137143 stroke=""black"" stroke-width=""1.5"" fill=""none"" />
    <circle cx=1106.31 cy=487.73807615372573 r=26.130961923137143 stroke=""black"" stroke-width=""1.5"" fill=""none"" />
    <polygon points = ""1106.31,540 1113.6605089341688,566.1309619231372 1098.9594910658311,566.1309619231372"" stroke=""white"" stroke-width=""3"" fill = ""white"" />
    
    </svg>
    </div>
        ",,,,,,,,,,,,stimulus,,,,,,,,,,,,,,,,,,19
66,html-keyboard-response,66,361323,0.0-66.0,567.0,arrowdown,,"
    <div style="" display: block;  position: relative;"">
    
    <svg width=1920 height=1080>
    <circle cx=897 cy=540 r=18.291673346196 stroke=""black"" stroke-width=""1"" fill=""black"" />
    <circle cx=1158.5719238462743 cy=540 r=26.130961923137143 stroke=""none"" stroke-width=""1.5"" fill=""none"" />
    <circle cx=1106.31 cy=592.2619238462743 r=26.130961923137143 stroke=""none"" stroke-width=""1.5"" fill=""none"" />
    <circle cx=1054.0480761537256 cy=540 r=26.130961923137143 stroke=""none"" stroke-width=""1.5"" fill=""none"" />
    <circle cx=1106.31 cy=487.73807615372573 r=26.130961923137143 stroke=""none"" stroke-width=""1.5"" fill=""none"" />
    <polygon points = ""1106.31,540 1113.6605089341688,566.1309619231372 1098.9594910658311,566.1309619231372"" stroke=""none"" stroke-width=""3"" fill = ""none"" />
    
    </svg>
    </div>
        ",,,,,,,,,,,,get_response,True,09Q4u177dNRydcTp,,,False,False,True,209.31,4.0,663.054,52.261923846274286,1.0,1.0,0.0,,,,19
67,html-keyboard-response,67,361830,0.0-67.0,,,,"
    <div style="" display: block;  position: relative;"">
    
    <svg width=1920 height=1080>
    <circle cx=897 cy=540 r=18.291673346196 stroke=""black"" stroke-width=""1"" fill=""black"" />
    <circle cx=1158.5719238462743 cy=540 r=26.130961923137143 stroke=""none"" stroke-width=""1.5"" fill=""none"" />
    <circle cx=1106.31 cy=592.2619238462743 r=26.130961923137143 stroke=""none"" stroke-width=""1.5"" fill=""none"" />
    <circle cx=1054.0480761537256 cy=540 r=26.130961923137143 stroke=""none"" stroke-width=""1.5"" fill=""none"" />
    <circle cx=1106.31 cy=487.73807615372573 r=26.130961923137143 stroke=""none"" stroke-width=""1.5"" fill=""none"" />
    <polygon points = ""1106.31,540 1113.6605089341688,566.1309619231372 1098.9594910658311,566.1309619231372"" stroke=""none"" stroke-width=""3"" fill = ""none"" />
    
    </svg>
    </div>
        ",,,,,,,,,,,,,,,,,,,,,,,,,,,,,,19
68,html-keyboard-response,68,361995,0.0-68.0,,,,"
    <div style="" display: block;  position: relative;"">
    <svg width=1920 height=1080>
    
    <circle cx=897 cy=540 r=18.291673346196 stroke=""black"" stroke-width=""1"" fill=""black"" />
    <circle cx=1106.31 cy=540 r=26.130961923137143 stroke=""black"" stroke-width=""1.5"" fill=""none"" />
    <circle cx=1158.5719238462743 cy=540 r=26.130961923137143 stroke=""black"" stroke-width=""1.5"" fill=""none"" />
    <circle cx=1106.31 cy=592.2619238462743 r=26.130961923137143 stroke=""black"" stroke-width=""1.5"" fill=""none"" />
    <circle cx=1054.0480761537256 cy=540 r=26.130961923137143 stroke=""black"" stroke-width=""1.5"" fill=""none"" />
    <circle cx=1106.31 cy=487.73807615372573 r=26.130961923137143 stroke=""black"" stroke-width=""1.5"" fill=""none"" />
    <polygon points = ""1106.31,540 1113.6605089341688,513.8690380768628 1098.9594910658311,513.8690380768628"" stroke=""white"" stroke-width=""3"" fill = ""white"" />
    
    </svg>
    </div>
        ",,,,,,,,,,,,stimulus,,,,,,,,,,,,,,,,,,19
69,html-keyboard-response,69,362403,0.0-69.0,407.09999999403954,arrowdown,,"
    <div style="" display: block;  position: relative;"">
    
    <svg width=1920 height=1080>
    <circle cx=897 cy=540 r=18.291673346196 stroke=""black"" stroke-width=""1"" fill=""black"" />
    <circle cx=1158.5719238462743 cy=540 r=26.130961923137143 stroke=""none"" stroke-width=""1.5"" fill=""none"" />
    <circle cx=1106.31 cy=592.2619238462743 r=26.130961923137143 stroke=""none"" stroke-width=""1.5"" fill=""none"" />
    <circle cx=1054.0480761537256 cy=540 r=26.130961923137143 stroke=""none"" stroke-width=""1.5"" fill=""none"" />
    <circle cx=1106.31 cy=487.73807615372573 r=26.130961923137143 stroke=""none"" stroke-width=""1.5"" fill=""none"" />
    <polygon points = ""1106.31,540 1113.6605089341688,513.8690380768628 1098.9594910658311,513.8690380768628"" stroke=""none"" stroke-width=""3"" fill = ""none"" />
    
    </svg>
    </div>
        ",,,,,,,,,,,,get_response,False,09Q4u177dNRydcTp,,,False,True,True,209.31,4.0,663.054,52.261923846274286,1.0,1.0,0.0,,,,19
70,html-keyboard-response,70,362918,0.0-70.0,,,,"
    <div style="" display: block;  position: relative;"">
    
    <svg width=1920 height=1080>
    <circle cx=897 cy=540 r=18.291673346196 stroke=""black"" stroke-width=""1"" fill=""black"" />
    <circle cx=1158.5719238462743 cy=540 r=26.130961923137143 stroke=""none"" stroke-width=""1.5"" fill=""none"" />
    <circle cx=1106.31 cy=592.2619238462743 r=26.130961923137143 stroke=""none"" stroke-width=""1.5"" fill=""none"" />
    <circle cx=1054.0480761537256 cy=540 r=26.130961923137143 stroke=""none"" stroke-width=""1.5"" fill=""none"" />
    <circle cx=1106.31 cy=487.73807615372573 r=26.130961923137143 stroke=""none"" stroke-width=""1.5"" fill=""none"" />
    <polygon points = ""1106.31,540 1113.6605089341688,513.8690380768628 1098.9594910658311,513.8690380768628"" stroke=""none"" stroke-width=""3"" fill = ""none"" />
    
    </svg>
    </div>
        ",,,,,,,,,,,,,,,,,,,,,,,,,,,,,,19
71,html-keyboard-response,71,363077,0.0-71.0,,,,"
    <div style="" display: block;  position: relative;"">
    <svg width=1920 height=1080>
    
    <circle cx=897 cy=540 r=18.291673346196 stroke=""black"" stroke-width=""1"" fill=""black"" />
    <circle cx=1106.31 cy=540 r=26.130961923137143 stroke=""black"" stroke-width=""1.5"" fill=""none"" />
    <circle cx=1174.2505010001564 cy=540 r=26.130961923137143 stroke=""black"" stroke-width=""1.5"" fill=""none"" />
    <circle cx=1106.31 cy=607.9405010001566 r=26.130961923137143 stroke=""black"" stroke-width=""1.5"" fill=""none"" />
    <circle cx=1038.3694989998435 cy=540 r=26.130961923137143 stroke=""black"" stroke-width=""1.5"" fill=""none"" />
    <circle cx=1106.31 cy=472.0594989998434 r=26.130961923137143 stroke=""black"" stroke-width=""1.5"" fill=""none"" />
    <polygon points = ""1106.31,540 1113.6605089341688,566.1309619231372 1098.9594910658311,566.1309619231372"" stroke=""white"" stroke-width=""3"" fill = ""white"" />
    
    </svg>
    </div>
        ",,,,,,,,,,,,stimulus,,,,,,,,,,,,,,,,,,19
72,html-keyboard-response,72,363355,0.0-72.0,277.6000000089407,arrowdown,,"
    <div style="" display: block;  position: relative;"">
    
    <svg width=1920 height=1080>
    <circle cx=897 cy=540 r=18.291673346196 stroke=""black"" stroke-width=""1"" fill=""black"" />
    <circle cx=1174.2505010001564 cy=540 r=26.130961923137143 stroke=""none"" stroke-width=""1.5"" fill=""none"" />
    <circle cx=1106.31 cy=607.9405010001566 r=26.130961923137143 stroke=""none"" stroke-width=""1.5"" fill=""none"" />
    <circle cx=1038.3694989998435 cy=540 r=26.130961923137143 stroke=""none"" stroke-width=""1.5"" fill=""none"" />
    <circle cx=1106.31 cy=472.0594989998434 r=26.130961923137143 stroke=""none"" stroke-width=""1.5"" fill=""none"" />
    <polygon points = ""1106.31,540 1113.6605089341688,566.1309619231372 1098.9594910658311,566.1309619231372"" stroke=""none"" stroke-width=""3"" fill = ""none"" />
    
    </svg>
    </div>
        ",,,,,,,,,,,,get_response,True,09Q4u177dNRydcTp,,,False,False,True,209.31,4.0,663.054,67.94050100015657,1.3,1.0,0.0,,,,19
73,html-keyboard-response,73,363869,0.0-73.0,,,,"
    <div style="" display: block;  position: relative;"">
    
    <svg width=1920 height=1080>
    <circle cx=897 cy=540 r=18.291673346196 stroke=""black"" stroke-width=""1"" fill=""black"" />
    <circle cx=1174.2505010001564 cy=540 r=26.130961923137143 stroke=""none"" stroke-width=""1.5"" fill=""none"" />
    <circle cx=1106.31 cy=607.9405010001566 r=26.130961923137143 stroke=""none"" stroke-width=""1.5"" fill=""none"" />
    <circle cx=1038.3694989998435 cy=540 r=26.130961923137143 stroke=""none"" stroke-width=""1.5"" fill=""none"" />
    <circle cx=1106.31 cy=472.0594989998434 r=26.130961923137143 stroke=""none"" stroke-width=""1.5"" fill=""none"" />
    <polygon points = ""1106.31,540 1113.6605089341688,566.1309619231372 1098.9594910658311,566.1309619231372"" stroke=""none"" stroke-width=""3"" fill = ""none"" />
    
    </svg>
    </div>
        ",,,,,,,,,,,,,,,,,,,,,,,,,,,,,,19
74,html-keyboard-response,74,364025,0.0-74.0,,,,"
    <div style="" display: block;  position: relative;"">
    <svg width=1920 height=1080>
    
    <circle cx=897 cy=540 r=18.291673346196 stroke=""black"" stroke-width=""1"" fill=""black"" />
    <circle cx=1106.31 cy=540 r=26.130961923137143 stroke=""black"" stroke-width=""1.5"" fill=""none"" />
    <circle cx=1174.2505010001564 cy=540 r=26.130961923137143 stroke=""black"" stroke-width=""1.5"" fill=""none"" />
    <circle cx=1106.31 cy=607.9405010001566 r=26.130961923137143 stroke=""black"" stroke-width=""1.5"" fill=""none"" />
    <circle cx=1038.3694989998435 cy=540 r=26.130961923137143 stroke=""black"" stroke-width=""1.5"" fill=""none"" />
    <circle cx=1106.31 cy=472.0594989998434 r=26.130961923137143 stroke=""black"" stroke-width=""1.5"" fill=""none"" />
    <polygon points = ""1106.31,540 1113.6605089341688,566.1309619231372 1098.9594910658311,566.1309619231372"" stroke=""white"" stroke-width=""3"" fill = ""white"" />
    
    </svg>
    </div>
        ",,,,,,,,,,,,stimulus,,,,,,,,,,,,,,,,,,19
75,html-keyboard-response,75,364355,0.0-75.0,329.5,arrowdown,,"
    <div style="" display: block;  position: relative;"">
    
    <svg width=1920 height=1080>
    <circle cx=897 cy=540 r=18.291673346196 stroke=""black"" stroke-width=""1"" fill=""black"" />
    <circle cx=1174.2505010001564 cy=540 r=26.130961923137143 stroke=""none"" stroke-width=""1.5"" fill=""none"" />
    <circle cx=1106.31 cy=607.9405010001566 r=26.130961923137143 stroke=""none"" stroke-width=""1.5"" fill=""none"" />
    <circle cx=1038.3694989998435 cy=540 r=26.130961923137143 stroke=""none"" stroke-width=""1.5"" fill=""none"" />
    <circle cx=1106.31 cy=472.0594989998434 r=26.130961923137143 stroke=""none"" stroke-width=""1.5"" fill=""none"" />
    <polygon points = ""1106.31,540 1113.6605089341688,566.1309619231372 1098.9594910658311,566.1309619231372"" stroke=""none"" stroke-width=""3"" fill = ""none"" />
    
    </svg>
    </div>
        ",,,,,,,,,,,,get_response,True,09Q4u177dNRydcTp,,,False,False,True,209.31,4.0,663.054,67.94050100015657,1.3,1.0,0.0,,,,19
76,html-keyboard-response,76,364869,0.0-76.0,,,,"
    <div style="" display: block;  position: relative;"">
    
    <svg width=1920 height=1080>
    <circle cx=897 cy=540 r=18.291673346196 stroke=""black"" stroke-width=""1"" fill=""black"" />
    <circle cx=1174.2505010001564 cy=540 r=26.130961923137143 stroke=""none"" stroke-width=""1.5"" fill=""none"" />
    <circle cx=1106.31 cy=607.9405010001566 r=26.130961923137143 stroke=""none"" stroke-width=""1.5"" fill=""none"" />
    <circle cx=1038.3694989998435 cy=540 r=26.130961923137143 stroke=""none"" stroke-width=""1.5"" fill=""none"" />
    <circle cx=1106.31 cy=472.0594989998434 r=26.130961923137143 stroke=""none"" stroke-width=""1.5"" fill=""none"" />
    <polygon points = ""1106.31,540 1113.6605089341688,566.1309619231372 1098.9594910658311,566.1309619231372"" stroke=""none"" stroke-width=""3"" fill = ""none"" />
    
    </svg>
    </div>
        ",,,,,,,,,,,,,,,,,,,,,,,,,,,,,,19
77,html-keyboard-response,77,365026,0.0-77.0,,,,"
    <div style="" display: block;  position: relative;"">
    <svg width=1920 height=1080>
    
    <circle cx=897 cy=540 r=18.291673346196 stroke=""black"" stroke-width=""1"" fill=""black"" />
    <circle cx=687.69 cy=540 r=26.130961923137143 stroke=""black"" stroke-width=""1.5"" fill=""none"" />
    <circle cx=755.6305010001566 cy=540 r=26.130961923137143 stroke=""black"" stroke-width=""1.5"" fill=""none"" />
    <circle cx=687.69 cy=607.9405010001566 r=26.130961923137143 stroke=""black"" stroke-width=""1.5"" fill=""none"" />
    <circle cx=619.7494989998435 cy=540 r=26.130961923137143 stroke=""black"" stroke-width=""1.5"" fill=""none"" />
    <circle cx=687.69 cy=472.0594989998434 r=26.130961923137143 stroke=""black"" stroke-width=""1.5"" fill=""none"" />
    <polygon points = ""687.69,540 695.0405089341689,513.8690380768628 680.3394910658312,513.8690380768628"" stroke=""white"" stroke-width=""3"" fill = ""white"" />
    
    </svg>
    </div>
        ",,,,,,,,,,,,stimulus,,,,,,,,,,,,,,,,,,19
78,html-keyboard-response,78,365363,0.0-78.0,335.69999998807907,arrowup,,"
    <div style="" display: block;  position: relative;"">
    
    <svg width=1920 height=1080>
    <circle cx=897 cy=540 r=18.291673346196 stroke=""black"" stroke-width=""1"" fill=""black"" />
    <circle cx=755.6305010001566 cy=540 r=26.130961923137143 stroke=""none"" stroke-width=""1.5"" fill=""none"" />
    <circle cx=687.69 cy=607.9405010001566 r=26.130961923137143 stroke=""none"" stroke-width=""1.5"" fill=""none"" />
    <circle cx=619.7494989998435 cy=540 r=26.130961923137143 stroke=""none"" stroke-width=""1.5"" fill=""none"" />
    <circle cx=687.69 cy=472.0594989998434 r=26.130961923137143 stroke=""none"" stroke-width=""1.5"" fill=""none"" />
    <polygon points = ""687.69,540 695.0405089341689,513.8690380768628 680.3394910658312,513.8690380768628"" stroke=""none"" stroke-width=""3"" fill = ""none"" />
    
    </svg>
    </div>
        ",,,,,,,,,,,,get_response,True,09Q4u177dNRydcTp,,,True,True,True,209.31,4.0,663.054,67.94050100015657,1.3,1.0,0.0,,,,19
79,html-keyboard-response,79,365869,0.0-79.0,,,,"
    <div style="" display: block;  position: relative;"">
    
    <svg width=1920 height=1080>
    <circle cx=897 cy=540 r=18.291673346196 stroke=""black"" stroke-width=""1"" fill=""black"" />
    <circle cx=755.6305010001566 cy=540 r=26.130961923137143 stroke=""none"" stroke-width=""1.5"" fill=""none"" />
    <circle cx=687.69 cy=607.9405010001566 r=26.130961923137143 stroke=""none"" stroke-width=""1.5"" fill=""none"" />
    <circle cx=619.7494989998435 cy=540 r=26.130961923137143 stroke=""none"" stroke-width=""1.5"" fill=""none"" />
    <circle cx=687.69 cy=472.0594989998434 r=26.130961923137143 stroke=""none"" stroke-width=""1.5"" fill=""none"" />
    <polygon points = ""687.69,540 695.0405089341689,513.8690380768628 680.3394910658312,513.8690380768628"" stroke=""none"" stroke-width=""3"" fill = ""none"" />
    
    </svg>
    </div>
        ",,,,,,,,,,,,,,,,,,,,,,,,,,,,,,19
80,html-keyboard-response,80,366026,0.0-80.0,,,,"
    <div style="" display: block;  position: relative;"">
    <svg width=1920 height=1080>
    
    <circle cx=897 cy=540 r=18.291673346196 stroke=""black"" stroke-width=""1"" fill=""black"" />
    <circle cx=687.69 cy=540 r=26.130961923137143 stroke=""black"" stroke-width=""1.5"" fill=""none"" />
    <circle cx=749.4540918183242 cy=540 r=26.130961923137143 stroke=""black"" stroke-width=""1.5"" fill=""none"" />
    <circle cx=687.69 cy=601.7640918183241 r=26.130961923137143 stroke=""black"" stroke-width=""1.5"" fill=""none"" />
    <circle cx=625.9259081816759 cy=540 r=26.130961923137143 stroke=""black"" stroke-width=""1.5"" fill=""none"" />
    <circle cx=687.69 cy=478.2359081816758 r=26.130961923137143 stroke=""black"" stroke-width=""1.5"" fill=""none"" />
    <polygon points = ""687.69,540 695.0405089341689,566.1309619231372 680.3394910658312,566.1309619231372"" stroke=""white"" stroke-width=""3"" fill = ""white"" />
    
    </svg>
    </div>
        ",,,,,,,,,,,,stimulus,,,,,,,,,,,,,,,,,,19
81,html-keyboard-response,81,366307,0.0-81.0,280.0,arrowup,,"
    <div style="" display: block;  position: relative;"">
    
    <svg width=1920 height=1080>
    <circle cx=897 cy=540 r=18.291673346196 stroke=""black"" stroke-width=""1"" fill=""black"" />
    <circle cx=749.4540918183242 cy=540 r=26.130961923137143 stroke=""none"" stroke-width=""1.5"" fill=""none"" />
    <circle cx=687.69 cy=601.7640918183241 r=26.130961923137143 stroke=""none"" stroke-width=""1.5"" fill=""none"" />
    <circle cx=625.9259081816759 cy=540 r=26.130961923137143 stroke=""none"" stroke-width=""1.5"" fill=""none"" />
    <circle cx=687.69 cy=478.2359081816758 r=26.130961923137143 stroke=""none"" stroke-width=""1.5"" fill=""none"" />
    <polygon points = ""687.69,540 695.0405089341689,566.1309619231372 680.3394910658312,566.1309619231372"" stroke=""none"" stroke-width=""3"" fill = ""none"" />
    
    </svg>
    </div>
        ",,,,,,,,,,,,get_response,False,09Q4u177dNRydcTp,,,True,False,True,209.31,4.0,663.054,61.76409181832416,1.18,1.0,0.0,,,,19
82,html-keyboard-response,82,366819,0.0-82.0,,,,"
    <div style="" display: block;  position: relative;"">
    
    <svg width=1920 height=1080>
    <circle cx=897 cy=540 r=18.291673346196 stroke=""black"" stroke-width=""1"" fill=""black"" />
    <circle cx=749.4540918183242 cy=540 r=26.130961923137143 stroke=""none"" stroke-width=""1.5"" fill=""none"" />
    <circle cx=687.69 cy=601.7640918183241 r=26.130961923137143 stroke=""none"" stroke-width=""1.5"" fill=""none"" />
    <circle cx=625.9259081816759 cy=540 r=26.130961923137143 stroke=""none"" stroke-width=""1.5"" fill=""none"" />
    <circle cx=687.69 cy=478.2359081816758 r=26.130961923137143 stroke=""none"" stroke-width=""1.5"" fill=""none"" />
    <polygon points = ""687.69,540 695.0405089341689,566.1309619231372 680.3394910658312,566.1309619231372"" stroke=""none"" stroke-width=""3"" fill = ""none"" />
    
    </svg>
    </div>
        ",,,,,,,,,,,,,,,,,,,,,,,,,,,,,,19
83,html-keyboard-response,83,366977,0.0-83.0,,,,"
    <div style="" display: block;  position: relative;"">
    <svg width=1920 height=1080>
    
    <circle cx=897 cy=540 r=18.291673346196 stroke=""black"" stroke-width=""1"" fill=""black"" />
    <circle cx=1106.31 cy=540 r=26.130961923137143 stroke=""black"" stroke-width=""1.5"" fill=""none"" />
    <circle cx=1186.6033193638214 cy=540 r=26.130961923137143 stroke=""black"" stroke-width=""1.5"" fill=""none"" />
    <circle cx=1106.31 cy=620.2933193638214 r=26.130961923137143 stroke=""black"" stroke-width=""1.5"" fill=""none"" />
    <circle cx=1026.0166806361785 cy=540 r=26.130961923137143 stroke=""black"" stroke-width=""1.5"" fill=""none"" />
    <circle cx=1106.31 cy=459.7066806361786 r=26.130961923137143 stroke=""black"" stroke-width=""1.5"" fill=""none"" />
    <polygon points = ""1106.31,540 1113.6605089341688,513.8690380768628 1098.9594910658311,513.8690380768628"" stroke=""white"" stroke-width=""3"" fill = ""white"" />
    
    </svg>
    </div>
        ",,,,,,,,,,,,stimulus,,,,,,,,,,,,,,,,,,19
84,html-keyboard-response,84,367395,0.0-84.0,417.40000000596046,arrowup,,"
    <div style="" display: block;  position: relative;"">
    
    <svg width=1920 height=1080>
    <circle cx=897 cy=540 r=18.291673346196 stroke=""black"" stroke-width=""1"" fill=""black"" />
    <circle cx=1186.6033193638214 cy=540 r=26.130961923137143 stroke=""none"" stroke-width=""1.5"" fill=""none"" />
    <circle cx=1106.31 cy=620.2933193638214 r=26.130961923137143 stroke=""none"" stroke-width=""1.5"" fill=""none"" />
    <circle cx=1026.0166806361785 cy=540 r=26.130961923137143 stroke=""none"" stroke-width=""1.5"" fill=""none"" />
    <circle cx=1106.31 cy=459.7066806361786 r=26.130961923137143 stroke=""none"" stroke-width=""1.5"" fill=""none"" />
    <polygon points = ""1106.31,540 1113.6605089341688,513.8690380768628 1098.9594910658311,513.8690380768628"" stroke=""none"" stroke-width=""3"" fill = ""none"" />
    
    </svg>
    </div>
        ",,,,,,,,,,,,get_response,True,09Q4u177dNRydcTp,,,False,True,True,209.31,4.0,663.054,80.2933193638214,1.53,1.0,0.0,,,,19
85,html-keyboard-response,85,367901,0.0-85.0,,,,"
    <div style="" display: block;  position: relative;"">
    
    <svg width=1920 height=1080>
    <circle cx=897 cy=540 r=18.291673346196 stroke=""black"" stroke-width=""1"" fill=""black"" />
    <circle cx=1186.6033193638214 cy=540 r=26.130961923137143 stroke=""none"" stroke-width=""1.5"" fill=""none"" />
    <circle cx=1106.31 cy=620.2933193638214 r=26.130961923137143 stroke=""none"" stroke-width=""1.5"" fill=""none"" />
    <circle cx=1026.0166806361785 cy=540 r=26.130961923137143 stroke=""none"" stroke-width=""1.5"" fill=""none"" />
    <circle cx=1106.31 cy=459.7066806361786 r=26.130961923137143 stroke=""none"" stroke-width=""1.5"" fill=""none"" />
    <polygon points = ""1106.31,540 1113.6605089341688,513.8690380768628 1098.9594910658311,513.8690380768628"" stroke=""none"" stroke-width=""3"" fill = ""none"" />
    
    </svg>
    </div>
        ",,,,,,,,,,,,,,,,,,,,,,,,,,,,,,19
86,html-keyboard-response,86,368060,0.0-86.0,,,,"
    <div style="" display: block;  position: relative;"">
    <svg width=1920 height=1080>
    
    <circle cx=897 cy=540 r=18.291673346196 stroke=""black"" stroke-width=""1"" fill=""black"" />
    <circle cx=687.69 cy=540 r=26.130961923137143 stroke=""black"" stroke-width=""1.5"" fill=""none"" />
    <circle cx=767.9833193638215 cy=540 r=26.130961923137143 stroke=""black"" stroke-width=""1.5"" fill=""none"" />
    <circle cx=687.69 cy=620.2933193638214 r=26.130961923137143 stroke=""black"" stroke-width=""1.5"" fill=""none"" />
    <circle cx=607.3966806361786 cy=540 r=26.130961923137143 stroke=""black"" stroke-width=""1.5"" fill=""none"" />
    <circle cx=687.69 cy=459.7066806361786 r=26.130961923137143 stroke=""black"" stroke-width=""1.5"" fill=""none"" />
    <polygon points = ""687.69,540 695.0405089341689,513.8690380768628 680.3394910658312,513.8690380768628"" stroke=""white"" stroke-width=""3"" fill = ""white"" />
    
    </svg>
    </div>
        ",,,,,,,,,,,,stimulus,,,,,,,,,,,,,,,,,,19
87,html-keyboard-response,87,368403,0.0-87.0,342.40000000596046,arrowup,,"
    <div style="" display: block;  position: relative;"">
    
    <svg width=1920 height=1080>
    <circle cx=897 cy=540 r=18.291673346196 stroke=""black"" stroke-width=""1"" fill=""black"" />
    <circle cx=767.9833193638215 cy=540 r=26.130961923137143 stroke=""none"" stroke-width=""1.5"" fill=""none"" />
    <circle cx=687.69 cy=620.2933193638214 r=26.130961923137143 stroke=""none"" stroke-width=""1.5"" fill=""none"" />
    <circle cx=607.3966806361786 cy=540 r=26.130961923137143 stroke=""none"" stroke-width=""1.5"" fill=""none"" />
    <circle cx=687.69 cy=459.7066806361786 r=26.130961923137143 stroke=""none"" stroke-width=""1.5"" fill=""none"" />
    <polygon points = ""687.69,540 695.0405089341689,513.8690380768628 680.3394910658312,513.8690380768628"" stroke=""none"" stroke-width=""3"" fill = ""none"" />
    
    </svg>
    </div>
        ",,,,,,,,,,,,get_response,True,09Q4u177dNRydcTp,,,True,True,True,209.31,4.0,663.054,80.2933193638214,1.53,1.0,0.0,,,,19
88,html-keyboard-response,88,368919,0.0-88.0,,,,"
    <div style="" display: block;  position: relative;"">
    
    <svg width=1920 height=1080>
    <circle cx=897 cy=540 r=18.291673346196 stroke=""black"" stroke-width=""1"" fill=""black"" />
    <circle cx=767.9833193638215 cy=540 r=26.130961923137143 stroke=""none"" stroke-width=""1.5"" fill=""none"" />
    <circle cx=687.69 cy=620.2933193638214 r=26.130961923137143 stroke=""none"" stroke-width=""1.5"" fill=""none"" />
    <circle cx=607.3966806361786 cy=540 r=26.130961923137143 stroke=""none"" stroke-width=""1.5"" fill=""none"" />
    <circle cx=687.69 cy=459.7066806361786 r=26.130961923137143 stroke=""none"" stroke-width=""1.5"" fill=""none"" />
    <polygon points = ""687.69,540 695.0405089341689,513.8690380768628 680.3394910658312,513.8690380768628"" stroke=""none"" stroke-width=""3"" fill = ""none"" />
    
    </svg>
    </div>
        ",,,,,,,,,,,,,,,,,,,,,,,,,,,,,,19
89,html-keyboard-response,89,369072,0.0-89.0,,,,"
    <div style="" display: block;  position: relative;"">
    <svg width=1920 height=1080>
    
    <circle cx=897 cy=540 r=18.291673346196 stroke=""black"" stroke-width=""1"" fill=""black"" />
    <circle cx=687.69 cy=540 r=26.130961923137143 stroke=""black"" stroke-width=""1.5"" fill=""none"" />
    <circle cx=767.9833193638215 cy=540 r=26.130961923137143 stroke=""black"" stroke-width=""1.5"" fill=""none"" />
    <circle cx=687.69 cy=620.2933193638214 r=26.130961923137143 stroke=""black"" stroke-width=""1.5"" fill=""none"" />
    <circle cx=607.3966806361786 cy=540 r=26.130961923137143 stroke=""black"" stroke-width=""1.5"" fill=""none"" />
    <circle cx=687.69 cy=459.7066806361786 r=26.130961923137143 stroke=""black"" stroke-width=""1.5"" fill=""none"" />
    <polygon points = ""687.69,540 695.0405089341689,566.1309619231372 680.3394910658312,566.1309619231372"" stroke=""white"" stroke-width=""3"" fill = ""white"" />
    
    </svg>
    </div>
        ",,,,,,,,,,,,stimulus,,,,,,,,,,,,,,,,,,19
90,html-keyboard-response,90,369427,0.0-90.0,354.0,arrowdown,,"
    <div style="" display: block;  position: relative;"">
    
    <svg width=1920 height=1080>
    <circle cx=897 cy=540 r=18.291673346196 stroke=""black"" stroke-width=""1"" fill=""black"" />
    <circle cx=767.9833193638215 cy=540 r=26.130961923137143 stroke=""none"" stroke-width=""1.5"" fill=""none"" />
    <circle cx=687.69 cy=620.2933193638214 r=26.130961923137143 stroke=""none"" stroke-width=""1.5"" fill=""none"" />
    <circle cx=607.3966806361786 cy=540 r=26.130961923137143 stroke=""none"" stroke-width=""1.5"" fill=""none"" />
    <circle cx=687.69 cy=459.7066806361786 r=26.130961923137143 stroke=""none"" stroke-width=""1.5"" fill=""none"" />
    <polygon points = ""687.69,540 695.0405089341689,566.1309619231372 680.3394910658312,566.1309619231372"" stroke=""none"" stroke-width=""3"" fill = ""none"" />
    
    </svg>
    </div>
        ",,,,,,,,,,,,get_response,True,09Q4u177dNRydcTp,,,True,False,True,209.31,4.0,663.054,80.2933193638214,1.53,1.0,0.0,,,,19
91,html-keyboard-response,91,369936,0.0-91.0,,,,"
    <div style="" display: block;  position: relative;"">
    
    <svg width=1920 height=1080>
    <circle cx=897 cy=540 r=18.291673346196 stroke=""black"" stroke-width=""1"" fill=""black"" />
    <circle cx=767.9833193638215 cy=540 r=26.130961923137143 stroke=""none"" stroke-width=""1.5"" fill=""none"" />
    <circle cx=687.69 cy=620.2933193638214 r=26.130961923137143 stroke=""none"" stroke-width=""1.5"" fill=""none"" />
    <circle cx=607.3966806361786 cy=540 r=26.130961923137143 stroke=""none"" stroke-width=""1.5"" fill=""none"" />
    <circle cx=687.69 cy=459.7066806361786 r=26.130961923137143 stroke=""none"" stroke-width=""1.5"" fill=""none"" />
    <polygon points = ""687.69,540 695.0405089341689,566.1309619231372 680.3394910658312,566.1309619231372"" stroke=""none"" stroke-width=""3"" fill = ""none"" />
    
    </svg>
    </div>
        ",,,,,,,,,,,,,,,,,,,,,,,,,,,,,,19
92,html-keyboard-response,92,370094,0.0-92.0,,,,"
    <div style="" display: block;  position: relative;"">
    <svg width=1920 height=1080>
    
    <circle cx=897 cy=540 r=18.291673346196 stroke=""black"" stroke-width=""1"" fill=""black"" />
    <circle cx=1106.31 cy=540 r=26.130961923137143 stroke=""black"" stroke-width=""1.5"" fill=""none"" />
    <circle cx=1179.303926694383 cy=540 r=26.130961923137143 stroke=""black"" stroke-width=""1.5"" fill=""none"" />
    <circle cx=1106.31 cy=612.993926694383 r=26.130961923137143 stroke=""black"" stroke-width=""1.5"" fill=""none"" />
    <circle cx=1033.3160733056168 cy=540 r=26.130961923137143 stroke=""black"" stroke-width=""1.5"" fill=""none"" />
    <circle cx=1106.31 cy=467.00607330561695 r=26.130961923137143 stroke=""black"" stroke-width=""1.5"" fill=""none"" />
    <polygon points = ""1106.31,540 1113.6605089341688,566.1309619231372 1098.9594910658311,566.1309619231372"" stroke=""white"" stroke-width=""3"" fill = ""white"" />
    
    </svg>
    </div>
        ",,,,,,,,,,,,stimulus,,,,,,,,,,,,,,,,,,19
93,html-keyboard-response,93,370427,0.0-93.0,332.59999999403954,arrowdown,,"
    <div style="" display: block;  position: relative;"">
    
    <svg width=1920 height=1080>
    <circle cx=897 cy=540 r=18.291673346196 stroke=""black"" stroke-width=""1"" fill=""black"" />
    <circle cx=1179.303926694383 cy=540 r=26.130961923137143 stroke=""none"" stroke-width=""1.5"" fill=""none"" />
    <circle cx=1106.31 cy=612.993926694383 r=26.130961923137143 stroke=""none"" stroke-width=""1.5"" fill=""none"" />
    <circle cx=1033.3160733056168 cy=540 r=26.130961923137143 stroke=""none"" stroke-width=""1.5"" fill=""none"" />
    <circle cx=1106.31 cy=467.00607330561695 r=26.130961923137143 stroke=""none"" stroke-width=""1.5"" fill=""none"" />
    <polygon points = ""1106.31,540 1113.6605089341688,566.1309619231372 1098.9594910658311,566.1309619231372"" stroke=""none"" stroke-width=""3"" fill = ""none"" />
    
    </svg>
    </div>
        ",,,,,,,,,,,,get_response,True,09Q4u177dNRydcTp,,,False,False,True,209.31,4.0,663.054,72.99392669438308,1.39,1.0,0.0,,,,19
94,html-keyboard-response,94,370936,0.0-94.0,,,,"
    <div style="" display: block;  position: relative;"">
    
    <svg width=1920 height=1080>
    <circle cx=897 cy=540 r=18.291673346196 stroke=""black"" stroke-width=""1"" fill=""black"" />
    <circle cx=1179.303926694383 cy=540 r=26.130961923137143 stroke=""none"" stroke-width=""1.5"" fill=""none"" />
    <circle cx=1106.31 cy=612.993926694383 r=26.130961923137143 stroke=""none"" stroke-width=""1.5"" fill=""none"" />
    <circle cx=1033.3160733056168 cy=540 r=26.130961923137143 stroke=""none"" stroke-width=""1.5"" fill=""none"" />
    <circle cx=1106.31 cy=467.00607330561695 r=26.130961923137143 stroke=""none"" stroke-width=""1.5"" fill=""none"" />
    <polygon points = ""1106.31,540 1113.6605089341688,566.1309619231372 1098.9594910658311,566.1309619231372"" stroke=""none"" stroke-width=""3"" fill = ""none"" />
    
    </svg>
    </div>
        ",,,,,,,,,,,,,,,,,,,,,,,,,,,,,,19
95,html-keyboard-response,95,371093,0.0-95.0,,,,"
    <div style="" display: block;  position: relative;"">
    <svg width=1920 height=1080>
    
    <circle cx=897 cy=540 r=18.291673346196 stroke=""black"" stroke-width=""1"" fill=""black"" />
    <circle cx=687.69 cy=540 r=26.130961923137143 stroke=""black"" stroke-width=""1.5"" fill=""none"" />
    <circle cx=754.0481151767119 cy=540 r=26.130961923137143 stroke=""black"" stroke-width=""1.5"" fill=""none"" />
    <circle cx=687.69 cy=606.3581151767119 r=26.130961923137143 stroke=""black"" stroke-width=""1.5"" fill=""none"" />
    <circle cx=621.3318848232882 cy=540 r=26.130961923137143 stroke=""black"" stroke-width=""1.5"" fill=""none"" />
    <circle cx=687.69 cy=473.64188482328814 r=26.130961923137143 stroke=""black"" stroke-width=""1.5"" fill=""none"" />
    <polygon points = ""687.69,540 695.0405089341689,513.8690380768628 680.3394910658312,513.8690380768628"" stroke=""white"" stroke-width=""3"" fill = ""white"" />
    
    </svg>
    </div>
        ",,,,,,,,,,,,stimulus,,,,,,,,,,,,,,,,,,19
96,html-keyboard-response,96,371427,0.0-96.0,333.1000000089407,arrowup,,"
    <div style="" display: block;  position: relative;"">
    
    <svg width=1920 height=1080>
    <circle cx=897 cy=540 r=18.291673346196 stroke=""black"" stroke-width=""1"" fill=""black"" />
    <circle cx=754.0481151767119 cy=540 r=26.130961923137143 stroke=""none"" stroke-width=""1.5"" fill=""none"" />
    <circle cx=687.69 cy=606.3581151767119 r=26.130961923137143 stroke=""none"" stroke-width=""1.5"" fill=""none"" />
    <circle cx=621.3318848232882 cy=540 r=26.130961923137143 stroke=""none"" stroke-width=""1.5"" fill=""none"" />
    <circle cx=687.69 cy=473.64188482328814 r=26.130961923137143 stroke=""none"" stroke-width=""1.5"" fill=""none"" />
    <polygon points = ""687.69,540 695.0405089341689,513.8690380768628 680.3394910658312,513.8690380768628"" stroke=""none"" stroke-width=""3"" fill = ""none"" />
    
    </svg>
    </div>
        ",,,,,,,,,,,,get_response,True,09Q4u177dNRydcTp,,,True,True,True,209.31,4.0,663.054,66.35811517671188,1.27,1.0,0.0,,,,19
97,html-keyboard-response,97,371936,0.0-97.0,,,,"
    <div style="" display: block;  position: relative;"">
    
    <svg width=1920 height=1080>
    <circle cx=897 cy=540 r=18.291673346196 stroke=""black"" stroke-width=""1"" fill=""black"" />
    <circle cx=754.0481151767119 cy=540 r=26.130961923137143 stroke=""none"" stroke-width=""1.5"" fill=""none"" />
    <circle cx=687.69 cy=606.3581151767119 r=26.130961923137143 stroke=""none"" stroke-width=""1.5"" fill=""none"" />
    <circle cx=621.3318848232882 cy=540 r=26.130961923137143 stroke=""none"" stroke-width=""1.5"" fill=""none"" />
    <circle cx=687.69 cy=473.64188482328814 r=26.130961923137143 stroke=""none"" stroke-width=""1.5"" fill=""none"" />
    <polygon points = ""687.69,540 695.0405089341689,513.8690380768628 680.3394910658312,513.8690380768628"" stroke=""none"" stroke-width=""3"" fill = ""none"" />
    
    </svg>
    </div>
        ",,,,,,,,,,,,,,,,,,,,,,,,,,,,,,19
98,html-keyboard-response,98,372094,0.0-98.0,,,,"
    <div style="" display: block;  position: relative;"">
    <svg width=1920 height=1080>
    
    <circle cx=897 cy=540 r=18.291673346196 stroke=""black"" stroke-width=""1"" fill=""black"" />
    <circle cx=1106.31 cy=540 r=26.130961923137143 stroke=""black"" stroke-width=""1.5"" fill=""none"" />
    <circle cx=1166.6355592515563 cy=540 r=26.130961923137143 stroke=""black"" stroke-width=""1.5"" fill=""none"" />
    <circle cx=1106.31 cy=600.3255592515562 r=26.130961923137143 stroke=""black"" stroke-width=""1.5"" fill=""none"" />
    <circle cx=1045.9844407484436 cy=540 r=26.130961923137143 stroke=""black"" stroke-width=""1.5"" fill=""none"" />
    <circle cx=1106.31 cy=479.67444074844377 r=26.130961923137143 stroke=""black"" stroke-width=""1.5"" fill=""none"" />
    <polygon points = ""1106.31,540 1113.6605089341688,513.8690380768628 1098.9594910658311,513.8690380768628"" stroke=""white"" stroke-width=""3"" fill = ""white"" />
    
    </svg>
    </div>
        ",,,,,,,,,,,,stimulus,,,,,,,,,,,,,,,,,,19
99,html-keyboard-response,99,372331,0.0-99.0,236.29999999701977,arrowdown,,"
    <div style="" display: block;  position: relative;"">
    
    <svg width=1920 height=1080>
    <circle cx=897 cy=540 r=18.291673346196 stroke=""black"" stroke-width=""1"" fill=""black"" />
    <circle cx=1166.6355592515563 cy=540 r=26.130961923137143 stroke=""none"" stroke-width=""1.5"" fill=""none"" />
    <circle cx=1106.31 cy=600.3255592515562 r=26.130961923137143 stroke=""none"" stroke-width=""1.5"" fill=""none"" />
    <circle cx=1045.9844407484436 cy=540 r=26.130961923137143 stroke=""none"" stroke-width=""1.5"" fill=""none"" />
    <circle cx=1106.31 cy=479.67444074844377 r=26.130961923137143 stroke=""none"" stroke-width=""1.5"" fill=""none"" />
    <polygon points = ""1106.31,540 1113.6605089341688,513.8690380768628 1098.9594910658311,513.8690380768628"" stroke=""none"" stroke-width=""3"" fill = ""none"" />
    
    </svg>
    </div>
        ",,,,,,,,,,,,get_response,False,09Q4u177dNRydcTp,,,False,True,True,209.31,4.0,663.054,60.32555925155625,1.15,1.0,0.88,,,,19
100,html-keyboard-response,100,379299,0.0-100.0,6967.399999991059,arrowdown,,"<div id=""continue""> 
<h2 class=""bolded-blue"">Great Job! You have completed half of the study!</h2>
<p>Before you start the session 2, let&#39;s measure your viewing distance again using the virtual chinrest.</p>
<p>Please press the <b>down</b> arrow key to continue. </p>
</div>",,,,,,,,,,,,,,,,,,,,,,,,,,,,,,19
101,virtual-chinrest,101,445027,0.0-101.0,65727.20000000298,,,,,,85.6,53.98,444.0,5.19,651.4,7.518389909319945,59.05519737006574,32.51195636462679,18.28797545510257,,,,,,,,,,,,,,,,,,,19
102,html-keyboard-response,102,458268,0.0-102.0,13238.79999999702,arrowdown,,"<div><h2 class=""bolded-blue"">Alright, let&#39;s do the peripheral vision test one more time!</h2>
<p>Please do not move around and keep your eye on the <b>black dot</b> all the time. Click <b>up</b> or <b>down</b> to indicate the opening
    of the center circle. The test is difficult for everyone, so if you are not sure, just take your best guess! </p> 
    <p>Now, press the <b>down</b> arrow key to start the task when you are ready!</p></div>",,,,,,,,,,,,,,,,,,,,,,,,,,,,,,19
103,html-keyboard-response,103,458773,0.0-103.0,,,,"
    <div style="" display: block;  position: relative;"">
    
    <svg width=1920 height=1080>
    <circle cx=897 cy=540 r=20.58065463956357 stroke=""black"" stroke-width=""1"" fill=""black"" />
    <circle cx=732.3255592515562 cy=540 r=29.40093519937653 stroke=""none"" stroke-width=""1.5"" fill=""none"" />
    <circle cx=672 cy=600.3255592515562 r=29.40093519937653 stroke=""none"" stroke-width=""1.5"" fill=""none"" />
    <circle cx=611.6744407484438 cy=540 r=29.40093519937653 stroke=""none"" stroke-width=""1.5"" fill=""none"" />
    <circle cx=672 cy=479.67444074844377 r=29.40093519937653 stroke=""none"" stroke-width=""1.5"" fill=""none"" />
    <polygon points = ""672,540 680.2703360669086,569.4009351993765 663.7296639330914,569.4009351993765"" stroke=""none"" stroke-width=""3"" fill = ""none"" />
    
    </svg>
    </div>
        ",,,,,,,,,,,,,,,,,,,,,,,,,,,,,,19
104,html-keyboard-response,104,458927,0.0-104.0,,,,"
    <div style="" display: block;  position: relative;"">
    <svg width=1920 height=1080>
    
    <circle cx=897 cy=540 r=20.58065463956357 stroke=""black"" stroke-width=""1"" fill=""black"" />
    <circle cx=1122 cy=540 r=29.40093519937653 stroke=""black"" stroke-width=""1.5"" fill=""none"" />
    <circle cx=1268.25 cy=540 r=29.40093519937653 stroke=""black"" stroke-width=""1.5"" fill=""none"" />
    <circle cx=1122 cy=686.25 r=29.40093519937653 stroke=""black"" stroke-width=""1.5"" fill=""none"" />
    <circle cx=975.75 cy=540 r=29.40093519937653 stroke=""black"" stroke-width=""1.5"" fill=""none"" />
    <circle cx=1122 cy=393.75 r=29.40093519937653 stroke=""black"" stroke-width=""1.5"" fill=""none"" />
    <polygon points = ""1122,540 1130.2703360669086,569.4009351993765 1113.7296639330914,569.4009351993765"" stroke=""white"" stroke-width=""3"" fill = ""white"" />
    
    </svg>
    </div>
        ",,,,,,,,,,,,stimulus,,,,,,,,,,,,,,,,,,19
105,html-keyboard-response,105,459203,0.0-105.0,274.6000000089407,arrowdown,,"
    <div style="" display: block;  position: relative;"">
    
    <svg width=1920 height=1080>
    <circle cx=897 cy=540 r=20.58065463956357 stroke=""black"" stroke-width=""1"" fill=""black"" />
    <circle cx=1268.25 cy=540 r=29.40093519937653 stroke=""none"" stroke-width=""1.5"" fill=""none"" />
    <circle cx=1122 cy=686.25 r=29.40093519937653 stroke=""none"" stroke-width=""1.5"" fill=""none"" />
    <circle cx=975.75 cy=540 r=29.40093519937653 stroke=""none"" stroke-width=""1.5"" fill=""none"" />
