"trial_type","trial_index","time_elapsed","internal_node_id","rt","response","success","stimulus","start_time","start_time_unix","item_width_mm","item_height_mm","item_width_px","px2mm","view_dist_mm","item_width_deg","px2deg","win_width_deg","win_height_deg","trialType","correct","participantID","criticalSpacing","criticalSpacing_deg","isLeft","isUp","isEccen4","eccentricity","eccentricity_deg","viewingDistanceMean","critical_spacing","critical_spacing_deg","crowding_session","correctRate","viewDistance_1","viewDistance_2","viewDistance_3"
"pavlovia","0","2","0.0-0.0","","","","","","","","","","","","","","","","","","","","","","","","","","","","","","","","",""
"survey-text","1","4541","0.0-1.0","4520.4000000059605","{""Q0"":""""}","","","","","","","","","","","","","","","","","","","","","","","","","","","","","","",""
"fullscreen","2","7298","0.0-2.0","","","true","","","","","","","","","","","","","","","","","","","","","","","","","","","","","",""
"html-keyboard-response","3","10543","0.0-3.0","3244.2000000029802"," ","","<h1>Consent Form</h1>
       <p>By answering the following questions, you are participating in a study being performed by cognitive scientists in the Stanford Department of Psychology. If you have questions about this research, please contact us at stanfordpsych251@gmail.com. You must be at least 18 years old to participate. Your participation in this research is voluntary. You may decline to answer any or all of the following questions. You may decline further participation by closing the window, at any time, without adverse consequences. Your anonymity is assured; the researchers who have requested your participation will not receive any personal information about you.</p>
       <p>Press <b>any key</b> to start the experiment!</p>","","","","","","","","","","","","","","","","","","","","","","","","","","","","",""
"html-keyboard-response","4","17535","0.0-4.0","6991.70000000298"," ","","<h1>Welcome to the Visual Crowding Experiment!</h1>
       <p>This test will take <b>10-12</b> minutes to complete.</p>
       <p>Press any key to start the experiment!</p>","01/12/2021, 08:19:11","1638343151687","","","","","","","","","","","","","","","","","","","","","","","","","","",""
"html-keyboard-response","5","25119","0.0-5.0","7582.5","arrowdown","","<div> 
<p> Before you begin this study, let&#39;s quickly test how far away you are sitting. You might know that vision tests at a doctor&#39;s practice often involve chinrests, the doctor basically asks you to sit away from a screen in a specific distance. We do this here with a <b>virtual chinrest</b>. </p>
<p> Please press the <b>down</b> arrow to continue.
</p>
</div>","","","","","","","","","","","","","","","","","","","","","","","","","","","","",""
"virtual-chinrest","6","114622","0.0-6.0","89501.19999999553","","","","","","85.6","53.98","480","5.61","587.76","8.329721876297814","57.624973213792146","33.318887505191256","18.74187422167008","","","","","","","","","","","","","","","","","",""
"html-keyboard-response","7","143763","0.0-7.0","29139.5","arrowdown","","
	<h2 class=""bolded-blue"">Now, you will take a peripheral vision test!</h2>
<p> 
	<b>
		<font size=""140%"">1. </font>
	</b>
	<em><b>Please use both eyes for the following task.</b></em> First, you will see a screen (like the one in the image below) showing a <b>black dot</b> in the middle of the screen, with a group of circles displayed on either the <span class=""bolded-blue"">left</span> or <span class=""bolded-blue"">right</span> of the black dot for 150 ms. <span class=""bolded-blue"">Please make sure to focus on the black dot all the time!</span>

	<div>
		<img src=""example.png"" alt=""example"" style=""border: 2px solid black"" width=""600""/> 
	</div>
	
	<b>
		<font size=""140%"">2. </font>
	</b>
	Your task is to identify whether the opening of the <b class=""bolded-blue"">center circle</b> is upward by pressing UP or downward by pressing DOWN on your keyboard. The opening of the circle will only be upward or downward, not towards left or right.

	<div>
		<img src=""arrow_keys+.png"" alt=""arrows"" style=""border: 2px solid black"" width=""600""/>
	</div>
	<br>

<p>Please press the <b>down</b> arrow key to start the <span class=""bolded-blue"">practice task</span> (this first practice task will not count toward your final results).</p>
</p>
","","","","","","","","","","","","","","","","","","","","","","","","","","","","",""
"html-keyboard-response","8","144265","0.0-8.0","null","null","","
    <div style="" display: block;  position: relative;"">
    
    <svg width=1920 height=1080>
    <circle cx=897 cy=540 r=20.42353526380541 stroke=""black"" stroke-width=""1"" fill=""black"" />
    <circle cx=NaN cy=540 r=29.176478948293443 stroke=""none"" stroke-width=""1.5"" fill=""none"" />
    <circle cx=672 cy=NaN r=29.176478948293443 stroke=""none"" stroke-width=""1.5"" fill=""none"" />
    <circle cx=NaN cy=540 r=29.176478948293443 stroke=""none"" stroke-width=""1.5"" fill=""none"" />
    <circle cx=672 cy=NaN r=29.176478948293443 stroke=""none"" stroke-width=""1.5"" fill=""none"" />
    <polygon points = ""672,540 680.2071976457602,569.1764789482935 663.7928023542398,569.1764789482935"" stroke=""none"" stroke-width=""3"" fill = ""none"" />
    
    </svg>
    </div>
        ","","","","","","","","","","","","","","","","","","","","","","","","","","","","",""
"html-keyboard-response","9","144417","0.0-9.0","null","null","","
    <div style="" display: block;  position: relative;"">
    <svg width=1920 height=1080>
    
    <circle cx=897 cy=540 r=20.42353526380541 stroke=""black"" stroke-width=""1"" fill=""black"" />
    <circle cx=1122 cy=540 r=29.176478948293443 stroke=""black"" stroke-width=""1.5"" fill=""none"" />
    <circle cx=1268.25 cy=540 r=29.176478948293443 stroke=""black"" stroke-width=""1.5"" fill=""none"" />
    <circle cx=1122 cy=686.25 r=29.176478948293443 stroke=""black"" stroke-width=""1.5"" fill=""none"" />
    <circle cx=975.75 cy=540 r=29.176478948293443 stroke=""black"" stroke-width=""1.5"" fill=""none"" />
    <circle cx=1122 cy=393.75 r=29.176478948293443 stroke=""black"" stroke-width=""1.5"" fill=""none"" />
    <polygon points = ""1122,540 1130.2071976457603,510.82352105170656 1113.7928023542397,510.82352105170656"" stroke=""white"" stroke-width=""3"" fill = ""white"" />
    
    </svg>
    </div>
        ","","","","","","","","","","","","stimulus","","","","","","","","","","","","","","","","",""
"html-keyboard-response","10","144939","0.0-10.0","521.2000000029802","arrowup","","
    <div style="" display: block;  position: relative;"">
    
    <svg width=1920 height=1080>
    <circle cx=897 cy=540 r=20.42353526380541 stroke=""black"" stroke-width=""1"" fill=""black"" />
    <circle cx=1268.25 cy=540 r=29.176478948293443 stroke=""none"" stroke-width=""1.5"" fill=""none"" />
    <circle cx=1122 cy=686.25 r=29.176478948293443 stroke=""none"" stroke-width=""1.5"" fill=""none"" />
    <circle cx=975.75 cy=540 r=29.176478948293443 stroke=""none"" stroke-width=""1.5"" fill=""none"" />
    <circle cx=1122 cy=393.75 r=29.176478948293443 stroke=""none"" stroke-width=""1.5"" fill=""none"" />
    <polygon points = ""1122,540 1130.2071976457603,510.82352105170656 1113.7928023542397,510.82352105170656"" stroke=""none"" stroke-width=""3"" fill = ""none"" />
    
    </svg>
    </div>
        ","","","","","","","","","","","","practice_get_response","true","R1Za7vuaSGHs3XOr","146.25","2.5","false","true","false","225","3.85","597.808","","","","","","",""
"html-keyboard-response","11","145441","0.0-11.0","null","null","","
    <div style="" display: block;  position: relative;"">
    
    <svg width=1920 height=1080>
    <circle cx=897 cy=540 r=20.42353526380541 stroke=""black"" stroke-width=""1"" fill=""black"" />
    <circle cx=1268.25 cy=540 r=29.176478948293443 stroke=""none"" stroke-width=""1.5"" fill=""none"" />
    <circle cx=1122 cy=686.25 r=29.176478948293443 stroke=""none"" stroke-width=""1.5"" fill=""none"" />
    <circle cx=975.75 cy=540 r=29.176478948293443 stroke=""none"" stroke-width=""1.5"" fill=""none"" />
    <circle cx=1122 cy=393.75 r=29.176478948293443 stroke=""none"" stroke-width=""1.5"" fill=""none"" />
    <polygon points = ""1122,540 1130.2071976457603,510.82352105170656 1113.7928023542397,510.82352105170656"" stroke=""none"" stroke-width=""3"" fill = ""none"" />
    
    </svg>
    </div>
        ","","","","","","","","","","","","","","","","","","","","","","","","","","","","",""
"html-keyboard-response","12","145592","0.0-12.0","null","null","","
    <div style="" display: block;  position: relative;"">
    <svg width=1920 height=1080>
    
    <circle cx=897 cy=540 r=20.42353526380541 stroke=""black"" stroke-width=""1"" fill=""black"" />
    <circle cx=672 cy=540 r=29.176478948293443 stroke=""black"" stroke-width=""1.5"" fill=""none"" />
    <circle cx=818.25 cy=540 r=29.176478948293443 stroke=""black"" stroke-width=""1.5"" fill=""none"" />
    <circle cx=672 cy=686.25 r=29.176478948293443 stroke=""black"" stroke-width=""1.5"" fill=""none"" />
    <circle cx=525.75 cy=540 r=29.176478948293443 stroke=""black"" stroke-width=""1.5"" fill=""none"" />
    <circle cx=672 cy=393.75 r=29.176478948293443 stroke=""black"" stroke-width=""1.5"" fill=""none"" />
    <polygon points = ""672,540 680.2071976457602,569.1764789482935 663.7928023542398,569.1764789482935"" stroke=""white"" stroke-width=""3"" fill = ""white"" />
    
    </svg>
    </div>
        ","","","","","","","","","","","","stimulus","","","","","","","","","","","","","","","","",""
"html-keyboard-response","13","146092","0.0-13.0","500","arrowdown","","
    <div style="" display: block;  position: relative;"">
    
    <svg width=1920 height=1080>
    <circle cx=897 cy=540 r=20.42353526380541 stroke=""black"" stroke-width=""1"" fill=""black"" />
    <circle cx=818.25 cy=540 r=29.176478948293443 stroke=""none"" stroke-width=""1.5"" fill=""none"" />
    <circle cx=672 cy=686.25 r=29.176478948293443 stroke=""none"" stroke-width=""1.5"" fill=""none"" />
    <circle cx=525.75 cy=540 r=29.176478948293443 stroke=""none"" stroke-width=""1.5"" fill=""none"" />
    <circle cx=672 cy=393.75 r=29.176478948293443 stroke=""none"" stroke-width=""1.5"" fill=""none"" />
    <polygon points = ""672,540 680.2071976457602,569.1764789482935 663.7928023542398,569.1764789482935"" stroke=""none"" stroke-width=""3"" fill = ""none"" />
    
    </svg>
    </div>
        ","","","","","","","","","","","","practice_get_response","true","R1Za7vuaSGHs3XOr","146.25","2.5","true","false","false","225","3.85","597.808","","","","","","",""
"html-keyboard-response","14","146593","0.0-14.0","null","null","","
    <div style="" display: block;  position: relative;"">
    
    <svg width=1920 height=1080>
    <circle cx=897 cy=540 r=20.42353526380541 stroke=""black"" stroke-width=""1"" fill=""black"" />
    <circle cx=818.25 cy=540 r=29.176478948293443 stroke=""none"" stroke-width=""1.5"" fill=""none"" />
    <circle cx=672 cy=686.25 r=29.176478948293443 stroke=""none"" stroke-width=""1.5"" fill=""none"" />
    <circle cx=525.75 cy=540 r=29.176478948293443 stroke=""none"" stroke-width=""1.5"" fill=""none"" />
    <circle cx=672 cy=393.75 r=29.176478948293443 stroke=""none"" stroke-width=""1.5"" fill=""none"" />
    <polygon points = ""672,540 680.2071976457602,569.1764789482935 663.7928023542398,569.1764789482935"" stroke=""none"" stroke-width=""3"" fill = ""none"" />
    
    </svg>
    </div>
        ","","","","","","","","","","","","","","","","","","","","","","","","","","","","",""
"html-keyboard-response","15","146745","0.0-15.0","null","null","","
    <div style="" display: block;  position: relative;"">
    <svg width=1920 height=1080>
    
    <circle cx=897 cy=540 r=20.42353526380541 stroke=""black"" stroke-width=""1"" fill=""black"" />
    <circle cx=1122 cy=540 r=29.176478948293443 stroke=""black"" stroke-width=""1.5"" fill=""none"" />
    <circle cx=1268.25 cy=540 r=29.176478948293443 stroke=""black"" stroke-width=""1.5"" fill=""none"" />
    <circle cx=1122 cy=686.25 r=29.176478948293443 stroke=""black"" stroke-width=""1.5"" fill=""none"" />
    <circle cx=975.75 cy=540 r=29.176478948293443 stroke=""black"" stroke-width=""1.5"" fill=""none"" />
    <circle cx=1122 cy=393.75 r=29.176478948293443 stroke=""black"" stroke-width=""1.5"" fill=""none"" />
    <polygon points = ""1122,540 1130.2071976457603,510.82352105170656 1113.7928023542397,510.82352105170656"" stroke=""white"" stroke-width=""3"" fill = ""white"" />
    
    </svg>
    </div>
        ","","","","","","","","","","","","stimulus","","","","","","","","","","","","","","","","",""
"html-keyboard-response","16","147098","0.0-16.0","352.19999999552965","arrowup","","
    <div style="" display: block;  position: relative;"">
    
    <svg width=1920 height=1080>
    <circle cx=897 cy=540 r=20.42353526380541 stroke=""black"" stroke-width=""1"" fill=""black"" />
    <circle cx=1268.25 cy=540 r=29.176478948293443 stroke=""none"" stroke-width=""1.5"" fill=""none"" />
    <circle cx=1122 cy=686.25 r=29.176478948293443 stroke=""none"" stroke-width=""1.5"" fill=""none"" />
    <circle cx=975.75 cy=540 r=29.176478948293443 stroke=""none"" stroke-width=""1.5"" fill=""none"" />
    <circle cx=1122 cy=393.75 r=29.176478948293443 stroke=""none"" stroke-width=""1.5"" fill=""none"" />
    <polygon points = ""1122,540 1130.2071976457603,510.82352105170656 1113.7928023542397,510.82352105170656"" stroke=""none"" stroke-width=""3"" fill = ""none"" />
    
    </svg>
    </div>
        ","","","","","","","","","","","","practice_get_response","true","R1Za7vuaSGHs3XOr","146.25","2.5","false","true","false","225","3.85","597.808","","","","","","",""
"html-keyboard-response","17","147598","0.0-17.0","null","null","","
    <div style="" display: block;  position: relative;"">
    
    <svg width=1920 height=1080>
    <circle cx=897 cy=540 r=20.42353526380541 stroke=""black"" stroke-width=""1"" fill=""black"" />
    <circle cx=1268.25 cy=540 r=29.176478948293443 stroke=""none"" stroke-width=""1.5"" fill=""none"" />
    <circle cx=1122 cy=686.25 r=29.176478948293443 stroke=""none"" stroke-width=""1.5"" fill=""none"" />
    <circle cx=975.75 cy=540 r=29.176478948293443 stroke=""none"" stroke-width=""1.5"" fill=""none"" />
    <circle cx=1122 cy=393.75 r=29.176478948293443 stroke=""none"" stroke-width=""1.5"" fill=""none"" />
    <polygon points = ""1122,540 1130.2071976457603,510.82352105170656 1113.7928023542397,510.82352105170656"" stroke=""none"" stroke-width=""3"" fill = ""none"" />
    
    </svg>
    </div>
        ","","","","","","","","","","","","","","","","","","","","","","","","","","","","",""
"html-keyboard-response","18","147749","0.0-18.0","null","null","","
    <div style="" display: block;  position: relative;"">
    <svg width=1920 height=1080>
    
    <circle cx=897 cy=540 r=20.42353526380541 stroke=""black"" stroke-width=""1"" fill=""black"" />
    <circle cx=1122 cy=540 r=29.176478948293443 stroke=""black"" stroke-width=""1.5"" fill=""none"" />
    <circle cx=1254.9545454545455 cy=540 r=29.176478948293443 stroke=""black"" stroke-width=""1.5"" fill=""none"" />
    <circle cx=1122 cy=672.9545454545455 r=29.176478948293443 stroke=""black"" stroke-width=""1.5"" fill=""none"" />
    <circle cx=989.0454545454545 cy=540 r=29.176478948293443 stroke=""black"" stroke-width=""1.5"" fill=""none"" />
    <circle cx=1122 cy=407.04545454545456 r=29.176478948293443 stroke=""black"" stroke-width=""1.5"" fill=""none"" />
    <polygon points = ""1122,540 1130.2071976457603,569.1764789482935 1113.7928023542397,569.1764789482935"" stroke=""white"" stroke-width=""3"" fill = ""white"" />
    
    </svg>
    </div>
        ","","","","","","","","","","","","stimulus","","","","","","","","","","","","","","","","",""
"html-keyboard-response","19","148221","0.0-19.0","471.3999999985099","arrowdown","","
    <div style="" display: block;  position: relative;"">
    
    <svg width=1920 height=1080>
    <circle cx=897 cy=540 r=20.42353526380541 stroke=""black"" stroke-width=""1"" fill=""black"" />
    <circle cx=1254.9545454545455 cy=540 r=29.176478948293443 stroke=""none"" stroke-width=""1.5"" fill=""none"" />
    <circle cx=1122 cy=672.9545454545455 r=29.176478948293443 stroke=""none"" stroke-width=""1.5"" fill=""none"" />
    <circle cx=989.0454545454545 cy=540 r=29.176478948293443 stroke=""none"" stroke-width=""1.5"" fill=""none"" />
    <circle cx=1122 cy=407.04545454545456 r=29.176478948293443 stroke=""none"" stroke-width=""1.5"" fill=""none"" />
    <polygon points = ""1122,540 1130.2071976457603,569.1764789482935 1113.7928023542397,569.1764789482935"" stroke=""none"" stroke-width=""3"" fill = ""none"" />
    
    </svg>
    </div>
        ","","","","","","","","","","","","practice_get_response","true","R1Za7vuaSGHs3XOr","132.95454545454544","2.27","false","false","false","225","3.85","597.808","","","","","","",""
"html-keyboard-response","20","148726","0.0-20.0","null","null","","
    <div style="" display: block;  position: relative;"">
    
    <svg width=1920 height=1080>
    <circle cx=897 cy=540 r=20.42353526380541 stroke=""black"" stroke-width=""1"" fill=""black"" />
    <circle cx=1254.9545454545455 cy=540 r=29.176478948293443 stroke=""none"" stroke-width=""1.5"" fill=""none"" />
    <circle cx=1122 cy=672.9545454545455 r=29.176478948293443 stroke=""none"" stroke-width=""1.5"" fill=""none"" />
    <circle cx=989.0454545454545 cy=540 r=29.176478948293443 stroke=""none"" stroke-width=""1.5"" fill=""none"" />
    <circle cx=1122 cy=407.04545454545456 r=29.176478948293443 stroke=""none"" stroke-width=""1.5"" fill=""none"" />
    <polygon points = ""1122,540 1130.2071976457603,569.1764789482935 1113.7928023542397,569.1764789482935"" stroke=""none"" stroke-width=""3"" fill = ""none"" />
    
    </svg>
    </div>
        ","","","","","","","","","","","","","","","","","","","","","","","","","","","","",""
"html-keyboard-response","21","148878","0.0-21.0","null","null","","
    <div style="" display: block;  position: relative;"">
    <svg width=1920 height=1080>
    
    <circle cx=897 cy=540 r=20.42353526380541 stroke=""black"" stroke-width=""1"" fill=""black"" />
    <circle cx=1122 cy=540 r=29.176478948293443 stroke=""black"" stroke-width=""1.5"" fill=""none"" />
    <circle cx=1242.8677685950413 cy=540 r=29.176478948293443 stroke=""black"" stroke-width=""1.5"" fill=""none"" />
    <circle cx=1122 cy=660.8677685950413 r=29.176478948293443 stroke=""black"" stroke-width=""1.5"" fill=""none"" />
    <circle cx=1001.1322314049587 cy=540 r=29.176478948293443 stroke=""black"" stroke-width=""1.5"" fill=""none"" />
    <circle cx=1122 cy=419.1322314049587 r=29.176478948293443 stroke=""black"" stroke-width=""1.5"" fill=""none"" />
    <polygon points = ""1122,540 1130.2071976457603,510.82352105170656 1113.7928023542397,510.82352105170656"" stroke=""white"" stroke-width=""3"" fill = ""white"" />
    
    </svg>
    </div>
        ","","","","","","","","","","","","stimulus","","","","","","","","","","","","","","","","",""
"html-keyboard-response","22","149338","0.0-22.0","459.8999999985099","arrowup","","
    <div style="" display: block;  position: relative;"">
    
    <svg width=1920 height=1080>
    <circle cx=897 cy=540 r=20.42353526380541 stroke=""black"" stroke-width=""1"" fill=""black"" />
    <circle cx=1242.8677685950413 cy=540 r=29.176478948293443 stroke=""none"" stroke-width=""1.5"" fill=""none"" />
    <circle cx=1122 cy=660.8677685950413 r=29.176478948293443 stroke=""none"" stroke-width=""1.5"" fill=""none"" />
    <circle cx=1001.1322314049587 cy=540 r=29.176478948293443 stroke=""none"" stroke-width=""1.5"" fill=""none"" />
    <circle cx=1122 cy=419.1322314049587 r=29.176478948293443 stroke=""none"" stroke-width=""1.5"" fill=""none"" />
    <polygon points = ""1122,540 1130.2071976457603,510.82352105170656 1113.7928023542397,510.82352105170656"" stroke=""none"" stroke-width=""3"" fill = ""none"" />
    
    </svg>
    </div>
        ","","","","","","","","","","","","practice_get_response","true","R1Za7vuaSGHs3XOr","120.8677685950413","2.07","false","true","false","225","3.85","597.808","","","","","","",""
"html-keyboard-response","23","154458","0.0-23.0","5119.29999999702","arrowdown","","<div> 
<h2 class=""bolded-blue"">Well done!</h2>
<p> Now that you have the hang of it, we&#39;ll start the study. This session has 25 trials and takes about 2 minute to complete. </p> 
<p>If you are ready for the real deal, please press the <b>down</b> arrow to continue.
</p>
</div>","","","","","","","","","","","","","","","","","","","","","","","","","","","","",""
"html-keyboard-response","24","159015","0.0-24.0","4556.0999999940395","arrowdown","","<div id=""continue""> 
<p>Again, please keep the <b>full screen</b> mode for the best experience.</p>
<p>Please do not move around and keep your eye on the black dot. Click <b>up</b> or <b>down</b> key on your keyboard to indicate the opening of the center circle. Make your best guess!</p>
<p>Please press the <b>down</b> arrow key to start the session 1. </p>
</div>","","","","","","","","","","","","","","","","","","","","","","","","","","","","",""
"html-keyboard-response","25","159520","0.0-25.0","null","null","","
    <div style="" display: block;  position: relative;"">
    
    <svg width=1920 height=1080>
    <circle cx=897 cy=540 r=20.42353526380541 stroke=""black"" stroke-width=""1"" fill=""black"" />
    <circle cx=792.8677685950413 cy=540 r=29.176478948293443 stroke=""none"" stroke-width=""1.5"" fill=""none"" />
    <circle cx=672 cy=660.8677685950413 r=29.176478948293443 stroke=""none"" stroke-width=""1.5"" fill=""none"" />
    <circle cx=551.1322314049587 cy=540 r=29.176478948293443 stroke=""none"" stroke-width=""1.5"" fill=""none"" />
    <circle cx=672 cy=419.1322314049587 r=29.176478948293443 stroke=""none"" stroke-width=""1.5"" fill=""none"" />
    <polygon points = ""672,540 680.2071976457602,569.1764789482935 663.7928023542398,569.1764789482935"" stroke=""none"" stroke-width=""3"" fill = ""none"" />
    
    </svg>
    </div>
        ","","","","","","","","","","","","","","","","","","","","","","","","","","","","",""
"html-keyboard-response","26","159672","0.0-26.0","null","null","","
    <div style="" display: block;  position: relative;"">
    <svg width=1920 height=1080>
    
    <circle cx=897 cy=540 r=20.42353526380541 stroke=""black"" stroke-width=""1"" fill=""black"" />
    <circle cx=672 cy=540 r=29.176478948293443 stroke=""black"" stroke-width=""1.5"" fill=""none"" />
    <circle cx=818.25 cy=540 r=29.176478948293443 stroke=""black"" stroke-width=""1.5"" fill=""none"" />
    <circle cx=672 cy=686.25 r=29.176478948293443 stroke=""black"" stroke-width=""1.5"" fill=""none"" />
    <circle cx=525.75 cy=540 r=29.176478948293443 stroke=""black"" stroke-width=""1.5"" fill=""none"" />
    <circle cx=672 cy=393.75 r=29.176478948293443 stroke=""black"" stroke-width=""1.5"" fill=""none"" />
    <polygon points = ""672,540 680.2071976457602,569.1764789482935 663.7928023542398,569.1764789482935"" stroke=""white"" stroke-width=""3"" fill = ""white"" />
    
    </svg>
    </div>
        ","","","","","","","","","","","","stimulus","","","","","","","","","","","","","","","","",""
"html-keyboard-response","27","160050","0.0-27.0","376.69999999552965","arrowdown","","
    <div style="" display: block;  position: relative;"">
    
    <svg width=1920 height=1080>
    <circle cx=897 cy=540 r=20.42353526380541 stroke=""black"" stroke-width=""1"" fill=""black"" />
    <circle cx=818.25 cy=540 r=29.176478948293443 stroke=""none"" stroke-width=""1.5"" fill=""none"" />
    <circle cx=672 cy=686.25 r=29.176478948293443 stroke=""none"" stroke-width=""1.5"" fill=""none"" />
    <circle cx=525.75 cy=540 r=29.176478948293443 stroke=""none"" stroke-width=""1.5"" fill=""none"" />
    <circle cx=672 cy=393.75 r=29.176478948293443 stroke=""none"" stroke-width=""1.5"" fill=""none"" />
    <polygon points = ""672,540 680.2071976457602,569.1764789482935 663.7928023542398,569.1764789482935"" stroke=""none"" stroke-width=""3"" fill = ""none"" />
    
    </svg>
    </div>
        ","","","","","","","","","","","","get_response","true","R1Za7vuaSGHs3XOr","","","true","false","false","225","3.85","597.808","146.25","2.5","1","0","","",""
"html-keyboard-response","28","160552","0.0-28.0","null","null","","
    <div style="" display: block;  position: relative;"">
    
    <svg width=1920 height=1080>
    <circle cx=897 cy=540 r=20.42353526380541 stroke=""black"" stroke-width=""1"" fill=""black"" />
    <circle cx=818.25 cy=540 r=29.176478948293443 stroke=""none"" stroke-width=""1.5"" fill=""none"" />
    <circle cx=672 cy=686.25 r=29.176478948293443 stroke=""none"" stroke-width=""1.5"" fill=""none"" />
    <circle cx=525.75 cy=540 r=29.176478948293443 stroke=""none"" stroke-width=""1.5"" fill=""none"" />
    <circle cx=672 cy=393.75 r=29.176478948293443 stroke=""none"" stroke-width=""1.5"" fill=""none"" />
    <polygon points = ""672,540 680.2071976457602,569.1764789482935 663.7928023542398,569.1764789482935"" stroke=""none"" stroke-width=""3"" fill = ""none"" />
    
    </svg>
    </div>
        ","","","","","","","","","","","","","","","","","","","","","","","","","","","","",""
"html-keyboard-response","29","160703","0.0-29.0","null","null","","
    <div style="" display: block;  position: relative;"">
    <svg width=1920 height=1080>
    
    <circle cx=897 cy=540 r=20.42353526380541 stroke=""black"" stroke-width=""1"" fill=""black"" />
    <circle cx=1122 cy=540 r=29.176478948293443 stroke=""black"" stroke-width=""1.5"" fill=""none"" />
    <circle cx=1268.25 cy=540 r=29.176478948293443 stroke=""black"" stroke-width=""1.5"" fill=""none"" />
    <circle cx=1122 cy=686.25 r=29.176478948293443 stroke=""black"" stroke-width=""1.5"" fill=""none"" />
    <circle cx=975.75 cy=540 r=29.176478948293443 stroke=""black"" stroke-width=""1.5"" fill=""none"" />
    <circle cx=1122 cy=393.75 r=29.176478948293443 stroke=""black"" stroke-width=""1.5"" fill=""none"" />
    <polygon points = ""1122,540 1130.2071976457603,569.1764789482935 1113.7928023542397,569.1764789482935"" stroke=""white"" stroke-width=""3"" fill = ""white"" />
    
    </svg>
    </div>
        ","","","","","","","","","","","","stimulus","","","","","","","","","","","","","","","","",""
"html-keyboard-response","30","161086","0.0-30.0","382.59999999403954","arrowdown","","
    <div style="" display: block;  position: relative;"">
    
    <svg width=1920 height=1080>
    <circle cx=897 cy=540 r=20.42353526380541 stroke=""black"" stroke-width=""1"" fill=""black"" />
    <circle cx=1268.25 cy=540 r=29.176478948293443 stroke=""none"" stroke-width=""1.5"" fill=""none"" />
    <circle cx=1122 cy=686.25 r=29.176478948293443 stroke=""none"" stroke-width=""1.5"" fill=""none"" />
    <circle cx=975.75 cy=540 r=29.176478948293443 stroke=""none"" stroke-width=""1.5"" fill=""none"" />
    <circle cx=1122 cy=393.75 r=29.176478948293443 stroke=""none"" stroke-width=""1.5"" fill=""none"" />
    <polygon points = ""1122,540 1130.2071976457603,569.1764789482935 1113.7928023542397,569.1764789482935"" stroke=""none"" stroke-width=""3"" fill = ""none"" />
    
    </svg>
    </div>
        ","","","","","","","","","","","","get_response","true","R1Za7vuaSGHs3XOr","","","false","false","false","225","3.85","597.808","146.25","2.5","1","0","","",""
"html-keyboard-response","31","161588","0.0-31.0","null","null","","
    <div style="" display: block;  position: relative;"">
    
    <svg width=1920 height=1080>
    <circle cx=897 cy=540 r=20.42353526380541 stroke=""black"" stroke-width=""1"" fill=""black"" />
    <circle cx=1268.25 cy=540 r=29.176478948293443 stroke=""none"" stroke-width=""1.5"" fill=""none"" />
    <circle cx=1122 cy=686.25 r=29.176478948293443 stroke=""none"" stroke-width=""1.5"" fill=""none"" />
    <circle cx=975.75 cy=540 r=29.176478948293443 stroke=""none"" stroke-width=""1.5"" fill=""none"" />
    <circle cx=1122 cy=393.75 r=29.176478948293443 stroke=""none"" stroke-width=""1.5"" fill=""none"" />
    <polygon points = ""1122,540 1130.2071976457603,569.1764789482935 1113.7928023542397,569.1764789482935"" stroke=""none"" stroke-width=""3"" fill = ""none"" />
    
    </svg>
    </div>
        ","","","","","","","","","","","","","","","","","","","","","","","","","","","","",""
"html-keyboard-response","32","161739","0.0-32.0","null","null","","
    <div style="" display: block;  position: relative;"">
    <svg width=1920 height=1080>
    
    <circle cx=897 cy=540 r=20.42353526380541 stroke=""black"" stroke-width=""1"" fill=""black"" />
    <circle cx=672 cy=540 r=29.176478948293443 stroke=""black"" stroke-width=""1.5"" fill=""none"" />
    <circle cx=818.25 cy=540 r=29.176478948293443 stroke=""black"" stroke-width=""1.5"" fill=""none"" />
    <circle cx=672 cy=686.25 r=29.176478948293443 stroke=""black"" stroke-width=""1.5"" fill=""none"" />
    <circle cx=525.75 cy=540 r=29.176478948293443 stroke=""black"" stroke-width=""1.5"" fill=""none"" />
    <circle cx=672 cy=393.75 r=29.176478948293443 stroke=""black"" stroke-width=""1.5"" fill=""none"" />
    <polygon points = ""672,540 680.2071976457602,510.82352105170656 663.7928023542398,510.82352105170656"" stroke=""white"" stroke-width=""3"" fill = ""white"" />
    
    </svg>
    </div>
        ","","","","","","","","","","","","stimulus","","","","","","","","","","","","","","","","",""
"html-keyboard-response","33","162247","0.0-33.0","506.69999999552965","arrowup","","
    <div style="" display: block;  position: relative;"">
    
    <svg width=1920 height=1080>
    <circle cx=897 cy=540 r=20.42353526380541 stroke=""black"" stroke-width=""1"" fill=""black"" />
    <circle cx=818.25 cy=540 r=29.176478948293443 stroke=""none"" stroke-width=""1.5"" fill=""none"" />
    <circle cx=672 cy=686.25 r=29.176478948293443 stroke=""none"" stroke-width=""1.5"" fill=""none"" />
    <circle cx=525.75 cy=540 r=29.176478948293443 stroke=""none"" stroke-width=""1.5"" fill=""none"" />
    <circle cx=672 cy=393.75 r=29.176478948293443 stroke=""none"" stroke-width=""1.5"" fill=""none"" />
    <polygon points = ""672,540 680.2071976457602,510.82352105170656 663.7928023542398,510.82352105170656"" stroke=""none"" stroke-width=""3"" fill = ""none"" />
    
    </svg>
    </div>
        ","","","","","","","","","","","","get_response","true","R1Za7vuaSGHs3XOr","","","true","true","false","225","3.85","597.808","146.25","2.5","1","0","","",""
"html-keyboard-response","34","162748","0.0-34.0","null","null","","
    <div style="" display: block;  position: relative;"">
    
    <svg width=1920 height=1080>
    <circle cx=897 cy=540 r=20.42353526380541 stroke=""black"" stroke-width=""1"" fill=""black"" />
    <circle cx=818.25 cy=540 r=29.176478948293443 stroke=""none"" stroke-width=""1.5"" fill=""none"" />
    <circle cx=672 cy=686.25 r=29.176478948293443 stroke=""none"" stroke-width=""1.5"" fill=""none"" />
    <circle cx=525.75 cy=540 r=29.176478948293443 stroke=""none"" stroke-width=""1.5"" fill=""none"" />
    <circle cx=672 cy=393.75 r=29.176478948293443 stroke=""none"" stroke-width=""1.5"" fill=""none"" />
    <polygon points = ""672,540 680.2071976457602,510.82352105170656 663.7928023542398,510.82352105170656"" stroke=""none"" stroke-width=""3"" fill = ""none"" />
    
    </svg>
    </div>
        ","","","","","","","","","","","","","","","","","","","","","","","","","","","","",""
"html-keyboard-response","35","162900","0.0-35.0","null","null","","
    <div style="" display: block;  position: relative;"">
    <svg width=1920 height=1080>
    
    <circle cx=897 cy=540 r=20.42353526380541 stroke=""black"" stroke-width=""1"" fill=""black"" />
    <circle cx=672 cy=540 r=29.176478948293443 stroke=""black"" stroke-width=""1.5"" fill=""none"" />
    <circle cx=804.9545454545455 cy=540 r=29.176478948293443 stroke=""black"" stroke-width=""1.5"" fill=""none"" />
    <circle cx=672 cy=672.9545454545455 r=29.176478948293443 stroke=""black"" stroke-width=""1.5"" fill=""none"" />
    <circle cx=539.0454545454545 cy=540 r=29.176478948293443 stroke=""black"" stroke-width=""1.5"" fill=""none"" />
    <circle cx=672 cy=407.04545454545456 r=29.176478948293443 stroke=""black"" stroke-width=""1.5"" fill=""none"" />
    <polygon points = ""672,540 680.2071976457602,569.1764789482935 663.7928023542398,569.1764789482935"" stroke=""white"" stroke-width=""3"" fill = ""white"" />
    
    </svg>
    </div>
        ","","","","","","","","","","","","stimulus","","","","","","","","","","","","","","","","",""
"html-keyboard-response","36","163330","0.0-36.0","430.1000000014901","arrowdown","","
    <div style="" display: block;  position: relative;"">
    
    <svg width=1920 height=1080>
    <circle cx=897 cy=540 r=20.42353526380541 stroke=""black"" stroke-width=""1"" fill=""black"" />
    <circle cx=804.9545454545455 cy=540 r=29.176478948293443 stroke=""none"" stroke-width=""1.5"" fill=""none"" />
    <circle cx=672 cy=672.9545454545455 r=29.176478948293443 stroke=""none"" stroke-width=""1.5"" fill=""none"" />
    <circle cx=539.0454545454545 cy=540 r=29.176478948293443 stroke=""none"" stroke-width=""1.5"" fill=""none"" />
    <circle cx=672 cy=407.04545454545456 r=29.176478948293443 stroke=""none"" stroke-width=""1.5"" fill=""none"" />
    <polygon points = ""672,540 680.2071976457602,569.1764789482935 663.7928023542398,569.1764789482935"" stroke=""none"" stroke-width=""3"" fill = ""none"" />
    
    </svg>
    </div>
        ","","","","","","","","","","","","get_response","true","R1Za7vuaSGHs3XOr","","","true","false","false","225","3.85","597.808","132.95454545454544","2.27","1","0","","",""
"html-keyboard-response","37","163832","0.0-37.0","null","null","","
    <div style="" display: block;  position: relative;"">
    
    <svg width=1920 height=1080>
    <circle cx=897 cy=540 r=20.42353526380541 stroke=""black"" stroke-width=""1"" fill=""black"" />
    <circle cx=804.9545454545455 cy=540 r=29.176478948293443 stroke=""none"" stroke-width=""1.5"" fill=""none"" />
    <circle cx=672 cy=672.9545454545455 r=29.176478948293443 stroke=""none"" stroke-width=""1.5"" fill=""none"" />
    <circle cx=539.0454545454545 cy=540 r=29.176478948293443 stroke=""none"" stroke-width=""1.5"" fill=""none"" />
    <circle cx=672 cy=407.04545454545456 r=29.176478948293443 stroke=""none"" stroke-width=""1.5"" fill=""none"" />
    <polygon points = ""672,540 680.2071976457602,569.1764789482935 663.7928023542398,569.1764789482935"" stroke=""none"" stroke-width=""3"" fill = ""none"" />
    
    </svg>
    </div>
        ","","","","","","","","","","","","","","","","","","","","","","","","","","","","",""
"html-keyboard-response","38","163984","0.0-38.0","null","null","","
    <div style="" display: block;  position: relative;"">
    <svg width=1920 height=1080>
    
    <circle cx=897 cy=540 r=20.42353526380541 stroke=""black"" stroke-width=""1"" fill=""black"" />
    <circle cx=1122 cy=540 r=29.176478948293443 stroke=""black"" stroke-width=""1.5"" fill=""none"" />
    <circle cx=1242.8677685950413 cy=540 r=29.176478948293443 stroke=""black"" stroke-width=""1.5"" fill=""none"" />
    <circle cx=1122 cy=660.8677685950413 r=29.176478948293443 stroke=""black"" stroke-width=""1.5"" fill=""none"" />
    <circle cx=1001.1322314049587 cy=540 r=29.176478948293443 stroke=""black"" stroke-width=""1.5"" fill=""none"" />
    <circle cx=1122 cy=419.1322314049587 r=29.176478948293443 stroke=""black"" stroke-width=""1.5"" fill=""none"" />
    <polygon points = ""1122,540 1130.2071976457603,510.82352105170656 1113.7928023542397,510.82352105170656"" stroke=""white"" stroke-width=""3"" fill = ""white"" />
    
    </svg>
    </div>
        ","","","","","","","","","","","","stimulus","","","","","","","","","","","","","","","","",""
"html-keyboard-response","39","164427","0.0-39.0","442.8999999985099","arrowup","","
    <div style="" display: block;  position: relative;"">
    
    <svg width=1920 height=1080>
    <circle cx=897 cy=540 r=20.42353526380541 stroke=""black"" stroke-width=""1"" fill=""black"" />
    <circle cx=1242.8677685950413 cy=540 r=29.176478948293443 stroke=""none"" stroke-width=""1.5"" fill=""none"" />
    <circle cx=1122 cy=660.8677685950413 r=29.176478948293443 stroke=""none"" stroke-width=""1.5"" fill=""none"" />
    <circle cx=1001.1322314049587 cy=540 r=29.176478948293443 stroke=""none"" stroke-width=""1.5"" fill=""none"" />
    <circle cx=1122 cy=419.1322314049587 r=29.176478948293443 stroke=""none"" stroke-width=""1.5"" fill=""none"" />
    <polygon points = ""1122,540 1130.2071976457603,510.82352105170656 1113.7928023542397,510.82352105170656"" stroke=""none"" stroke-width=""3"" fill = ""none"" />
    
    </svg>
    </div>
        ","","","","","","","","","","","","get_response","true","R1Za7vuaSGHs3XOr","","","false","true","false","225","3.85","597.808","120.8677685950413","2.07","1","0","","",""
"html-keyboard-response","40","164928","0.0-40.0","null","null","","
    <div style="" display: block;  position: relative;"">
    
    <svg width=1920 height=1080>
    <circle cx=897 cy=540 r=20.42353526380541 stroke=""black"" stroke-width=""1"" fill=""black"" />
    <circle cx=1242.8677685950413 cy=540 r=29.176478948293443 stroke=""none"" stroke-width=""1.5"" fill=""none"" />
    <circle cx=1122 cy=660.8677685950413 r=29.176478948293443 stroke=""none"" stroke-width=""1.5"" fill=""none"" />
    <circle cx=1001.1322314049587 cy=540 r=29.176478948293443 stroke=""none"" stroke-width=""1.5"" fill=""none"" />
    <circle cx=1122 cy=419.1322314049587 r=29.176478948293443 stroke=""none"" stroke-width=""1.5"" fill=""none"" />
    <polygon points = ""1122,540 1130.2071976457603,510.82352105170656 1113.7928023542397,510.82352105170656"" stroke=""none"" stroke-width=""3"" fill = ""none"" />
    
    </svg>
    </div>
        ","","","","","","","","","","","","","","","","","","","","","","","","","","","","",""
"html-keyboard-response","41","165080","0.0-41.0","null","null","","
    <div style="" display: block;  position: relative;"">
    <svg width=1920 height=1080>
    
    <circle cx=897 cy=540 r=20.42353526380541 stroke=""black"" stroke-width=""1"" fill=""black"" />
    <circle cx=672 cy=540 r=29.176478948293443 stroke=""black"" stroke-width=""1.5"" fill=""none"" />
    <circle cx=781.8797896318557 cy=540 r=29.176478948293443 stroke=""black"" stroke-width=""1.5"" fill=""none"" />
    <circle cx=672 cy=649.8797896318557 r=29.176478948293443 stroke=""black"" stroke-width=""1.5"" fill=""none"" />
    <circle cx=562.1202103681443 cy=540 r=29.176478948293443 stroke=""black"" stroke-width=""1.5"" fill=""none"" />
    <circle cx=672 cy=430.1202103681443 r=29.176478948293443 stroke=""black"" stroke-width=""1.5"" fill=""none"" />
    <polygon points = ""672,540 680.2071976457602,569.1764789482935 663.7928023542398,569.1764789482935"" stroke=""white"" stroke-width=""3"" fill = ""white"" />
    
    </svg>
    </div>
        ","","","","","","","","","","","","stimulus","","","","","","","","","","","","","","","","",""
"html-keyboard-response","42","165653","0.0-42.0","571.8000000044703","arrowdown","","
    <div style="" display: block;  position: relative;"">
    
    <svg width=1920 height=1080>
    <circle cx=897 cy=540 r=20.42353526380541 stroke=""black"" stroke-width=""1"" fill=""black"" />
    <circle cx=781.8797896318557 cy=540 r=29.176478948293443 stroke=""none"" stroke-width=""1.5"" fill=""none"" />
    <circle cx=672 cy=649.8797896318557 r=29.176478948293443 stroke=""none"" stroke-width=""1.5"" fill=""none"" />
    <circle cx=562.1202103681443 cy=540 r=29.176478948293443 stroke=""none"" stroke-width=""1.5"" fill=""none"" />
    <circle cx=672 cy=430.1202103681443 r=29.176478948293443 stroke=""none"" stroke-width=""1.5"" fill=""none"" />
    <polygon points = ""672,540 680.2071976457602,569.1764789482935 663.7928023542398,569.1764789482935"" stroke=""none"" stroke-width=""3"" fill = ""none"" />
    
    </svg>
    </div>
        ","","","","","","","","","","","","get_response","true","R1Za7vuaSGHs3XOr","","","true","false","false","225","3.85","597.808","109.87978963185572","1.88","1","0","","",""
"html-keyboard-response","43","166154","0.0-43.0","null","null","","
    <div style="" display: block;  position: relative;"">
    
    <svg width=1920 height=1080>
    <circle cx=897 cy=540 r=20.42353526380541 stroke=""black"" stroke-width=""1"" fill=""black"" />
    <circle cx=781.8797896318557 cy=540 r=29.176478948293443 stroke=""none"" stroke-width=""1.5"" fill=""none"" />
    <circle cx=672 cy=649.8797896318557 r=29.176478948293443 stroke=""none"" stroke-width=""1.5"" fill=""none"" />
    <circle cx=562.1202103681443 cy=540 r=29.176478948293443 stroke=""none"" stroke-width=""1.5"" fill=""none"" />
    <circle cx=672 cy=430.1202103681443 r=29.176478948293443 stroke=""none"" stroke-width=""1.5"" fill=""none"" />
    <polygon points = ""672,540 680.2071976457602,569.1764789482935 663.7928023542398,569.1764789482935"" stroke=""none"" stroke-width=""3"" fill = ""none"" />
    
    </svg>
    </div>
        ","","","","","","","","","","","","","","","","","","","","","","","","","","","","",""
"html-keyboard-response","44","166305","0.0-44.0","null","null","","
    <div style="" display: block;  position: relative;"">
    <svg width=1920 height=1080>
    
    <circle cx=897 cy=540 r=20.42353526380541 stroke=""black"" stroke-width=""1"" fill=""black"" />
    <circle cx=672 cy=540 r=29.176478948293443 stroke=""black"" stroke-width=""1.5"" fill=""none"" />
    <circle cx=771.8907178471416 cy=540 r=29.176478948293443 stroke=""black"" stroke-width=""1.5"" fill=""none"" />
    <circle cx=672 cy=639.8907178471416 r=29.176478948293443 stroke=""black"" stroke-width=""1.5"" fill=""none"" />
    <circle cx=572.1092821528584 cy=540 r=29.176478948293443 stroke=""black"" stroke-width=""1.5"" fill=""none"" />
    <circle cx=672 cy=440.10928215285844 r=29.176478948293443 stroke=""black"" stroke-width=""1.5"" fill=""none"" />
    <polygon points = ""672,540 680.2071976457602,510.82352105170656 663.7928023542398,510.82352105170656"" stroke=""white"" stroke-width=""3"" fill = ""white"" />
    
    </svg>
    </div>
        ","","","","","","","","","","","","stimulus","","","","","","","","","","","","","","","","",""
"html-keyboard-response","45","166793","0.0-45.0","487.20000000298023","arrowup","","
    <div style="" display: block;  position: relative;"">
    
    <svg width=1920 height=1080>
    <circle cx=897 cy=540 r=20.42353526380541 stroke=""black"" stroke-width=""1"" fill=""black"" />
    <circle cx=771.8907178471416 cy=540 r=29.176478948293443 stroke=""none"" stroke-width=""1.5"" fill=""none"" />
    <circle cx=672 cy=639.8907178471416 r=29.176478948293443 stroke=""none"" stroke-width=""1.5"" fill=""none"" />
    <circle cx=572.1092821528584 cy=540 r=29.176478948293443 stroke=""none"" stroke-width=""1.5"" fill=""none"" />
    <circle cx=672 cy=440.10928215285844 r=29.176478948293443 stroke=""none"" stroke-width=""1.5"" fill=""none"" />
    <polygon points = ""672,540 680.2071976457602,510.82352105170656 663.7928023542398,510.82352105170656"" stroke=""none"" stroke-width=""3"" fill = ""none"" />
    
    </svg>
    </div>
        ","","","","","","","","","","","","get_response","true","R1Za7vuaSGHs3XOr","","","true","true","false","225","3.85","597.808","99.89071784714154","1.71","1","0","","",""
"html-keyboard-response","46","167294","0.0-46.0","null","null","","
    <div style="" display: block;  position: relative;"">
    
    <svg width=1920 height=1080>
    <circle cx=897 cy=540 r=20.42353526380541 stroke=""black"" stroke-width=""1"" fill=""black"" />
    <circle cx=771.8907178471416 cy=540 r=29.176478948293443 stroke=""none"" stroke-width=""1.5"" fill=""none"" />
    <circle cx=672 cy=639.8907178471416 r=29.176478948293443 stroke=""none"" stroke-width=""1.5"" fill=""none"" />
    <circle cx=572.1092821528584 cy=540 r=29.176478948293443 stroke=""none"" stroke-width=""1.5"" fill=""none"" />
    <circle cx=672 cy=440.10928215285844 r=29.176478948293443 stroke=""none"" stroke-width=""1.5"" fill=""none"" />
    <polygon points = ""672,540 680.2071976457602,510.82352105170656 663.7928023542398,510.82352105170656"" stroke=""none"" stroke-width=""3"" fill = ""none"" />
    
    </svg>
    </div>
        ","","","","","","","","","","","","","","","","","","","","","","","","","","","","",""
"html-keyboard-response","47","167445","0.0-47.0","null","null","","
    <div style="" display: block;  position: relative;"">
    <svg width=1920 height=1080>
    
    <circle cx=897 cy=540 r=20.42353526380541 stroke=""black"" stroke-width=""1"" fill=""black"" />
    <circle cx=672 cy=540 r=29.176478948293443 stroke=""black"" stroke-width=""1.5"" fill=""none"" />
    <circle cx=762.8097434974014 cy=540 r=29.176478948293443 stroke=""black"" stroke-width=""1.5"" fill=""none"" />
    <circle cx=672 cy=630.8097434974014 r=29.176478948293443 stroke=""black"" stroke-width=""1.5"" fill=""none"" />
    <circle cx=581.1902565025986 cy=540 r=29.176478948293443 stroke=""black"" stroke-width=""1.5"" fill=""none"" />
    <circle cx=672 cy=449.1902565025986 r=29.176478948293443 stroke=""black"" stroke-width=""1.5"" fill=""none"" />
    <polygon points = ""672,540 680.2071976457602,510.82352105170656 663.7928023542398,510.82352105170656"" stroke=""white"" stroke-width=""3"" fill = ""white"" />
    
    </svg>
    </div>
        ","","","","","","","","","","","","stimulus","","","","","","","","","","","","","","","","",""
"html-keyboard-response","48","168239","0.0-48.0","794.3000000044703","arrowup","","
    <div style="" display: block;  position: relative;"">
    
    <svg width=1920 height=1080>
    <circle cx=897 cy=540 r=20.42353526380541 stroke=""black"" stroke-width=""1"" fill=""black"" />
    <circle cx=762.8097434974014 cy=540 r=29.176478948293443 stroke=""none"" stroke-width=""1.5"" fill=""none"" />
    <circle cx=672 cy=630.8097434974014 r=29.176478948293443 stroke=""none"" stroke-width=""1.5"" fill=""none"" />
    <circle cx=581.1902565025986 cy=540 r=29.176478948293443 stroke=""none"" stroke-width=""1.5"" fill=""none"" />
    <circle cx=672 cy=449.1902565025986 r=29.176478948293443 stroke=""none"" stroke-width=""1.5"" fill=""none"" />
    <polygon points = ""672,540 680.2071976457602,510.82352105170656 663.7928023542398,510.82352105170656"" stroke=""none"" stroke-width=""3"" fill = ""none"" />
    
    </svg>
    </div>
        ","","","","","","","","","","","","get_response","true","R1Za7vuaSGHs3XOr","","","true","true","false","225","3.85","597.808","90.8097434974014","1.55","1","0","","",""
"html-keyboard-response","49","168741","0.0-49.0","null","null","","
    <div style="" display: block;  position: relative;"">
    
    <svg width=1920 height=1080>
    <circle cx=897 cy=540 r=20.42353526380541 stroke=""black"" stroke-width=""1"" fill=""black"" />
    <circle cx=762.8097434974014 cy=540 r=29.176478948293443 stroke=""none"" stroke-width=""1.5"" fill=""none"" />
    <circle cx=672 cy=630.8097434974014 r=29.176478948293443 stroke=""none"" stroke-width=""1.5"" fill=""none"" />
    <circle cx=581.1902565025986 cy=540 r=29.176478948293443 stroke=""none"" stroke-width=""1.5"" fill=""none"" />
    <circle cx=672 cy=449.1902565025986 r=29.176478948293443 stroke=""none"" stroke-width=""1.5"" fill=""none"" />
    <polygon points = ""672,540 680.2071976457602,510.82352105170656 663.7928023542398,510.82352105170656"" stroke=""none"" stroke-width=""3"" fill = ""none"" />
    
    </svg>
    </div>
        ","","","","","","","","","","","","","","","","","","","","","","","","","","","","",""
"html-keyboard-response","50","168893","0.0-50.0","null","null","","
    <div style="" display: block;  position: relative;"">
    <svg width=1920 height=1080>
    
    <circle cx=897 cy=540 r=20.42353526380541 stroke=""black"" stroke-width=""1"" fill=""black"" />
    <circle cx=1122 cy=540 r=29.176478948293443 stroke=""black"" stroke-width=""1.5"" fill=""none"" />
    <circle cx=1204.5543122703648 cy=540 r=29.176478948293443 stroke=""black"" stroke-width=""1.5"" fill=""none"" />
    <circle cx=1122 cy=622.5543122703649 r=29.176478948293443 stroke=""black"" stroke-width=""1.5"" fill=""none"" />
    <circle cx=1039.4456877296352 cy=540 r=29.176478948293443 stroke=""black"" stroke-width=""1.5"" fill=""none"" />
    <circle cx=1122 cy=457.4456877296351 r=29.176478948293443 stroke=""black"" stroke-width=""1.5"" fill=""none"" />
    <polygon points = ""1122,540 1130.2071976457603,510.82352105170656 1113.7928023542397,510.82352105170656"" stroke=""white"" stroke-width=""3"" fill = ""white"" />
    
    </svg>
    </div>
        ","","","","","","","","","","","","stimulus","","","","","","","","","","","","","","","","",""
"html-keyboard-response","51","169475","0.0-51.0","581.2000000029802","arrowup","","
    <div style="" display: block;  position: relative;"">
    
    <svg width=1920 height=1080>
    <circle cx=897 cy=540 r=20.42353526380541 stroke=""black"" stroke-width=""1"" fill=""black"" />
    <circle cx=1204.5543122703648 cy=540 r=29.176478948293443 stroke=""none"" stroke-width=""1.5"" fill=""none"" />
    <circle cx=1122 cy=622.5543122703649 r=29.176478948293443 stroke=""none"" stroke-width=""1.5"" fill=""none"" />
    <circle cx=1039.4456877296352 cy=540 r=29.176478948293443 stroke=""none"" stroke-width=""1.5"" fill=""none"" />
    <circle cx=1122 cy=457.4456877296351 r=29.176478948293443 stroke=""none"" stroke-width=""1.5"" fill=""none"" />
    <polygon points = ""1122,540 1130.2071976457603,510.82352105170656 1113.7928023542397,510.82352105170656"" stroke=""none"" stroke-width=""3"" fill = ""none"" />
    
    </svg>
    </div>
        ","","","","","","","","","","","","get_response","true","R1Za7vuaSGHs3XOr","","","false","true","false","225","3.85","597.808","82.5543122703649","1.41","1","0","","",""
"html-keyboard-response","52","169977","0.0-52.0","null","null","","
    <div style="" display: block;  position: relative;"">
    
    <svg width=1920 height=1080>
    <circle cx=897 cy=540 r=20.42353526380541 stroke=""black"" stroke-width=""1"" fill=""black"" />
    <circle cx=1204.5543122703648 cy=540 r=29.176478948293443 stroke=""none"" stroke-width=""1.5"" fill=""none"" />
    <circle cx=1122 cy=622.5543122703649 r=29.176478948293443 stroke=""none"" stroke-width=""1.5"" fill=""none"" />
    <circle cx=1039.4456877296352 cy=540 r=29.176478948293443 stroke=""none"" stroke-width=""1.5"" fill=""none"" />
    <circle cx=1122 cy=457.4456877296351 r=29.176478948293443 stroke=""none"" stroke-width=""1.5"" fill=""none"" />
    <polygon points = ""1122,540 1130.2071976457603,510.82352105170656 1113.7928023542397,510.82352105170656"" stroke=""none"" stroke-width=""3"" fill = ""none"" />
    
    </svg>
    </div>
        ","","","","","","","","","","","","","","","","","","","","","","","","","","","","",""
"html-keyboard-response","53","170128","0.0-53.0","null","null","","
    <div style="" display: block;  position: relative;"">
    <svg width=1920 height=1080>
    
    <circle cx=897 cy=540 r=20.42353526380541 stroke=""black"" stroke-width=""1"" fill=""black"" />
    <circle cx=672 cy=540 r=29.176478948293443 stroke=""black"" stroke-width=""1.5"" fill=""none"" />
    <circle cx=747.0493747912408 cy=540 r=29.176478948293443 stroke=""black"" stroke-width=""1.5"" fill=""none"" />
    <circle cx=672 cy=615.0493747912408 r=29.176478948293443 stroke=""black"" stroke-width=""1.5"" fill=""none"" />
    <circle cx=596.9506252087592 cy=540 r=29.176478948293443 stroke=""black"" stroke-width=""1.5"" fill=""none"" />
    <circle cx=672 cy=464.9506252087592 r=29.176478948293443 stroke=""black"" stroke-width=""1.5"" fill=""none"" />
    <polygon points = ""672,540 680.2071976457602,569.1764789482935 663.7928023542398,569.1764789482935"" stroke=""white"" stroke-width=""3"" fill = ""white"" />
    
    </svg>
    </div>
        ","","","","","","","","","","","","stimulus","","","","","","","","","","","","","","","","",""
"html-keyboard-response","54","170691","0.0-54.0","561.5999999940395","arrowdown","","
    <div style="" display: block;  position: relative;"">
    
    <svg width=1920 height=1080>
    <circle cx=897 cy=540 r=20.42353526380541 stroke=""black"" stroke-width=""1"" fill=""black"" />
    <circle cx=747.0493747912408 cy=540 r=29.176478948293443 stroke=""none"" stroke-width=""1.5"" fill=""none"" />
    <circle cx=672 cy=615.0493747912408 r=29.176478948293443 stroke=""none"" stroke-width=""1.5"" fill=""none"" />
    <circle cx=596.9506252087592 cy=540 r=29.176478948293443 stroke=""none"" stroke-width=""1.5"" fill=""none"" />
    <circle cx=672 cy=464.9506252087592 r=29.176478948293443 stroke=""none"" stroke-width=""1.5"" fill=""none"" />
    <polygon points = ""672,540 680.2071976457602,569.1764789482935 663.7928023542398,569.1764789482935"" stroke=""none"" stroke-width=""3"" fill = ""none"" />
    
    </svg>
    </div>
        ","","","","","","","","","","","","get_response","true","R1Za7vuaSGHs3XOr","","","true","false","false","225","3.85","597.808","75.04937479124081","1.28","1","0","","",""
"html-keyboard-response","55","171192","0.0-55.0","null","null","","
    <div style="" display: block;  position: relative;"">
    
    <svg width=1920 height=1080>
    <circle cx=897 cy=540 r=20.42353526380541 stroke=""black"" stroke-width=""1"" fill=""black"" />
    <circle cx=747.0493747912408 cy=540 r=29.176478948293443 stroke=""none"" stroke-width=""1.5"" fill=""none"" />
    <circle cx=672 cy=615.0493747912408 r=29.176478948293443 stroke=""none"" stroke-width=""1.5"" fill=""none"" />
    <circle cx=596.9506252087592 cy=540 r=29.176478948293443 stroke=""none"" stroke-width=""1.5"" fill=""none"" />
    <circle cx=672 cy=464.9506252087592 r=29.176478948293443 stroke=""none"" stroke-width=""1.5"" fill=""none"" />
    <polygon points = ""672,540 680.2071976457602,569.1764789482935 663.7928023542398,569.1764789482935"" stroke=""none"" stroke-width=""3"" fill = ""none"" />
    
    </svg>
    </div>
        ","","","","","","","","","","","","","","","","","","","","","","","","","","","","",""
"html-keyboard-response","56","171344","0.0-56.0","null","null","","
    <div style="" display: block;  position: relative;"">
    <svg width=1920 height=1080>
    
    <circle cx=897 cy=540 r=20.42353526380541 stroke=""black"" stroke-width=""1"" fill=""black"" />
    <circle cx=1122 cy=540 r=29.176478948293443 stroke=""black"" stroke-width=""1.5"" fill=""none"" />
    <circle cx=1190.2267043556735 cy=540 r=29.176478948293443 stroke=""black"" stroke-width=""1.5"" fill=""none"" />
    <circle cx=1122 cy=608.2267043556735 r=29.176478948293443 stroke=""black"" stroke-width=""1.5"" fill=""none"" />
    <circle cx=1053.7732956443265 cy=540 r=29.176478948293443 stroke=""black"" stroke-width=""1.5"" fill=""none"" />
    <circle cx=1122 cy=471.77329564432654 r=29.176478948293443 stroke=""black"" stroke-width=""1.5"" fill=""none"" />
    <polygon points = ""1122,540 1130.2071976457603,569.1764789482935 1113.7928023542397,569.1764789482935"" stroke=""white"" stroke-width=""3"" fill = ""white"" />
    
    </svg>
    </div>
        ","","","","","","","","","","","","stimulus","","","","","","","","","","","","","","","","",""
"html-keyboard-response","57","172092","0.0-57.0","747.3999999985099","arrowdown","","
    <div style="" display: block;  position: relative;"">
    
    <svg width=1920 height=1080>
    <circle cx=897 cy=540 r=20.42353526380541 stroke=""black"" stroke-width=""1"" fill=""black"" />
    <circle cx=1190.2267043556735 cy=540 r=29.176478948293443 stroke=""none"" stroke-width=""1.5"" fill=""none"" />
    <circle cx=1122 cy=608.2267043556735 r=29.176478948293443 stroke=""none"" stroke-width=""1.5"" fill=""none"" />
    <circle cx=1053.7732956443265 cy=540 r=29.176478948293443 stroke=""none"" stroke-width=""1.5"" fill=""none"" />
    <circle cx=1122 cy=471.77329564432654 r=29.176478948293443 stroke=""none"" stroke-width=""1.5"" fill=""none"" />
    <polygon points = ""1122,540 1130.2071976457603,569.1764789482935 1113.7928023542397,569.1764789482935"" stroke=""none"" stroke-width=""3"" fill = ""none"" />
    
    </svg>
    </div>
        ","","","","","","","","","","","","get_response","true","R1Za7vuaSGHs3XOr","","","false","false","false","225","3.85","597.808","68.22670435567346","1.17","1","0","","",""
"html-keyboard-response","58","172593","0.0-58.0","null","null","","
    <div style="" display: block;  position: relative;"">
    
    <svg width=1920 height=1080>
    <circle cx=897 cy=540 r=20.42353526380541 stroke=""black"" stroke-width=""1"" fill=""black"" />
    <circle cx=1190.2267043556735 cy=540 r=29.176478948293443 stroke=""none"" stroke-width=""1.5"" fill=""none"" />
    <circle cx=1122 cy=608.2267043556735 r=29.176478948293443 stroke=""none"" stroke-width=""1.5"" fill=""none"" />
    <circle cx=1053.7732956443265 cy=540 r=29.176478948293443 stroke=""none"" stroke-width=""1.5"" fill=""none"" />
    <circle cx=1122 cy=471.77329564432654 r=29.176478948293443 stroke=""none"" stroke-width=""1.5"" fill=""none"" />
    <polygon points = ""1122,540 1130.2071976457603,569.1764789482935 1113.7928023542397,569.1764789482935"" stroke=""none"" stroke-width=""3"" fill = ""none"" />
    
    </svg>
    </div>
        ","","","","","","","","","","","","","","","","","","","","","","","","","","","","",""
"html-keyboard-response","59","172744","0.0-59.0","null","null","","
    <div style="" display: block;  position: relative;"">
    <svg width=1920 height=1080>
    
    <circle cx=897 cy=540 r=20.42353526380541 stroke=""black"" stroke-width=""1"" fill=""black"" />
    <circle cx=1122 cy=540 r=29.176478948293443 stroke=""black"" stroke-width=""1.5"" fill=""none"" />
    <circle cx=1184.0242766869758 cy=540 r=29.176478948293443 stroke=""black"" stroke-width=""1.5"" fill=""none"" />
    <circle cx=1122 cy=602.0242766869759 r=29.176478948293443 stroke=""black"" stroke-width=""1.5"" fill=""none"" />
    <circle cx=1059.9757233130242 cy=540 r=29.176478948293443 stroke=""black"" stroke-width=""1.5"" fill=""none"" />
    <circle cx=1122 cy=477.9757233130241 r=29.176478948293443 stroke=""black"" stroke-width=""1.5"" fill=""none"" />
    <polygon points = ""1122,540 1130.2071976457603,569.1764789482935 1113.7928023542397,569.1764789482935"" stroke=""white"" stroke-width=""3"" fill = ""white"" />
    
    </svg>
    </div>
        ","","","","","","","","","","","","stimulus","","","","","","","","","","","","","","","","",""
"html-keyboard-response","60","173689","0.0-60.0","944.5","arrowdown","","
    <div style="" display: block;  position: relative;"">
    
    <svg width=1920 height=1080>
    <circle cx=897 cy=540 r=20.42353526380541 stroke=""black"" stroke-width=""1"" fill=""black"" />
    <circle cx=1184.0242766869758 cy=540 r=29.176478948293443 stroke=""none"" stroke-width=""1.5"" fill=""none"" />
    <circle cx=1122 cy=602.0242766869759 r=29.176478948293443 stroke=""none"" stroke-width=""1.5"" fill=""none"" />
    <circle cx=1059.9757233130242 cy=540 r=29.176478948293443 stroke=""none"" stroke-width=""1.5"" fill=""none"" />
    <circle cx=1122 cy=477.9757233130241 r=29.176478948293443 stroke=""none"" stroke-width=""1.5"" fill=""none"" />
    <polygon points = ""1122,540 1130.2071976457603,569.1764789482935 1113.7928023542397,569.1764789482935"" stroke=""none"" stroke-width=""3"" fill = ""none"" />
    
    </svg>
    </div>
        ","","","","","","","","","","","","get_response","true","R1Za7vuaSGHs3XOr","","","false","false","false","225","3.85","597.808","62.02427668697587","1.06","1","0","","",""
"html-keyboard-response","61","174190","0.0-61.0","null","null","","
    <div style="" display: block;  position: relative;"">
    
    <svg width=1920 height=1080>
    <circle cx=897 cy=540 r=20.42353526380541 stroke=""black"" stroke-width=""1"" fill=""black"" />
    <circle cx=1184.0242766869758 cy=540 r=29.176478948293443 stroke=""none"" stroke-width=""1.5"" fill=""none"" />
    <circle cx=1122 cy=602.0242766869759 r=29.176478948293443 stroke=""none"" stroke-width=""1.5"" fill=""none"" />
    <circle cx=1059.9757233130242 cy=540 r=29.176478948293443 stroke=""none"" stroke-width=""1.5"" fill=""none"" />
    <circle cx=1122 cy=477.9757233130241 r=29.176478948293443 stroke=""none"" stroke-width=""1.5"" fill=""none"" />
    <polygon points = ""1122,540 1130.2071976457603,569.1764789482935 1113.7928023542397,569.1764789482935"" stroke=""none"" stroke-width=""3"" fill = ""none"" />
    
    </svg>
    </div>
        ","","","","","","","","","","","","","","","","","","","","","","","","","","","","",""
"html-keyboard-response","62","174342","0.0-62.0","null","null","","
    <div style="" display: block;  position: relative;"">
    <svg width=1920 height=1080>
    
    <circle cx=897 cy=540 r=20.42353526380541 stroke=""black"" stroke-width=""1"" fill=""black"" />
    <circle cx=1122 cy=540 r=29.176478948293443 stroke=""black"" stroke-width=""1.5"" fill=""none"" />
    <circle cx=1180.352957896587 cy=540 r=29.176478948293443 stroke=""black"" stroke-width=""1.5"" fill=""none"" />
    <circle cx=1122 cy=598.3529578965869 r=29.176478948293443 stroke=""black"" stroke-width=""1.5"" fill=""none"" />
    <circle cx=1063.647042103413 cy=540 r=29.176478948293443 stroke=""black"" stroke-width=""1.5"" fill=""none"" />
    <circle cx=1122 cy=481.6470421034131 r=29.176478948293443 stroke=""black"" stroke-width=""1.5"" fill=""none"" />
    <polygon points = ""1122,540 1130.2071976457603,510.82352105170656 1113.7928023542397,510.82352105170656"" stroke=""white"" stroke-width=""3"" fill = ""white"" />
    
    </svg>
    </div>
        ","","","","","","","","","","","","stimulus","","","","","","","","","","","","","","","","",""
"html-keyboard-response","63","175086","0.0-63.0","744","arrowup","","
    <div style="" display: block;  position: relative;"">
    
    <svg width=1920 height=1080>
    <circle cx=897 cy=540 r=20.42353526380541 stroke=""black"" stroke-width=""1"" fill=""black"" />
    <circle cx=1180.352957896587 cy=540 r=29.176478948293443 stroke=""none"" stroke-width=""1.5"" fill=""none"" />
    <circle cx=1122 cy=598.3529578965869 r=29.176478948293443 stroke=""none"" stroke-width=""1.5"" fill=""none"" />
    <circle cx=1063.647042103413 cy=540 r=29.176478948293443 stroke=""none"" stroke-width=""1.5"" fill=""none"" />
    <circle cx=1122 cy=481.6470421034131 r=29.176478948293443 stroke=""none"" stroke-width=""1.5"" fill=""none"" />
    <polygon points = ""1122,540 1130.2071976457603,510.82352105170656 1113.7928023542397,510.82352105170656"" stroke=""none"" stroke-width=""3"" fill = ""none"" />
    
    </svg>
    </div>
        ","","","","","","","","","","","","get_response","true","R1Za7vuaSGHs3XOr","","","false","true","false","225","3.85","597.808","58.35295789658689","1","1","0","","",""
"html-keyboard-response","64","175587","0.0-64.0","null","null","","
    <div style="" display: block;  position: relative;"">
    
    <svg width=1920 height=1080>
    <circle cx=897 cy=540 r=20.42353526380541 stroke=""black"" stroke-width=""1"" fill=""black"" />
    <circle cx=1180.352957896587 cy=540 r=29.176478948293443 stroke=""none"" stroke-width=""1.5"" fill=""none"" />
    <circle cx=1122 cy=598.3529578965869 r=29.176478948293443 stroke=""none"" stroke-width=""1.5"" fill=""none"" />
    <circle cx=1063.647042103413 cy=540 r=29.176478948293443 stroke=""none"" stroke-width=""1.5"" fill=""none"" />
    <circle cx=1122 cy=481.6470421034131 r=29.176478948293443 stroke=""none"" stroke-width=""1.5"" fill=""none"" />
    <polygon points = ""1122,540 1130.2071976457603,510.82352105170656 1113.7928023542397,510.82352105170656"" stroke=""none"" stroke-width=""3"" fill = ""none"" />
    
    </svg>
    </div>
        ","","","","","","","","","","","","","","","","","","","","","","","","","","","","",""
"html-keyboard-response","65","175739","0.0-65.0","null","null","","
    <div style="" display: block;  position: relative;"">
    <svg width=1920 height=1080>
    
    <circle cx=897 cy=540 r=20.42353526380541 stroke=""black"" stroke-width=""1"" fill=""black"" />
    <circle cx=1122 cy=540 r=29.176478948293443 stroke=""black"" stroke-width=""1.5"" fill=""none"" />
    <circle cx=1180.352957896587 cy=540 r=29.176478948293443 stroke=""black"" stroke-width=""1.5"" fill=""none"" />
    <circle cx=1122 cy=598.3529578965869 r=29.176478948293443 stroke=""black"" stroke-width=""1.5"" fill=""none"" />
    <circle cx=1063.647042103413 cy=540 r=29.176478948293443 stroke=""black"" stroke-width=""1.5"" fill=""none"" />
    <circle cx=1122 cy=481.6470421034131 r=29.176478948293443 stroke=""black"" stroke-width=""1.5"" fill=""none"" />
    <polygon points = ""1122,540 1130.2071976457603,510.82352105170656 1113.7928023542397,510.82352105170656"" stroke=""white"" stroke-width=""3"" fill = ""white"" />
    
    </svg>
    </div>
        ","","","","","","","","","","","","stimulus","","","","","","","","","","","","","","","","",""
"html-keyboard-response","66","176550","0.0-66.0","810.3999999985099","arrowup","","
    <div style="" display: block;  position: relative;"">
    
    <svg width=1920 height=1080>
    <circle cx=897 cy=540 r=20.42353526380541 stroke=""black"" stroke-width=""1"" fill=""black"" />
    <circle cx=1180.352957896587 cy=540 r=29.176478948293443 stroke=""none"" stroke-width=""1.5"" fill=""none"" />
    <circle cx=1122 cy=598.3529578965869 r=29.176478948293443 stroke=""none"" stroke-width=""1.5"" fill=""none"" />
    <circle cx=1063.647042103413 cy=540 r=29.176478948293443 stroke=""none"" stroke-width=""1.5"" fill=""none"" />
    <circle cx=1122 cy=481.6470421034131 r=29.176478948293443 stroke=""none"" stroke-width=""1.5"" fill=""none"" />
    <polygon points = ""1122,540 1130.2071976457603,510.82352105170656 1113.7928023542397,510.82352105170656"" stroke=""none"" stroke-width=""3"" fill = ""none"" />
    
    </svg>
    </div>
        ","","","","","","","","","","","","get_response","true","R1Za7vuaSGHs3XOr","","","false","true","false","225","3.85","597.808","58.35295789658689","1","1","0","","",""
"html-keyboard-response","67","177051","0.0-67.0","null","null","","
    <div style="" display: block;  position: relative;"">
    
    <svg width=1920 height=1080>
    <circle cx=897 cy=540 r=20.42353526380541 stroke=""black"" stroke-width=""1"" fill=""black"" />
    <circle cx=1180.352957896587 cy=540 r=29.176478948293443 stroke=""none"" stroke-width=""1.5"" fill=""none"" />
    <circle cx=1122 cy=598.3529578965869 r=29.176478948293443 stroke=""none"" stroke-width=""1.5"" fill=""none"" />
    <circle cx=1063.647042103413 cy=540 r=29.176478948293443 stroke=""none"" stroke-width=""1.5"" fill=""none"" />
    <circle cx=1122 cy=481.6470421034131 r=29.176478948293443 stroke=""none"" stroke-width=""1.5"" fill=""none"" />
    <polygon points = ""1122,540 1130.2071976457603,510.82352105170656 1113.7928023542397,510.82352105170656"" stroke=""none"" stroke-width=""3"" fill = ""none"" />
    
    </svg>
    </div>
        ","","","","","","","","","","","","","","","","","","","","","","","","","","","","",""
"html-keyboard-response","68","177202","0.0-68.0","null","null","","
    <div style="" display: block;  position: relative;"">
    <svg width=1920 height=1080>
    
    <circle cx=897 cy=540 r=20.42353526380541 stroke=""black"" stroke-width=""1"" fill=""black"" />
    <circle cx=672 cy=540 r=29.176478948293443 stroke=""black"" stroke-width=""1.5"" fill=""none"" />
    <circle cx=730.3529578965869 cy=540 r=29.176478948293443 stroke=""black"" stroke-width=""1.5"" fill=""none"" />
    <circle cx=672 cy=598.3529578965869 r=29.176478948293443 stroke=""black"" stroke-width=""1.5"" fill=""none"" />
    <circle cx=613.6470421034131 cy=540 r=29.176478948293443 stroke=""black"" stroke-width=""1.5"" fill=""none"" />
    <circle cx=672 cy=481.6470421034131 r=29.176478948293443 stroke=""black"" stroke-width=""1.5"" fill=""none"" />
    <polygon points = ""672,540 680.2071976457602,569.1764789482935 663.7928023542398,569.1764789482935"" stroke=""white"" stroke-width=""3"" fill = ""white"" />
    
    </svg>
    </div>
        ","","","","","","","","","","","","stimulus","","","","","","","","","","","","","","","","",""
"html-keyboard-response","69","177758","0.0-69.0","555","arrowdown","","
    <div style="" display: block;  position: relative;"">
    
    <svg width=1920 height=1080>
    <circle cx=897 cy=540 r=20.42353526380541 stroke=""black"" stroke-width=""1"" fill=""black"" />
    <circle cx=730.3529578965869 cy=540 r=29.176478948293443 stroke=""none"" stroke-width=""1.5"" fill=""none"" />
    <circle cx=672 cy=598.3529578965869 r=29.176478948293443 stroke=""none"" stroke-width=""1.5"" fill=""none"" />
    <circle cx=613.6470421034131 cy=540 r=29.176478948293443 stroke=""none"" stroke-width=""1.5"" fill=""none"" />
    <circle cx=672 cy=481.6470421034131 r=29.176478948293443 stroke=""none"" stroke-width=""1.5"" fill=""none"" />
    <polygon points = ""672,540 680.2071976457602,569.1764789482935 663.7928023542398,569.1764789482935"" stroke=""none"" stroke-width=""3"" fill = ""none"" />
    
    </svg>
    </div>
        ","","","","","","","","","","","","get_response","true","R1Za7vuaSGHs3XOr","","","true","false","false","225","3.85","597.808","58.35295789658689","1","1","0","","",""
"html-keyboard-response","70","178260","0.0-70.0","null","null","","
    <div style="" display: block;  position: relative;"">
    
    <svg width=1920 height=1080>
    <circle cx=897 cy=540 r=20.42353526380541 stroke=""black"" stroke-width=""1"" fill=""black"" />
    <circle cx=730.3529578965869 cy=540 r=29.176478948293443 stroke=""none"" stroke-width=""1.5"" fill=""none"" />
    <circle cx=672 cy=598.3529578965869 r=29.176478948293443 stroke=""none"" stroke-width=""1.5"" fill=""none"" />
    <circle cx=613.6470421034131 cy=540 r=29.176478948293443 stroke=""none"" stroke-width=""1.5"" fill=""none"" />
    <circle cx=672 cy=481.6470421034131 r=29.176478948293443 stroke=""none"" stroke-width=""1.5"" fill=""none"" />
    <polygon points = ""672,540 680.2071976457602,569.1764789482935 663.7928023542398,569.1764789482935"" stroke=""none"" stroke-width=""3"" fill = ""none"" />
    
    </svg>
    </div>
        ","","","","","","","","","","","","","","","","","","","","","","","","","","","","",""
"html-keyboard-response","71","178411","0.0-71.0","null","null","","
    <div style="" display: block;  position: relative;"">
    <svg width=1920 height=1080>
    
    <circle cx=897 cy=540 r=20.42353526380541 stroke=""black"" stroke-width=""1"" fill=""black"" />
    <circle cx=1122 cy=540 r=29.176478948293443 stroke=""black"" stroke-width=""1.5"" fill=""none"" />
    <circle cx=1180.352957896587 cy=540 r=29.176478948293443 stroke=""black"" stroke-width=""1.5"" fill=""none"" />
    <circle cx=1122 cy=598.3529578965869 r=29.176478948293443 stroke=""black"" stroke-width=""1.5"" fill=""none"" />
    <circle cx=1063.647042103413 cy=540 r=29.176478948293443 stroke=""black"" stroke-width=""1.5"" fill=""none"" />
    <circle cx=1122 cy=481.6470421034131 r=29.176478948293443 stroke=""black"" stroke-width=""1.5"" fill=""none"" />
    <polygon points = ""1122,540 1130.2071976457603,510.82352105170656 1113.7928023542397,510.82352105170656"" stroke=""white"" stroke-width=""3"" fill = ""white"" />
    
    </svg>
    </div>
        ","","","","","","","","","","","","stimulus","","","","","","","","","","","","","","","","",""
"html-keyboard-response","72","178896","0.0-72.0","484.5","arrowup","","
    <div style="" display: block;  position: relative;"">
    
    <svg width=1920 height=1080>
    <circle cx=897 cy=540 r=20.42353526380541 stroke=""black"" stroke-width=""1"" fill=""black"" />
    <circle cx=1180.352957896587 cy=540 r=29.176478948293443 stroke=""none"" stroke-width=""1.5"" fill=""none"" />
    <circle cx=1122 cy=598.3529578965869 r=29.176478948293443 stroke=""none"" stroke-width=""1.5"" fill=""none"" />
    <circle cx=1063.647042103413 cy=540 r=29.176478948293443 stroke=""none"" stroke-width=""1.5"" fill=""none"" />
    <circle cx=1122 cy=481.6470421034131 r=29.176478948293443 stroke=""none"" stroke-width=""1.5"" fill=""none"" />
    <polygon points = ""1122,540 1130.2071976457603,510.82352105170656 1113.7928023542397,510.82352105170656"" stroke=""none"" stroke-width=""3"" fill = ""none"" />
    
    </svg>
    </div>
        ","","","","","","","","","","","","get_response","true","R1Za7vuaSGHs3XOr","","","false","true","false","225","3.85","597.808","58.35295789658689","1","1","0","","",""
"html-keyboard-response","73","179397","0.0-73.0","null","null","","
    <div style="" display: block;  position: relative;"">
    
    <svg width=1920 height=1080>
    <circle cx=897 cy=540 r=20.42353526380541 stroke=""black"" stroke-width=""1"" fill=""black"" />
    <circle cx=1180.352957896587 cy=540 r=29.176478948293443 stroke=""none"" stroke-width=""1.5"" fill=""none"" />
    <circle cx=1122 cy=598.3529578965869 r=29.176478948293443 stroke=""none"" stroke-width=""1.5"" fill=""none"" />
    <circle cx=1063.647042103413 cy=540 r=29.176478948293443 stroke=""none"" stroke-width=""1.5"" fill=""none"" />
    <circle cx=1122 cy=481.6470421034131 r=29.176478948293443 stroke=""none"" stroke-width=""1.5"" fill=""none"" />
    <polygon points = ""1122,540 1130.2071976457603,510.82352105170656 1113.7928023542397,510.82352105170656"" stroke=""none"" stroke-width=""3"" fill = ""none"" />
    
    </svg>
    </div>
        ","","","","","","","","","","","","","","","","","","","","","","","","","","","","",""
"html-keyboard-response","74","179549","0.0-74.0","null","null","","
    <div style="" display: block;  position: relative;"">
    <svg width=1920 height=1080>
    
    <circle cx=897 cy=540 r=20.42353526380541 stroke=""black"" stroke-width=""1"" fill=""black"" />
    <circle cx=672 cy=540 r=29.176478948293443 stroke=""black"" stroke-width=""1.5"" fill=""none"" />
    <circle cx=730.3529578965869 cy=540 r=29.176478948293443 stroke=""black"" stroke-width=""1.5"" fill=""none"" />
    <circle cx=672 cy=598.3529578965869 r=29.176478948293443 stroke=""black"" stroke-width=""1.5"" fill=""none"" />
    <circle cx=613.6470421034131 cy=540 r=29.176478948293443 stroke=""black"" stroke-width=""1.5"" fill=""none"" />
    <circle cx=672 cy=481.6470421034131 r=29.176478948293443 stroke=""black"" stroke-width=""1.5"" fill=""none"" />
    <polygon points = ""672,540 680.2071976457602,510.82352105170656 663.7928023542398,510.82352105170656"" stroke=""white"" stroke-width=""3"" fill = ""white"" />
    
    </svg>
    </div>
        ","","","","","","","","","","","","stimulus","","","","","","","","","","","","","","","","",""
"html-keyboard-response","75","180055","0.0-75.0","505.79999999701977","arrowdown","","
    <div style="" display: block;  position: relative;"">
    
    <svg width=1920 height=1080>
    <circle cx=897 cy=540 r=20.42353526380541 stroke=""black"" stroke-width=""1"" fill=""black"" />
    <circle cx=730.3529578965869 cy=540 r=29.176478948293443 stroke=""none"" stroke-width=""1.5"" fill=""none"" />
    <circle cx=672 cy=598.3529578965869 r=29.176478948293443 stroke=""none"" stroke-width=""1.5"" fill=""none"" />
    <circle cx=613.6470421034131 cy=540 r=29.176478948293443 stroke=""none"" stroke-width=""1.5"" fill=""none"" />
    <circle cx=672 cy=481.6470421034131 r=29.176478948293443 stroke=""none"" stroke-width=""1.5"" fill=""none"" />
    <polygon points = ""672,540 680.2071976457602,510.82352105170656 663.7928023542398,510.82352105170656"" stroke=""none"" stroke-width=""3"" fill = ""none"" />
    
    </svg>
    </div>
        ","","","","","","","","","","","","get_response","false","R1Za7vuaSGHs3XOr","","","true","true","false","225","3.85","597.808","58.35295789658689","1","1","0","","",""
"html-keyboard-response","76","180557","0.0-76.0","null","null","","
    <div style="" display: block;  position: relative;"">
    
    <svg width=1920 height=1080>
    <circle cx=897 cy=540 r=20.42353526380541 stroke=""black"" stroke-width=""1"" fill=""black"" />
    <circle cx=730.3529578965869 cy=540 r=29.176478948293443 stroke=""none"" stroke-width=""1.5"" fill=""none"" />
    <circle cx=672 cy=598.3529578965869 r=29.176478948293443 stroke=""none"" stroke-width=""1.5"" fill=""none"" />
    <circle cx=613.6470421034131 cy=540 r=29.176478948293443 stroke=""none"" stroke-width=""1.5"" fill=""none"" />
    <circle cx=672 cy=481.6470421034131 r=29.176478948293443 stroke=""none"" stroke-width=""1.5"" fill=""none"" />
    <polygon points = ""672,540 680.2071976457602,510.82352105170656 663.7928023542398,510.82352105170656"" stroke=""none"" stroke-width=""3"" fill = ""none"" />
    
    </svg>
    </div>
        ","","","","","","","","","","","","","","","","","","","","","","","","","","","","",""
"html-keyboard-response","77","180708","0.0-77.0","null","null","","
    <div style="" display: block;  position: relative;"">
    <svg width=1920 height=1080>
    
    <circle cx=897 cy=540 r=20.42353526380541 stroke=""black"" stroke-width=""1"" fill=""black"" />
    <circle cx=1122 cy=540 r=29.176478948293443 stroke=""black"" stroke-width=""1.5"" fill=""none"" />
    <circle cx=1197.8588452655629 cy=540 r=29.176478948293443 stroke=""black"" stroke-width=""1.5"" fill=""none"" />
    <circle cx=1122 cy=615.858845265563 r=29.176478948293443 stroke=""black"" stroke-width=""1.5"" fill=""none"" />
    <circle cx=1046.1411547344371 cy=540 r=29.176478948293443 stroke=""black"" stroke-width=""1.5"" fill=""none"" />
    <circle cx=1122 cy=464.14115473443707 r=29.176478948293443 stroke=""black"" stroke-width=""1.5"" fill=""none"" />
    <polygon points = ""1122,540 1130.2071976457603,569.1764789482935 1113.7928023542397,569.1764789482935"" stroke=""white"" stroke-width=""3"" fill = ""white"" />
    
    </svg>
    </div>
        ","","","","","","","","","","","","stimulus","","","","","","","","","","","","","","","","",""
"html-keyboard-response","78","181273","0.0-78.0","564.1000000014901","arrowdown","","
    <div style="" display: block;  position: relative;"">
    
    <svg width=1920 height=1080>
    <circle cx=897 cy=540 r=20.42353526380541 stroke=""black"" stroke-width=""1"" fill=""black"" />
    <circle cx=1197.8588452655629 cy=540 r=29.176478948293443 stroke=""none"" stroke-width=""1.5"" fill=""none"" />
    <circle cx=1122 cy=615.858845265563 r=29.176478948293443 stroke=""none"" stroke-width=""1.5"" fill=""none"" />
    <circle cx=1046.1411547344371 cy=540 r=29.176478948293443 stroke=""none"" stroke-width=""1.5"" fill=""none"" />
    <circle cx=1122 cy=464.14115473443707 r=29.176478948293443 stroke=""none"" stroke-width=""1.5"" fill=""none"" />
    <polygon points = ""1122,540 1130.2071976457603,569.1764789482935 1113.7928023542397,569.1764789482935"" stroke=""none"" stroke-width=""3"" fill = ""none"" />
    
    </svg>
    </div>
        ","","","","","","","","","","","","get_response","true","R1Za7vuaSGHs3XOr","","","false","false","false","225","3.85","597.808","75.85884526556295","1.3","1","0","","",""
"html-keyboard-response","79","181774","0.0-79.0","null","null","","
    <div style="" display: block;  position: relative;"">
    
    <svg width=1920 height=1080>
    <circle cx=897 cy=540 r=20.42353526380541 stroke=""black"" stroke-width=""1"" fill=""black"" />
    <circle cx=1197.8588452655629 cy=540 r=29.176478948293443 stroke=""none"" stroke-width=""1.5"" fill=""none"" />
    <circle cx=1122 cy=615.858845265563 r=29.176478948293443 stroke=""none"" stroke-width=""1.5"" fill=""none"" />
    <circle cx=1046.1411547344371 cy=540 r=29.176478948293443 stroke=""none"" stroke-width=""1.5"" fill=""none"" />
    <circle cx=1122 cy=464.14115473443707 r=29.176478948293443 stroke=""none"" stroke-width=""1.5"" fill=""none"" />
    <polygon points = ""1122,540 1130.2071976457603,569.1764789482935 1113.7928023542397,569.1764789482935"" stroke=""none"" stroke-width=""3"" fill = ""none"" />
    
    </svg>
    </div>
        ","","","","","","","","","","","","","","","","","","","","","","","","","","","","",""
"html-keyboard-response","80","181925","0.0-80.0","null","null","","
    <div style="" display: block;  position: relative;"">
    <svg width=1920 height=1080>
    
    <circle cx=897 cy=540 r=20.42353526380541 stroke=""black"" stroke-width=""1"" fill=""black"" />
    <circle cx=1122 cy=540 r=29.176478948293443 stroke=""black"" stroke-width=""1.5"" fill=""none"" />
    <circle cx=1197.8588452655629 cy=540 r=29.176478948293443 stroke=""black"" stroke-width=""1.5"" fill=""none"" />
    <circle cx=1122 cy=615.858845265563 r=29.176478948293443 stroke=""black"" stroke-width=""1.5"" fill=""none"" />
    <circle cx=1046.1411547344371 cy=540 r=29.176478948293443 stroke=""black"" stroke-width=""1.5"" fill=""none"" />
    <circle cx=1122 cy=464.14115473443707 r=29.176478948293443 stroke=""black"" stroke-width=""1.5"" fill=""none"" />
    <polygon points = ""1122,540 1130.2071976457603,569.1764789482935 1113.7928023542397,569.1764789482935"" stroke=""white"" stroke-width=""3"" fill = ""white"" />
    
    </svg>
    </div>
        ","","","","","","","","","","","","stimulus","","","","","","","","","","","","","","","","",""
"html-keyboard-response","81","182569","0.0-81.0","643.6999999955297","arrowdown","","
    <div style="" display: block;  position: relative;"">
    
    <svg width=1920 height=1080>
    <circle cx=897 cy=540 r=20.42353526380541 stroke=""black"" stroke-width=""1"" fill=""black"" />
    <circle cx=1197.8588452655629 cy=540 r=29.176478948293443 stroke=""none"" stroke-width=""1.5"" fill=""none"" />
    <circle cx=1122 cy=615.858845265563 r=29.176478948293443 stroke=""none"" stroke-width=""1.5"" fill=""none"" />
    <circle cx=1046.1411547344371 cy=540 r=29.176478948293443 stroke=""none"" stroke-width=""1.5"" fill=""none"" />
    <circle cx=1122 cy=464.14115473443707 r=29.176478948293443 stroke=""none"" stroke-width=""1.5"" fill=""none"" />
    <polygon points = ""1122,540 1130.2071976457603,569.1764789482935 1113.7928023542397,569.1764789482935"" stroke=""none"" stroke-width=""3"" fill = ""none"" />
    
    </svg>
    </div>
        ","","","","","","","","","","","","get_response","true","R1Za7vuaSGHs3XOr","","","false","false","false","225","3.85","597.808","75.85884526556295","1.3","1","0","","",""
"html-keyboard-response","82","183070","0.0-82.0","null","null","","
    <div style="" display: block;  position: relative;"">
    
    <svg width=1920 height=1080>
    <circle cx=897 cy=540 r=20.42353526380541 stroke=""black"" stroke-width=""1"" fill=""black"" />
    <circle cx=1197.8588452655629 cy=540 r=29.176478948293443 stroke=""none"" stroke-width=""1.5"" fill=""none"" />
    <circle cx=1122 cy=615.858845265563 r=29.176478948293443 stroke=""none"" stroke-width=""1.5"" fill=""none"" />
    <circle cx=1046.1411547344371 cy=540 r=29.176478948293443 stroke=""none"" stroke-width=""1.5"" fill=""none"" />
    <circle cx=1122 cy=464.14115473443707 r=29.176478948293443 stroke=""none"" stroke-width=""1.5"" fill=""none"" />
    <polygon points = ""1122,540 1130.2071976457603,569.1764789482935 1113.7928023542397,569.1764789482935"" stroke=""none"" stroke-width=""3"" fill = ""none"" />
    
    </svg>
    </div>
        ","","","","","","","","","","","","","","","","","","","","","","","","","","","","",""
"html-keyboard-response","83","183221","0.0-83.0","null","null","","
    <div style="" display: block;  position: relative;"">
    <svg width=1920 height=1080>
    
    <circle cx=897 cy=540 r=20.42353526380541 stroke=""black"" stroke-width=""1"" fill=""black"" />
    <circle cx=1122 cy=540 r=29.176478948293443 stroke=""black"" stroke-width=""1.5"" fill=""none"" />
    <circle cx=1197.8588452655629 cy=540 r=29.176478948293443 stroke=""black"" stroke-width=""1.5"" fill=""none"" />
    <circle cx=1122 cy=615.858845265563 r=29.176478948293443 stroke=""black"" stroke-width=""1.5"" fill=""none"" />
    <circle cx=1046.1411547344371 cy=540 r=29.176478948293443 stroke=""black"" stroke-width=""1.5"" fill=""none"" />
    <circle cx=1122 cy=464.14115473443707 r=29.176478948293443 stroke=""black"" stroke-width=""1.5"" fill=""none"" />
    <polygon points = ""1122,540 1130.2071976457603,569.1764789482935 1113.7928023542397,569.1764789482935"" stroke=""white"" stroke-width=""3"" fill = ""white"" />
    
    </svg>
    </div>
        ","","","","","","","","","","","","stimulus","","","","","","","","","","","","","","","","",""
"html-keyboard-response","84","183844","0.0-84.0","622","arrowdown","","
    <div style="" display: block;  position: relative;"">
    
    <svg width=1920 height=1080>
    <circle cx=897 cy=540 r=20.42353526380541 stroke=""black"" stroke-width=""1"" fill=""black"" />
    <circle cx=1197.8588452655629 cy=540 r=29.176478948293443 stroke=""none"" stroke-width=""1.5"" fill=""none"" />
    <circle cx=1122 cy=615.858845265563 r=29.176478948293443 stroke=""none"" stroke-width=""1.5"" fill=""none"" />
    <circle cx=1046.1411547344371 cy=540 r=29.176478948293443 stroke=""none"" stroke-width=""1.5"" fill=""none"" />
    <circle cx=1122 cy=464.14115473443707 r=29.176478948293443 stroke=""none"" stroke-width=""1.5"" fill=""none"" />
    <polygon points = ""1122,540 1130.2071976457603,569.1764789482935 1113.7928023542397,569.1764789482935"" stroke=""none"" stroke-width=""3"" fill = ""none"" />
    
    </svg>
    </div>
        ","","","","","","","","","","","","get_response","true","R1Za7vuaSGHs3XOr","","","false","false","false","225","3.85","597.808","75.85884526556295","1.3","1","0","","",""
"html-keyboard-response","85","184345","0.0-85.0","null","null","","
    <div style="" display: block;  position: relative;"">
    
    <svg width=1920 height=1080>
    <circle cx=897 cy=540 r=20.42353526380541 stroke=""black"" stroke-width=""1"" fill=""black"" />
    <circle cx=1197.8588452655629 cy=540 r=29.176478948293443 stroke=""none"" stroke-width=""1.5"" fill=""none"" />
    <circle cx=1122 cy=615.858845265563 r=29.176478948293443 stroke=""none"" stroke-width=""1.5"" fill=""none"" />
    <circle cx=1046.1411547344371 cy=540 r=29.176478948293443 stroke=""none"" stroke-width=""1.5"" fill=""none"" />
    <circle cx=1122 cy=464.14115473443707 r=29.176478948293443 stroke=""none"" stroke-width=""1.5"" fill=""none"" />
    <polygon points = ""1122,540 1130.2071976457603,569.1764789482935 1113.7928023542397,569.1764789482935"" stroke=""none"" stroke-width=""3"" fill = ""none"" />
    
    </svg>
    </div>
        ","","","","","","","","","","","","","","","","","","","","","","","","","","","","",""
"html-keyboard-response","86","184496","0.0-86.0","null","null","","
    <div style="" display: block;  position: relative;"">
    <svg width=1920 height=1080>
    
    <circle cx=897 cy=540 r=20.42353526380541 stroke=""black"" stroke-width=""1"" fill=""black"" />
    <circle cx=1122 cy=540 r=29.176478948293443 stroke=""black"" stroke-width=""1.5"" fill=""none"" />
    <circle cx=1190.9625866050571 cy=540 r=29.176478948293443 stroke=""black"" stroke-width=""1.5"" fill=""none"" />
    <circle cx=1122 cy=608.9625866050573 r=29.176478948293443 stroke=""black"" stroke-width=""1.5"" fill=""none"" />
    <circle cx=1053.0374133949429 cy=540 r=29.176478948293443 stroke=""black"" stroke-width=""1.5"" fill=""none"" />
    <circle cx=1122 cy=471.03741339494275 r=29.176478948293443 stroke=""black"" stroke-width=""1.5"" fill=""none"" />
    <polygon points = ""1122,540 1130.2071976457603,569.1764789482935 1113.7928023542397,569.1764789482935"" stroke=""white"" stroke-width=""3"" fill = ""white"" />
    
    </svg>
    </div>
        ","","","","","","","","","","","","stimulus","","","","","","","","","","","","","","","","",""
"html-keyboard-response","87","185239","0.0-87.0","741.8999999985099","arrowdown","","
    <div style="" display: block;  position: relative;"">
    
    <svg width=1920 height=1080>
    <circle cx=897 cy=540 r=20.42353526380541 stroke=""black"" stroke-width=""1"" fill=""black"" />
    <circle cx=1190.9625866050571 cy=540 r=29.176478948293443 stroke=""none"" stroke-width=""1.5"" fill=""none"" />
    <circle cx=1122 cy=608.9625866050573 r=29.176478948293443 stroke=""none"" stroke-width=""1.5"" fill=""none"" />
    <circle cx=1053.0374133949429 cy=540 r=29.176478948293443 stroke=""none"" stroke-width=""1.5"" fill=""none"" />
    <circle cx=1122 cy=471.03741339494275 r=29.176478948293443 stroke=""none"" stroke-width=""1.5"" fill=""none"" />
    <polygon points = ""1122,540 1130.2071976457603,569.1764789482935 1113.7928023542397,569.1764789482935"" stroke=""none"" stroke-width=""3"" fill = ""none"" />
    
    </svg>
    </div>
        ","","","","","","","","","","","","get_response","true","R1Za7vuaSGHs3XOr","","","false","false","false","225","3.85","597.808","68.96258660505723","1.18","1","0","","",""
"html-keyboard-response","88","185740","0.0-88.0","null","null","","
    <div style="" display: block;  position: relative;"">
    
    <svg width=1920 height=1080>
    <circle cx=897 cy=540 r=20.42353526380541 stroke=""black"" stroke-width=""1"" fill=""black"" />
    <circle cx=1190.9625866050571 cy=540 r=29.176478948293443 stroke=""none"" stroke-width=""1.5"" fill=""none"" />
    <circle cx=1122 cy=608.9625866050573 r=29.176478948293443 stroke=""none"" stroke-width=""1.5"" fill=""none"" />
    <circle cx=1053.0374133949429 cy=540 r=29.176478948293443 stroke=""none"" stroke-width=""1.5"" fill=""none"" />
    <circle cx=1122 cy=471.03741339494275 r=29.176478948293443 stroke=""none"" stroke-width=""1.5"" fill=""none"" />
    <polygon points = ""1122,540 1130.2071976457603,569.1764789482935 1113.7928023542397,569.1764789482935"" stroke=""none"" stroke-width=""3"" fill = ""none"" />
    
    </svg>
    </div>
        ","","","","","","","","","","","","","","","","","","","","","","","","","","","","",""
"html-keyboard-response","89","185892","0.0-89.0","null","null","","
    <div style="" display: block;  position: relative;"">
    <svg width=1920 height=1080>
    
    <circle cx=897 cy=540 r=20.42353526380541 stroke=""black"" stroke-width=""1"" fill=""black"" />
    <circle cx=672 cy=540 r=29.176478948293443 stroke=""black"" stroke-width=""1.5"" fill=""none"" />
    <circle cx=734.6932605500521 cy=540 r=29.176478948293443 stroke=""black"" stroke-width=""1.5"" fill=""none"" />
    <circle cx=672 cy=602.6932605500521 r=29.176478948293443 stroke=""black"" stroke-width=""1.5"" fill=""none"" />
    <circle cx=609.3067394499479 cy=540 r=29.176478948293443 stroke=""black"" stroke-width=""1.5"" fill=""none"" />
    <circle cx=672 cy=477.306739449948 r=29.176478948293443 stroke=""black"" stroke-width=""1.5"" fill=""none"" />
    <polygon points = ""672,540 680.2071976457602,510.82352105170656 663.7928023542398,510.82352105170656"" stroke=""white"" stroke-width=""3"" fill = ""white"" />
    
    </svg>
    </div>
        ","","","","","","","","","","","","stimulus","","","","","","","","","","","","","","","","",""
"html-keyboard-response","90","186818","0.0-90.0","925.7999999970198","arrowdown","","
    <div style="" display: block;  position: relative;"">
    
    <svg width=1920 height=1080>
    <circle cx=897 cy=540 r=20.42353526380541 stroke=""black"" stroke-width=""1"" fill=""black"" />
    <circle cx=734.6932605500521 cy=540 r=29.176478948293443 stroke=""none"" stroke-width=""1.5"" fill=""none"" />
    <circle cx=672 cy=602.6932605500521 r=29.176478948293443 stroke=""none"" stroke-width=""1.5"" fill=""none"" />
    <circle cx=609.3067394499479 cy=540 r=29.176478948293443 stroke=""none"" stroke-width=""1.5"" fill=""none"" />
    <circle cx=672 cy=477.306739449948 r=29.176478948293443 stroke=""none"" stroke-width=""1.5"" fill=""none"" />
    <polygon points = ""672,540 680.2071976457602,510.82352105170656 663.7928023542398,510.82352105170656"" stroke=""none"" stroke-width=""3"" fill = ""none"" />
    
    </svg>
    </div>
        ","","","","","","","","","","","","get_response","false","R1Za7vuaSGHs3XOr","","","true","true","false","225","3.85","597.808","62.69326055005202","1.07","1","0","","",""
"html-keyboard-response","91","187319","0.0-91.0","null","null","","
    <div style="" display: block;  position: relative;"">
    
    <svg width=1920 height=1080>
    <circle cx=897 cy=540 r=20.42353526380541 stroke=""black"" stroke-width=""1"" fill=""black"" />
    <circle cx=734.6932605500521 cy=540 r=29.176478948293443 stroke=""none"" stroke-width=""1.5"" fill=""none"" />
    <circle cx=672 cy=602.6932605500521 r=29.176478948293443 stroke=""none"" stroke-width=""1.5"" fill=""none"" />
    <circle cx=609.3067394499479 cy=540 r=29.176478948293443 stroke=""none"" stroke-width=""1.5"" fill=""none"" />
    <circle cx=672 cy=477.306739449948 r=29.176478948293443 stroke=""none"" stroke-width=""1.5"" fill=""none"" />
    <polygon points = ""672,540 680.2071976457602,510.82352105170656 663.7928023542398,510.82352105170656"" stroke=""none"" stroke-width=""3"" fill = ""none"" />
    
    </svg>
    </div>
        ","","","","","","","","","","","","","","","","","","","","","","","","","","","","",""
"html-keyboard-response","92","187480","0.0-92.0","null","null","","
    <div style="" display: block;  position: relative;"">
    <svg width=1920 height=1080>
    
    <circle cx=897 cy=540 r=20.42353526380541 stroke=""black"" stroke-width=""1"" fill=""black"" />
    <circle cx=672 cy=540 r=29.176478948293443 stroke=""black"" stroke-width=""1.5"" fill=""none"" />
    <circle cx=753.5012387150676 cy=540 r=29.176478948293443 stroke=""black"" stroke-width=""1.5"" fill=""none"" />
    <circle cx=672 cy=621.5012387150676 r=29.176478948293443 stroke=""black"" stroke-width=""1.5"" fill=""none"" />
    <circle cx=590.4987612849324 cy=540 r=29.176478948293443 stroke=""black"" stroke-width=""1.5"" fill=""none"" />
    <circle cx=672 cy=458.49876128493236 r=29.176478948293443 stroke=""black"" stroke-width=""1.5"" fill=""none"" />
    <polygon points = ""672,540 680.2071976457602,569.1764789482935 663.7928023542398,569.1764789482935"" stroke=""white"" stroke-width=""3"" fill = ""white"" />
    
    </svg>
    </div>
        ","","","","","","","","","","","","stimulus","","","","","","","","","","","","","","","","",""
"html-keyboard-response","93","188099","0.0-93.0","617.9000000059605","arrowdown","","
    <div style="" display: block;  position: relative;"">
    
    <svg width=1920 height=1080>
    <circle cx=897 cy=540 r=20.42353526380541 stroke=""black"" stroke-width=""1"" fill=""black"" />
    <circle cx=753.5012387150676 cy=540 r=29.176478948293443 stroke=""none"" stroke-width=""1.5"" fill=""none"" />
    <circle cx=672 cy=621.5012387150676 r=29.176478948293443 stroke=""none"" stroke-width=""1.5"" fill=""none"" />
    <circle cx=590.4987612849324 cy=540 r=29.176478948293443 stroke=""none"" stroke-width=""1.5"" fill=""none"" />
    <circle cx=672 cy=458.49876128493236 r=29.176478948293443 stroke=""none"" stroke-width=""1.5"" fill=""none"" />
    <polygon points = ""672,540 680.2071976457602,569.1764789482935 663.7928023542398,569.1764789482935"" stroke=""none"" stroke-width=""3"" fill = ""none"" />
    
    </svg>
    </div>
        ","","","","","","","","","","","","get_response","true","R1Za7vuaSGHs3XOr","","","true","false","false","225","3.85","597.808","81.50123871506763","1.39","1","0","","",""
"html-keyboard-response","94","188600","0.0-94.0","null","null","","
    <div style="" display: block;  position: relative;"">
    
    <svg width=1920 height=1080>
    <circle cx=897 cy=540 r=20.42353526380541 stroke=""black"" stroke-width=""1"" fill=""black"" />
    <circle cx=753.5012387150676 cy=540 r=29.176478948293443 stroke=""none"" stroke-width=""1.5"" fill=""none"" />
    <circle cx=672 cy=621.5012387150676 r=29.176478948293443 stroke=""none"" stroke-width=""1.5"" fill=""none"" />
    <circle cx=590.4987612849324 cy=540 r=29.176478948293443 stroke=""none"" stroke-width=""1.5"" fill=""none"" />
    <circle cx=672 cy=458.49876128493236 r=29.176478948293443 stroke=""none"" stroke-width=""1.5"" fill=""none"" />
    <polygon points = ""672,540 680.2071976457602,569.1764789482935 663.7928023542398,569.1764789482935"" stroke=""none"" stroke-width=""3"" fill = ""none"" />
    
    </svg>
    </div>
        ","","","","","","","","","","","","","","","","","","","","","","","","","","","","",""
"html-keyboard-response","95","188752","0.0-95.0","null","null","","
    <div style="" display: block;  position: relative;"">
    <svg width=1920 height=1080>
    
    <circle cx=897 cy=540 r=20.42353526380541 stroke=""black"" stroke-width=""1"" fill=""black"" />
    <circle cx=672 cy=540 r=29.176478948293443 stroke=""black"" stroke-width=""1.5"" fill=""none"" />
    <circle cx=753.5012387150676 cy=540 r=29.176478948293443 stroke=""black"" stroke-width=""1.5"" fill=""none"" />
    <circle cx=672 cy=621.5012387150676 r=29.176478948293443 stroke=""black"" stroke-width=""1.5"" fill=""none"" />
    <circle cx=590.4987612849324 cy=540 r=29.176478948293443 stroke=""black"" stroke-width=""1.5"" fill=""none"" />
    <circle cx=672 cy=458.49876128493236 r=29.176478948293443 stroke=""black"" stroke-width=""1.5"" fill=""none"" />
    <polygon points = ""672,540 680.2071976457602,510.82352105170656 663.7928023542398,510.82352105170656"" stroke=""white"" stroke-width=""3"" fill = ""white"" />
    
    </svg>
    </div>
        ","","","","","","","","","","","","stimulus","","","","","","","","","","","","","","","","",""
"html-keyboard-response","96","189467","0.0-96.0","713.7999999970198","arrowup","","
    <div style="" display: block;  position: relative;"">
    
    <svg width=1920 height=1080>
    <circle cx=897 cy=540 r=20.42353526380541 stroke=""black"" stroke-width=""1"" fill=""black"" />
    <circle cx=753.5012387150676 cy=540 r=29.176478948293443 stroke=""none"" stroke-width=""1.5"" fill=""none"" />
    <circle cx=672 cy=621.5012387150676 r=29.176478948293443 stroke=""none"" stroke-width=""1.5"" fill=""none"" />
    <circle cx=590.4987612849324 cy=540 r=29.176478948293443 stroke=""none"" stroke-width=""1.5"" fill=""none"" />
    <circle cx=672 cy=458.49876128493236 r=29.176478948293443 stroke=""none"" stroke-width=""1.5"" fill=""none"" />
    <polygon points = ""672,540 680.2071976457602,510.82352105170656 663.7928023542398,510.82352105170656"" stroke=""none"" stroke-width=""3"" fill = ""none"" />
    
    </svg>
    </div>
        ","","","","","","","","","","","","get_response","true","R1Za7vuaSGHs3XOr","","","true","true","false","225","3.85","597.808","81.50123871506763","1.39","1","0","","",""
"html-keyboard-response","97","189968","0.0-97.0","null","null","","
    <div style="" display: block;  position: relative;"">
    
    <svg width=1920 height=1080>
    <circle cx=897 cy=540 r=20.42353526380541 stroke=""black"" stroke-width=""1"" fill=""black"" />
    <circle cx=753.5012387150676 cy=540 r=29.176478948293443 stroke=""none"" stroke-width=""1.5"" fill=""none"" />
    <circle cx=672 cy=621.5012387150676 r=29.176478948293443 stroke=""none"" stroke-width=""1.5"" fill=""none"" />
    <circle cx=590.4987612849324 cy=540 r=29.176478948293443 stroke=""none"" stroke-width=""1.5"" fill=""none"" />
    <circle cx=672 cy=458.49876128493236 r=29.176478948293443 stroke=""none"" stroke-width=""1.5"" fill=""none"" />
    <polygon points = ""672,540 680.2071976457602,510.82352105170656 663.7928023542398,510.82352105170656"" stroke=""none"" stroke-width=""3"" fill = ""none"" />
    
    </svg>
    </div>
