"trial_type","trial_index","time_elapsed","internal_node_id","rt","response","success","stimulus","start_time","start_time_unix","item_width_mm","item_height_mm","item_width_px","px2mm","view_dist_mm","item_width_deg","px2deg","win_width_deg","win_height_deg","trialType","correct","participantID","criticalSpacing","criticalSpacing_deg","isLeft","isUp","isEccen4","eccentricity","eccentricity_deg","viewingDistanceMean","critical_spacing","critical_spacing_deg","crowding_session","correctRate","viewDistance_1","viewDistance_2","viewDistance_3"
"pavlovia","0","20","0.0-0.0","","","","","","","","","","","","","","","","","","","","","","","","","","","","","","","","",""
"survey-text","1","4948","0.0-1.0","4724.9000000003725","{""Q0"":""""}","","","","","","","","","","","","","","","","","","","","","","","","","","","","","","",""
"fullscreen","2","8493","0.0-2.0","","","true","","","","","","","","","","","","","","","","","","","","","","","","","","","","","",""
"html-keyboard-response","3","10478","0.0-3.0","1968.5"," ","","<h1>Consent Form</h1>
       <p>By answering the following questions, you are participating in a study being performed by cognitive scientists in the Stanford Department of Psychology. If you have questions about this research, please contact us at stanfordpsych251@gmail.com. You must be at least 18 years old to participate. Your participation in this research is voluntary. You may decline to answer any or all of the following questions. You may decline further participation by closing the window, at any time, without adverse consequences. Your anonymity is assured; the researchers who have requested your participation will not receive any personal information about you.</p>
       <p>Press <b>any key</b> to start the experiment!</p>","","","","","","","","","","","","","","","","","","","","","","","","","","","","",""
"html-keyboard-response","4","11970","0.0-4.0","1489.3999999999069"," ","","<h1>Welcome to the Visual Crowding Experiment!</h1>
       <p>This test will take <b>10-12</b> minutes to complete.</p>
       <p>Press any key to start the experiment!</p>","12/1/2021, 9:24:43 AM","1638343483497","","","","","","","","","","","","","","","","","","","","","","","","","","",""
"html-keyboard-response","5","14968","0.0-5.0","2986.600000000093","arrowdown","","<div> 
<p> Before you begin this study, let&#39;s quickly test how far away you are sitting. You might know that vision tests at a doctor&#39;s practice often involve chinrests, the doctor basically asks you to sit away from a screen in a specific distance. We do this here with a <b>virtual chinrest</b>. </p>
<p> Please press the <b>down</b> arrow to continue.
</p>
</div>","","","","","","","","","","","","","","","","","","","","","","","","","","","","",""
"virtual-chinrest","6","82722","0.0-6.0","67740.6000000001","","","","","","85.6","53.98","392","4.58","683.03","7.171155841538862","54.663433435561835","24.989282855974707","14.049611444647567","","","","","","","","","","","","","","","","","",""
"html-keyboard-response","7","129526","0.0-7.0","46767.89999999991","arrowdown","","
	<h2 class=""bolded-blue"">Now, you will take a peripheral vision test!</h2>
<p> 
	<b>
		<font size=""140%"">1. </font>
	</b>
	<em><b>Please use both eyes for the following task.</b></em> First, you will see a screen (like the one in the image below) showing a <b>black dot</b> in the middle of the screen, with a group of circles displayed on either the <span class=""bolded-blue"">left</span> or <span class=""bolded-blue"">right</span> of the black dot for 150 ms. <span class=""bolded-blue"">Please make sure to focus on the black dot all the time!</span>

	<div>
		<img src=""example.png"" alt=""example"" style=""border: 2px solid black"" width=""600""/> 
	</div>
	
	<b>
		<font size=""140%"">2. </font>
	</b>
	Your task is to identify whether the opening of the <b class=""bolded-blue"">center circle</b> is upward by pressing UP or downward by pressing DOWN on your keyboard. The opening of the circle will only be upward or downward, not towards left or right.

	<div>
		<img src=""arrow_keys+.png"" alt=""arrows"" style=""border: 2px solid black"" width=""600""/>
	</div>
	<br>

<p>Please press the <b>down</b> arrow key to start the <span class=""bolded-blue"">practice task</span> (this first practice task will not count toward your final results).</p>
</p>
","","","","","","","","","","","","","","","","","","","","","","","","","","","","",""
"html-keyboard-response","8","130045","0.0-8.0","null","null","","
    <div style="" display: block;  position: relative;"">
    
    <svg width=1366 height=768>
    <circle cx=620 cy=384 r=19.294165705624263 stroke=""black"" stroke-width=""1"" fill=""black"" />
    <circle cx=NaN cy=384 r=27.56309386517752 stroke=""none"" stroke-width=""1.5"" fill=""none"" />
    <circle cx=399.21000000000004 cy=NaN r=27.56309386517752 stroke=""none"" stroke-width=""1.5"" fill=""none"" />
    <circle cx=NaN cy=384 r=27.56309386517752 stroke=""none"" stroke-width=""1.5"" fill=""none"" />
    <circle cx=399.21000000000004 cy=NaN r=27.56309386517752 stroke=""none"" stroke-width=""1.5"" fill=""none"" />
    <polygon points = ""399.21000000000004,384 406.96336048880517,411.5630938651775 391.4566395111949,411.5630938651775"" stroke=""none"" stroke-width=""3"" fill = ""none"" />
    
    </svg>
    </div>
        ","","","","","","","","","","","","","","","","","","","","","","","","","","","","",""
"html-keyboard-response","9","130208","0.0-9.0","null","null","","
    <div style="" display: block;  position: relative;"">
    <svg width=1366 height=768>
    
    <circle cx=620 cy=384 r=19.294165705624263 stroke=""black"" stroke-width=""1"" fill=""black"" />
    <circle cx=399.21000000000004 cy=384 r=27.56309386517752 stroke=""black"" stroke-width=""1.5"" fill=""none"" />
    <circle cx=542.7235000000001 cy=384 r=27.56309386517752 stroke=""black"" stroke-width=""1.5"" fill=""none"" />
    <circle cx=399.21000000000004 cy=527.5135 r=27.56309386517752 stroke=""black"" stroke-width=""1.5"" fill=""none"" />
    <circle cx=255.69650000000004 cy=384 r=27.56309386517752 stroke=""black"" stroke-width=""1.5"" fill=""none"" />
    <circle cx=399.21000000000004 cy=240.4865 r=27.56309386517752 stroke=""black"" stroke-width=""1.5"" fill=""none"" />
    <polygon points = ""399.21000000000004,384 406.96336048880517,356.4369061348225 391.4566395111949,356.4369061348225"" stroke=""white"" stroke-width=""3"" fill = ""white"" />
    
    </svg>
    </div>
        ","","","","","","","","","","","","stimulus","","","","","","","","","","","","","","","","",""
"html-keyboard-response","10","144427","0.0-10.0","14209.099999999627","arrowup","","
    <div style="" display: block;  position: relative;"">
    
    <svg width=1366 height=768>
    <circle cx=620 cy=384 r=19.294165705624263 stroke=""black"" stroke-width=""1"" fill=""black"" />
    <circle cx=542.7235000000001 cy=384 r=27.56309386517752 stroke=""none"" stroke-width=""1.5"" fill=""none"" />
    <circle cx=399.21000000000004 cy=527.5135 r=27.56309386517752 stroke=""none"" stroke-width=""1.5"" fill=""none"" />
    <circle cx=255.69650000000004 cy=384 r=27.56309386517752 stroke=""none"" stroke-width=""1.5"" fill=""none"" />
    <circle cx=399.21000000000004 cy=240.4865 r=27.56309386517752 stroke=""none"" stroke-width=""1.5"" fill=""none"" />
    <polygon points = ""399.21000000000004,384 406.96336048880517,356.4369061348225 391.4566395111949,356.4369061348225"" stroke=""none"" stroke-width=""3"" fill = ""none"" />
    
    </svg>
    </div>
        ","","","","","","","","","","","","practice_get_response","true","QK4JQKpOu241j0RH","143.5135","2.6","true","true","false","220.79","4","691.758","","","","","","",""
"html-keyboard-response","11","144953","0.0-11.0","null","null","","
    <div style="" display: block;  position: relative;"">
    
    <svg width=1366 height=768>
    <circle cx=620 cy=384 r=19.294165705624263 stroke=""black"" stroke-width=""1"" fill=""black"" />
    <circle cx=542.7235000000001 cy=384 r=27.56309386517752 stroke=""none"" stroke-width=""1.5"" fill=""none"" />
    <circle cx=399.21000000000004 cy=527.5135 r=27.56309386517752 stroke=""none"" stroke-width=""1.5"" fill=""none"" />
    <circle cx=255.69650000000004 cy=384 r=27.56309386517752 stroke=""none"" stroke-width=""1.5"" fill=""none"" />
    <circle cx=399.21000000000004 cy=240.4865 r=27.56309386517752 stroke=""none"" stroke-width=""1.5"" fill=""none"" />
    <polygon points = ""399.21000000000004,384 406.96336048880517,356.4369061348225 391.4566395111949,356.4369061348225"" stroke=""none"" stroke-width=""3"" fill = ""none"" />
    
    </svg>
    </div>
        ","","","","","","","","","","","","","","","","","","","","","","","","","","","","",""
"html-keyboard-response","12","145126","0.0-12.0","155.29999999981374","arrowdown","","
    <div style="" display: block;  position: relative;"">
    <svg width=1366 height=768>
    
    <circle cx=620 cy=384 r=19.294165705624263 stroke=""black"" stroke-width=""1"" fill=""black"" />
    <circle cx=840.79 cy=384 r=27.56309386517752 stroke=""black"" stroke-width=""1.5"" fill=""none"" />
    <circle cx=984.3035 cy=384 r=27.56309386517752 stroke=""black"" stroke-width=""1.5"" fill=""none"" />
    <circle cx=840.79 cy=527.5135 r=27.56309386517752 stroke=""black"" stroke-width=""1.5"" fill=""none"" />
    <circle cx=697.2764999999999 cy=384 r=27.56309386517752 stroke=""black"" stroke-width=""1.5"" fill=""none"" />
    <circle cx=840.79 cy=240.4865 r=27.56309386517752 stroke=""black"" stroke-width=""1.5"" fill=""none"" />
    <polygon points = ""840.79,384 848.5433604888051,356.4369061348225 833.0366395111948,356.4369061348225"" stroke=""white"" stroke-width=""3"" fill = ""white"" />
    
    </svg>
    </div>
        ","","","","","","","","","","","","stimulus","","","","","","","","","","","","","","","","",""
"html-keyboard-response","13","148617","0.0-13.0","3481.6999999997206","arrowup","","
    <div style="" display: block;  position: relative;"">
    
    <svg width=1366 height=768>
    <circle cx=620 cy=384 r=19.294165705624263 stroke=""black"" stroke-width=""1"" fill=""black"" />
    <circle cx=984.3035 cy=384 r=27.56309386517752 stroke=""none"" stroke-width=""1.5"" fill=""none"" />
    <circle cx=840.79 cy=527.5135 r=27.56309386517752 stroke=""none"" stroke-width=""1.5"" fill=""none"" />
    <circle cx=697.2764999999999 cy=384 r=27.56309386517752 stroke=""none"" stroke-width=""1.5"" fill=""none"" />
    <circle cx=840.79 cy=240.4865 r=27.56309386517752 stroke=""none"" stroke-width=""1.5"" fill=""none"" />
    <polygon points = ""840.79,384 848.5433604888051,356.4369061348225 833.0366395111948,356.4369061348225"" stroke=""none"" stroke-width=""3"" fill = ""none"" />
    
    </svg>
    </div>
        ","","","","","","","","","","","","practice_get_response","true","QK4JQKpOu241j0RH","143.5135","2.6","false","true","false","220.79","4","691.758","","","","","","",""
"html-keyboard-response","14","149143","0.0-14.0","null","null","","
    <div style="" display: block;  position: relative;"">
    
    <svg width=1366 height=768>
    <circle cx=620 cy=384 r=19.294165705624263 stroke=""black"" stroke-width=""1"" fill=""black"" />
    <circle cx=984.3035 cy=384 r=27.56309386517752 stroke=""none"" stroke-width=""1.5"" fill=""none"" />
    <circle cx=840.79 cy=527.5135 r=27.56309386517752 stroke=""none"" stroke-width=""1.5"" fill=""none"" />
    <circle cx=697.2764999999999 cy=384 r=27.56309386517752 stroke=""none"" stroke-width=""1.5"" fill=""none"" />
    <circle cx=840.79 cy=240.4865 r=27.56309386517752 stroke=""none"" stroke-width=""1.5"" fill=""none"" />
    <polygon points = ""840.79,384 848.5433604888051,356.4369061348225 833.0366395111948,356.4369061348225"" stroke=""none"" stroke-width=""3"" fill = ""none"" />
    
    </svg>
    </div>
        ","","","","","","","","","","","","","","","","","","","","","","","","","","","","",""
"html-keyboard-response","15","149332","0.0-15.0","null","null","","
    <div style="" display: block;  position: relative;"">
    <svg width=1366 height=768>
    
    <circle cx=620 cy=384 r=19.294165705624263 stroke=""black"" stroke-width=""1"" fill=""black"" />
    <circle cx=399.21000000000004 cy=384 r=27.56309386517752 stroke=""black"" stroke-width=""1.5"" fill=""none"" />
    <circle cx=542.7235000000001 cy=384 r=27.56309386517752 stroke=""black"" stroke-width=""1.5"" fill=""none"" />
    <circle cx=399.21000000000004 cy=527.5135 r=27.56309386517752 stroke=""black"" stroke-width=""1.5"" fill=""none"" />
    <circle cx=255.69650000000004 cy=384 r=27.56309386517752 stroke=""black"" stroke-width=""1.5"" fill=""none"" />
    <circle cx=399.21000000000004 cy=240.4865 r=27.56309386517752 stroke=""black"" stroke-width=""1.5"" fill=""none"" />
    <polygon points = ""399.21000000000004,384 406.96336048880517,411.5630938651775 391.4566395111949,411.5630938651775"" stroke=""white"" stroke-width=""3"" fill = ""white"" />
    
    </svg>
    </div>
        ","","","","","","","","","","","","stimulus","","","","","","","","","","","","","","","","",""
"html-keyboard-response","16","158556","0.0-16.0","9215.099999999627","arrowdown","","
    <div style="" display: block;  position: relative;"">
    
    <svg width=1366 height=768>
    <circle cx=620 cy=384 r=19.294165705624263 stroke=""black"" stroke-width=""1"" fill=""black"" />
    <circle cx=542.7235000000001 cy=384 r=27.56309386517752 stroke=""none"" stroke-width=""1.5"" fill=""none"" />
    <circle cx=399.21000000000004 cy=527.5135 r=27.56309386517752 stroke=""none"" stroke-width=""1.5"" fill=""none"" />
    <circle cx=255.69650000000004 cy=384 r=27.56309386517752 stroke=""none"" stroke-width=""1.5"" fill=""none"" />
    <circle cx=399.21000000000004 cy=240.4865 r=27.56309386517752 stroke=""none"" stroke-width=""1.5"" fill=""none"" />
    <polygon points = ""399.21000000000004,384 406.96336048880517,411.5630938651775 391.4566395111949,411.5630938651775"" stroke=""none"" stroke-width=""3"" fill = ""none"" />
    
    </svg>
    </div>
        ","","","","","","","","","","","","practice_get_response","true","QK4JQKpOu241j0RH","143.5135","2.6","true","false","false","220.79","4","691.758","","","","","","",""
"html-keyboard-response","17","159073","0.0-17.0","null","null","","
    <div style="" display: block;  position: relative;"">
    
    <svg width=1366 height=768>
    <circle cx=620 cy=384 r=19.294165705624263 stroke=""black"" stroke-width=""1"" fill=""black"" />
    <circle cx=542.7235000000001 cy=384 r=27.56309386517752 stroke=""none"" stroke-width=""1.5"" fill=""none"" />
    <circle cx=399.21000000000004 cy=527.5135 r=27.56309386517752 stroke=""none"" stroke-width=""1.5"" fill=""none"" />
    <circle cx=255.69650000000004 cy=384 r=27.56309386517752 stroke=""none"" stroke-width=""1.5"" fill=""none"" />
    <circle cx=399.21000000000004 cy=240.4865 r=27.56309386517752 stroke=""none"" stroke-width=""1.5"" fill=""none"" />
    <polygon points = ""399.21000000000004,384 406.96336048880517,411.5630938651775 391.4566395111949,411.5630938651775"" stroke=""none"" stroke-width=""3"" fill = ""none"" />
    
    </svg>
    </div>
        ","","","","","","","","","","","","","","","","","","","","","","","","","","","","",""
"html-keyboard-response","18","159252","0.0-18.0","null","null","","
    <div style="" display: block;  position: relative;"">
    <svg width=1366 height=768>
    
    <circle cx=620 cy=384 r=19.294165705624263 stroke=""black"" stroke-width=""1"" fill=""black"" />
    <circle cx=399.21000000000004 cy=384 r=27.56309386517752 stroke=""black"" stroke-width=""1.5"" fill=""none"" />
    <circle cx=529.6768181818181 cy=384 r=27.56309386517752 stroke=""black"" stroke-width=""1.5"" fill=""none"" />
    <circle cx=399.21000000000004 cy=514.4668181818181 r=27.56309386517752 stroke=""black"" stroke-width=""1.5"" fill=""none"" />
    <circle cx=268.7431818181819 cy=384 r=27.56309386517752 stroke=""black"" stroke-width=""1.5"" fill=""none"" />
    <circle cx=399.21000000000004 cy=253.53318181818184 r=27.56309386517752 stroke=""black"" stroke-width=""1.5"" fill=""none"" />
    <polygon points = ""399.21000000000004,384 406.96336048880517,411.5630938651775 391.4566395111949,411.5630938651775"" stroke=""white"" stroke-width=""3"" fill = ""white"" />
    
    </svg>
    </div>
        ","","","","","","","","","","","","stimulus","","","","","","","","","","","","","","","","",""
"html-keyboard-response","19","159889","0.0-19.0","630.1000000000931","arrowdown","","
    <div style="" display: block;  position: relative;"">
    
    <svg width=1366 height=768>
    <circle cx=620 cy=384 r=19.294165705624263 stroke=""black"" stroke-width=""1"" fill=""black"" />
    <circle cx=529.6768181818181 cy=384 r=27.56309386517752 stroke=""none"" stroke-width=""1.5"" fill=""none"" />
    <circle cx=399.21000000000004 cy=514.4668181818181 r=27.56309386517752 stroke=""none"" stroke-width=""1.5"" fill=""none"" />
    <circle cx=268.7431818181819 cy=384 r=27.56309386517752 stroke=""none"" stroke-width=""1.5"" fill=""none"" />
    <circle cx=399.21000000000004 cy=253.53318181818184 r=27.56309386517752 stroke=""none"" stroke-width=""1.5"" fill=""none"" />
    <polygon points = ""399.21000000000004,384 406.96336048880517,411.5630938651775 391.4566395111949,411.5630938651775"" stroke=""none"" stroke-width=""3"" fill = ""none"" />
    
    </svg>
    </div>
        ","","","","","","","","","","","","practice_get_response","true","QK4JQKpOu241j0RH","130.46681818181816","2.36","true","false","false","220.79","4","691.758","","","","","","",""
"html-keyboard-response","20","160412","0.0-20.0","null","null","","
    <div style="" display: block;  position: relative;"">
    
    <svg width=1366 height=768>
    <circle cx=620 cy=384 r=19.294165705624263 stroke=""black"" stroke-width=""1"" fill=""black"" />
    <circle cx=529.6768181818181 cy=384 r=27.56309386517752 stroke=""none"" stroke-width=""1.5"" fill=""none"" />
    <circle cx=399.21000000000004 cy=514.4668181818181 r=27.56309386517752 stroke=""none"" stroke-width=""1.5"" fill=""none"" />
    <circle cx=268.7431818181819 cy=384 r=27.56309386517752 stroke=""none"" stroke-width=""1.5"" fill=""none"" />
    <circle cx=399.21000000000004 cy=253.53318181818184 r=27.56309386517752 stroke=""none"" stroke-width=""1.5"" fill=""none"" />
    <polygon points = ""399.21000000000004,384 406.96336048880517,411.5630938651775 391.4566395111949,411.5630938651775"" stroke=""none"" stroke-width=""3"" fill = ""none"" />
    
    </svg>
    </div>
        ","","","","","","","","","","","","","","","","","","","","","","","","","","","","",""
"html-keyboard-response","21","160581","0.0-21.0","null","null","","
    <div style="" display: block;  position: relative;"">
    <svg width=1366 height=768>
    
    <circle cx=620 cy=384 r=19.294165705624263 stroke=""black"" stroke-width=""1"" fill=""black"" />
    <circle cx=840.79 cy=384 r=27.56309386517752 stroke=""black"" stroke-width=""1.5"" fill=""none"" />
    <circle cx=959.3961983471074 cy=384 r=27.56309386517752 stroke=""black"" stroke-width=""1.5"" fill=""none"" />
    <circle cx=840.79 cy=502.6061983471074 r=27.56309386517752 stroke=""black"" stroke-width=""1.5"" fill=""none"" />
    <circle cx=722.1838016528925 cy=384 r=27.56309386517752 stroke=""black"" stroke-width=""1.5"" fill=""none"" />
    <circle cx=840.79 cy=265.3938016528926 r=27.56309386517752 stroke=""black"" stroke-width=""1.5"" fill=""none"" />
    <polygon points = ""840.79,384 848.5433604888051,356.4369061348225 833.0366395111948,356.4369061348225"" stroke=""white"" stroke-width=""3"" fill = ""white"" />
    
    </svg>
    </div>
        ","","","","","","","","","","","","stimulus","","","","","","","","","","","","","","","","",""
"html-keyboard-response","22","161155","0.0-22.0","560.8999999999069","arrowup","","
    <div style="" display: block;  position: relative;"">
    
    <svg width=1366 height=768>
    <circle cx=620 cy=384 r=19.294165705624263 stroke=""black"" stroke-width=""1"" fill=""black"" />
    <circle cx=959.3961983471074 cy=384 r=27.56309386517752 stroke=""none"" stroke-width=""1.5"" fill=""none"" />
    <circle cx=840.79 cy=502.6061983471074 r=27.56309386517752 stroke=""none"" stroke-width=""1.5"" fill=""none"" />
    <circle cx=722.1838016528925 cy=384 r=27.56309386517752 stroke=""none"" stroke-width=""1.5"" fill=""none"" />
    <circle cx=840.79 cy=265.3938016528926 r=27.56309386517752 stroke=""none"" stroke-width=""1.5"" fill=""none"" />
    <polygon points = ""840.79,384 848.5433604888051,356.4369061348225 833.0366395111948,356.4369061348225"" stroke=""none"" stroke-width=""3"" fill = ""none"" />
    
    </svg>
    </div>
        ","","","","","","","","","","","","practice_get_response","true","QK4JQKpOu241j0RH","118.60619834710741","2.15","false","true","false","220.79","4","691.758","","","","","","",""
"html-keyboard-response","23","171280","0.0-23.0","10118.69999999972","arrowdown","","<div> 
<h2 class=""bolded-blue"">Well done!</h2>
<p> Now that you have the hang of it, we&#39;ll start the study. This session has 25 trials and takes about 2 minute to complete. </p> 
<p>If you are ready for the real deal, please press the <b>down</b> arrow to continue.
</p>
</div>","","","","","","","","","","","","","","","","","","","","","","","","","","","","",""
"html-keyboard-response","24","182427","0.0-24.0","11136.100000000093","arrowdown","","<div id=""continue""> 
<p>Again, please keep the <b>full screen</b> mode for the best experience.</p>
<p>Please do not move around and keep your eye on the black dot. Click <b>up</b> or <b>down</b> key on your keyboard to indicate the opening of the center circle. Make your best guess!</p>
<p>Please press the <b>down</b> arrow key to start the session 1. </p>
</div>","","","","","","","","","","","","","","","","","","","","","","","","","","","","",""
"html-keyboard-response","25","182935","0.0-25.0","null","null","","
    <div style="" display: block;  position: relative;"">
    
    <svg width=1366 height=768>
    <circle cx=620 cy=384 r=19.294165705624263 stroke=""black"" stroke-width=""1"" fill=""black"" />
    <circle cx=517.8161983471075 cy=384 r=27.56309386517752 stroke=""none"" stroke-width=""1.5"" fill=""none"" />
    <circle cx=399.21000000000004 cy=502.6061983471074 r=27.56309386517752 stroke=""none"" stroke-width=""1.5"" fill=""none"" />
    <circle cx=280.6038016528926 cy=384 r=27.56309386517752 stroke=""none"" stroke-width=""1.5"" fill=""none"" />
    <circle cx=399.21000000000004 cy=265.3938016528926 r=27.56309386517752 stroke=""none"" stroke-width=""1.5"" fill=""none"" />
    <polygon points = ""399.21000000000004,384 406.96336048880517,411.5630938651775 391.4566395111949,411.5630938651775"" stroke=""none"" stroke-width=""3"" fill = ""none"" />
    
    </svg>
    </div>
        ","","","","","","","","","","","","","","","","","","","","","","","","","","","","",""
"html-keyboard-response","26","183093","0.0-26.0","null","null","","
    <div style="" display: block;  position: relative;"">
    <svg width=1366 height=768>
    
    <circle cx=620 cy=384 r=19.294165705624263 stroke=""black"" stroke-width=""1"" fill=""black"" />
    <circle cx=840.79 cy=384 r=27.56309386517752 stroke=""black"" stroke-width=""1.5"" fill=""none"" />
    <circle cx=984.3035 cy=384 r=27.56309386517752 stroke=""black"" stroke-width=""1.5"" fill=""none"" />
    <circle cx=840.79 cy=527.5135 r=27.56309386517752 stroke=""black"" stroke-width=""1.5"" fill=""none"" />
    <circle cx=697.2764999999999 cy=384 r=27.56309386517752 stroke=""black"" stroke-width=""1.5"" fill=""none"" />
    <circle cx=840.79 cy=240.4865 r=27.56309386517752 stroke=""black"" stroke-width=""1.5"" fill=""none"" />
    <polygon points = ""840.79,384 848.5433604888051,411.5630938651775 833.0366395111948,411.5630938651775"" stroke=""white"" stroke-width=""3"" fill = ""white"" />
    
    </svg>
    </div>
        ","","","","","","","","","","","","stimulus","","","","","","","","","","","","","","","","",""
"html-keyboard-response","27","183756","0.0-27.0","657.2000000001863","arrowdown","","
    <div style="" display: block;  position: relative;"">
    
    <svg width=1366 height=768>
    <circle cx=620 cy=384 r=19.294165705624263 stroke=""black"" stroke-width=""1"" fill=""black"" />
    <circle cx=984.3035 cy=384 r=27.56309386517752 stroke=""none"" stroke-width=""1.5"" fill=""none"" />
    <circle cx=840.79 cy=527.5135 r=27.56309386517752 stroke=""none"" stroke-width=""1.5"" fill=""none"" />
    <circle cx=697.2764999999999 cy=384 r=27.56309386517752 stroke=""none"" stroke-width=""1.5"" fill=""none"" />
    <circle cx=840.79 cy=240.4865 r=27.56309386517752 stroke=""none"" stroke-width=""1.5"" fill=""none"" />
    <polygon points = ""840.79,384 848.5433604888051,411.5630938651775 833.0366395111948,411.5630938651775"" stroke=""none"" stroke-width=""3"" fill = ""none"" />
    
    </svg>
    </div>
        ","","","","","","","","","","","","get_response","true","QK4JQKpOu241j0RH","","","false","false","false","220.79","4","691.758","143.5135","2.6","1","0","","",""
"html-keyboard-response","28","184277","0.0-28.0","null","null","","
    <div style="" display: block;  position: relative;"">
    
    <svg width=1366 height=768>
    <circle cx=620 cy=384 r=19.294165705624263 stroke=""black"" stroke-width=""1"" fill=""black"" />
    <circle cx=984.3035 cy=384 r=27.56309386517752 stroke=""none"" stroke-width=""1.5"" fill=""none"" />
    <circle cx=840.79 cy=527.5135 r=27.56309386517752 stroke=""none"" stroke-width=""1.5"" fill=""none"" />
    <circle cx=697.2764999999999 cy=384 r=27.56309386517752 stroke=""none"" stroke-width=""1.5"" fill=""none"" />
    <circle cx=840.79 cy=240.4865 r=27.56309386517752 stroke=""none"" stroke-width=""1.5"" fill=""none"" />
    <polygon points = ""840.79,384 848.5433604888051,411.5630938651775 833.0366395111948,411.5630938651775"" stroke=""none"" stroke-width=""3"" fill = ""none"" />
    
    </svg>
    </div>
        ","","","","","","","","","","","","","","","","","","","","","","","","","","","","",""
"html-keyboard-response","29","184447","0.0-29.0","null","null","","
    <div style="" display: block;  position: relative;"">
    <svg width=1366 height=768>
    
    <circle cx=620 cy=384 r=19.294165705624263 stroke=""black"" stroke-width=""1"" fill=""black"" />
    <circle cx=399.21000000000004 cy=384 r=27.56309386517752 stroke=""black"" stroke-width=""1.5"" fill=""none"" />
    <circle cx=542.7235000000001 cy=384 r=27.56309386517752 stroke=""black"" stroke-width=""1.5"" fill=""none"" />
    <circle cx=399.21000000000004 cy=527.5135 r=27.56309386517752 stroke=""black"" stroke-width=""1.5"" fill=""none"" />
    <circle cx=255.69650000000004 cy=384 r=27.56309386517752 stroke=""black"" stroke-width=""1.5"" fill=""none"" />
    <circle cx=399.21000000000004 cy=240.4865 r=27.56309386517752 stroke=""black"" stroke-width=""1.5"" fill=""none"" />
    <polygon points = ""399.21000000000004,384 406.96336048880517,356.4369061348225 391.4566395111949,356.4369061348225"" stroke=""white"" stroke-width=""3"" fill = ""white"" />
    
    </svg>
    </div>
        ","","","","","","","","","","","","stimulus","","","","","","","","","","","","","","","","",""
"html-keyboard-response","30","184860","0.0-30.0","406.29999999981374","arrowup","","
    <div style="" display: block;  position: relative;"">
    
    <svg width=1366 height=768>
    <circle cx=620 cy=384 r=19.294165705624263 stroke=""black"" stroke-width=""1"" fill=""black"" />
    <circle cx=542.7235000000001 cy=384 r=27.56309386517752 stroke=""none"" stroke-width=""1.5"" fill=""none"" />
    <circle cx=399.21000000000004 cy=527.5135 r=27.56309386517752 stroke=""none"" stroke-width=""1.5"" fill=""none"" />
    <circle cx=255.69650000000004 cy=384 r=27.56309386517752 stroke=""none"" stroke-width=""1.5"" fill=""none"" />
    <circle cx=399.21000000000004 cy=240.4865 r=27.56309386517752 stroke=""none"" stroke-width=""1.5"" fill=""none"" />
    <polygon points = ""399.21000000000004,384 406.96336048880517,356.4369061348225 391.4566395111949,356.4369061348225"" stroke=""none"" stroke-width=""3"" fill = ""none"" />
    
    </svg>
    </div>
        ","","","","","","","","","","","","get_response","true","QK4JQKpOu241j0RH","","","true","true","false","220.79","4","691.758","143.5135","2.6","1","0","","",""
"html-keyboard-response","31","185370","0.0-31.0","null","null","","
    <div style="" display: block;  position: relative;"">
    
    <svg width=1366 height=768>
    <circle cx=620 cy=384 r=19.294165705624263 stroke=""black"" stroke-width=""1"" fill=""black"" />
    <circle cx=542.7235000000001 cy=384 r=27.56309386517752 stroke=""none"" stroke-width=""1.5"" fill=""none"" />
    <circle cx=399.21000000000004 cy=527.5135 r=27.56309386517752 stroke=""none"" stroke-width=""1.5"" fill=""none"" />
    <circle cx=255.69650000000004 cy=384 r=27.56309386517752 stroke=""none"" stroke-width=""1.5"" fill=""none"" />
    <circle cx=399.21000000000004 cy=240.4865 r=27.56309386517752 stroke=""none"" stroke-width=""1.5"" fill=""none"" />
    <polygon points = ""399.21000000000004,384 406.96336048880517,356.4369061348225 391.4566395111949,356.4369061348225"" stroke=""none"" stroke-width=""3"" fill = ""none"" />
    
    </svg>
    </div>
        ","","","","","","","","","","","","","","","","","","","","","","","","","","","","",""
"html-keyboard-response","32","185528","0.0-32.0","null","null","","
    <div style="" display: block;  position: relative;"">
    <svg width=1366 height=768>
    
    <circle cx=620 cy=384 r=19.294165705624263 stroke=""black"" stroke-width=""1"" fill=""black"" />
    <circle cx=840.79 cy=384 r=27.56309386517752 stroke=""black"" stroke-width=""1.5"" fill=""none"" />
    <circle cx=984.3035 cy=384 r=27.56309386517752 stroke=""black"" stroke-width=""1.5"" fill=""none"" />
    <circle cx=840.79 cy=527.5135 r=27.56309386517752 stroke=""black"" stroke-width=""1.5"" fill=""none"" />
    <circle cx=697.2764999999999 cy=384 r=27.56309386517752 stroke=""black"" stroke-width=""1.5"" fill=""none"" />
    <circle cx=840.79 cy=240.4865 r=27.56309386517752 stroke=""black"" stroke-width=""1.5"" fill=""none"" />
    <polygon points = ""840.79,384 848.5433604888051,356.4369061348225 833.0366395111948,356.4369061348225"" stroke=""white"" stroke-width=""3"" fill = ""white"" />
    
    </svg>
    </div>
        ","","","","","","","","","","","","stimulus","","","","","","","","","","","","","","","","",""
"html-keyboard-response","33","186089","0.0-33.0","550.7999999998137","arrowup","","
    <div style="" display: block;  position: relative;"">
    
    <svg width=1366 height=768>
    <circle cx=620 cy=384 r=19.294165705624263 stroke=""black"" stroke-width=""1"" fill=""black"" />
    <circle cx=984.3035 cy=384 r=27.56309386517752 stroke=""none"" stroke-width=""1.5"" fill=""none"" />
    <circle cx=840.79 cy=527.5135 r=27.56309386517752 stroke=""none"" stroke-width=""1.5"" fill=""none"" />
    <circle cx=697.2764999999999 cy=384 r=27.56309386517752 stroke=""none"" stroke-width=""1.5"" fill=""none"" />
    <circle cx=840.79 cy=240.4865 r=27.56309386517752 stroke=""none"" stroke-width=""1.5"" fill=""none"" />
    <polygon points = ""840.79,384 848.5433604888051,356.4369061348225 833.0366395111948,356.4369061348225"" stroke=""none"" stroke-width=""3"" fill = ""none"" />
    
    </svg>
    </div>
        ","","","","","","","","","","","","get_response","true","QK4JQKpOu241j0RH","","","false","true","false","220.79","4","691.758","143.5135","2.6","1","0","","",""
"html-keyboard-response","34","186607","0.0-34.0","null","null","","
    <div style="" display: block;  position: relative;"">
    
    <svg width=1366 height=768>
    <circle cx=620 cy=384 r=19.294165705624263 stroke=""black"" stroke-width=""1"" fill=""black"" />
    <circle cx=984.3035 cy=384 r=27.56309386517752 stroke=""none"" stroke-width=""1.5"" fill=""none"" />
    <circle cx=840.79 cy=527.5135 r=27.56309386517752 stroke=""none"" stroke-width=""1.5"" fill=""none"" />
    <circle cx=697.2764999999999 cy=384 r=27.56309386517752 stroke=""none"" stroke-width=""1.5"" fill=""none"" />
    <circle cx=840.79 cy=240.4865 r=27.56309386517752 stroke=""none"" stroke-width=""1.5"" fill=""none"" />
    <polygon points = ""840.79,384 848.5433604888051,356.4369061348225 833.0366395111948,356.4369061348225"" stroke=""none"" stroke-width=""3"" fill = ""none"" />
    
    </svg>
    </div>
        ","","","","","","","","","","","","","","","","","","","","","","","","","","","","",""
"html-keyboard-response","35","186777","0.0-35.0","null","null","","
    <div style="" display: block;  position: relative;"">
    <svg width=1366 height=768>
    
    <circle cx=620 cy=384 r=19.294165705624263 stroke=""black"" stroke-width=""1"" fill=""black"" />
    <circle cx=399.21000000000004 cy=384 r=27.56309386517752 stroke=""black"" stroke-width=""1.5"" fill=""none"" />
    <circle cx=529.6768181818181 cy=384 r=27.56309386517752 stroke=""black"" stroke-width=""1.5"" fill=""none"" />
    <circle cx=399.21000000000004 cy=514.4668181818181 r=27.56309386517752 stroke=""black"" stroke-width=""1.5"" fill=""none"" />
    <circle cx=268.7431818181819 cy=384 r=27.56309386517752 stroke=""black"" stroke-width=""1.5"" fill=""none"" />
    <circle cx=399.21000000000004 cy=253.53318181818184 r=27.56309386517752 stroke=""black"" stroke-width=""1.5"" fill=""none"" />
    <polygon points = ""399.21000000000004,384 406.96336048880517,356.4369061348225 391.4566395111949,356.4369061348225"" stroke=""white"" stroke-width=""3"" fill = ""white"" />
    
    </svg>
    </div>
        ","","","","","","","","","","","","stimulus","","","","","","","","","","","","","","","","",""
"html-keyboard-response","36","187289","0.0-36.0","499.5","arrowup","","
    <div style="" display: block;  position: relative;"">
    
    <svg width=1366 height=768>
    <circle cx=620 cy=384 r=19.294165705624263 stroke=""black"" stroke-width=""1"" fill=""black"" />
    <circle cx=529.6768181818181 cy=384 r=27.56309386517752 stroke=""none"" stroke-width=""1.5"" fill=""none"" />
    <circle cx=399.21000000000004 cy=514.4668181818181 r=27.56309386517752 stroke=""none"" stroke-width=""1.5"" fill=""none"" />
    <circle cx=268.7431818181819 cy=384 r=27.56309386517752 stroke=""none"" stroke-width=""1.5"" fill=""none"" />
    <circle cx=399.21000000000004 cy=253.53318181818184 r=27.56309386517752 stroke=""none"" stroke-width=""1.5"" fill=""none"" />
    <polygon points = ""399.21000000000004,384 406.96336048880517,356.4369061348225 391.4566395111949,356.4369061348225"" stroke=""none"" stroke-width=""3"" fill = ""none"" />
    
    </svg>
    </div>
        ","","","","","","","","","","","","get_response","true","QK4JQKpOu241j0RH","","","true","true","false","220.79","4","691.758","130.46681818181816","2.36","1","0","","",""
"html-keyboard-response","37","187805","0.0-37.0","null","null","","
    <div style="" display: block;  position: relative;"">
    
    <svg width=1366 height=768>
    <circle cx=620 cy=384 r=19.294165705624263 stroke=""black"" stroke-width=""1"" fill=""black"" />
    <circle cx=529.6768181818181 cy=384 r=27.56309386517752 stroke=""none"" stroke-width=""1.5"" fill=""none"" />
    <circle cx=399.21000000000004 cy=514.4668181818181 r=27.56309386517752 stroke=""none"" stroke-width=""1.5"" fill=""none"" />
    <circle cx=268.7431818181819 cy=384 r=27.56309386517752 stroke=""none"" stroke-width=""1.5"" fill=""none"" />
    <circle cx=399.21000000000004 cy=253.53318181818184 r=27.56309386517752 stroke=""none"" stroke-width=""1.5"" fill=""none"" />
    <polygon points = ""399.21000000000004,384 406.96336048880517,356.4369061348225 391.4566395111949,356.4369061348225"" stroke=""none"" stroke-width=""3"" fill = ""none"" />
    
    </svg>
    </div>
        ","","","","","","","","","","","","","","","","","","","","","","","","","","","","",""
"html-keyboard-response","38","187976","0.0-38.0","null","null","","
    <div style="" display: block;  position: relative;"">
    <svg width=1366 height=768>
    
    <circle cx=620 cy=384 r=19.294165705624263 stroke=""black"" stroke-width=""1"" fill=""black"" />
    <circle cx=399.21000000000004 cy=384 r=27.56309386517752 stroke=""black"" stroke-width=""1.5"" fill=""none"" />
    <circle cx=517.8161983471075 cy=384 r=27.56309386517752 stroke=""black"" stroke-width=""1.5"" fill=""none"" />
    <circle cx=399.21000000000004 cy=502.6061983471074 r=27.56309386517752 stroke=""black"" stroke-width=""1.5"" fill=""none"" />
    <circle cx=280.6038016528926 cy=384 r=27.56309386517752 stroke=""black"" stroke-width=""1.5"" fill=""none"" />
    <circle cx=399.21000000000004 cy=265.3938016528926 r=27.56309386517752 stroke=""black"" stroke-width=""1.5"" fill=""none"" />
    <polygon points = ""399.21000000000004,384 406.96336048880517,356.4369061348225 391.4566395111949,356.4369061348225"" stroke=""white"" stroke-width=""3"" fill = ""white"" />
    
    </svg>
    </div>
        ","","","","","","","","","","","","stimulus","","","","","","","","","","","","","","","","",""
"html-keyboard-response","39","188451","0.0-39.0","464.1999999997206","arrowup","","
    <div style="" display: block;  position: relative;"">
    
    <svg width=1366 height=768>
    <circle cx=620 cy=384 r=19.294165705624263 stroke=""black"" stroke-width=""1"" fill=""black"" />
    <circle cx=517.8161983471075 cy=384 r=27.56309386517752 stroke=""none"" stroke-width=""1.5"" fill=""none"" />
    <circle cx=399.21000000000004 cy=502.6061983471074 r=27.56309386517752 stroke=""none"" stroke-width=""1.5"" fill=""none"" />
    <circle cx=280.6038016528926 cy=384 r=27.56309386517752 stroke=""none"" stroke-width=""1.5"" fill=""none"" />
    <circle cx=399.21000000000004 cy=265.3938016528926 r=27.56309386517752 stroke=""none"" stroke-width=""1.5"" fill=""none"" />
    <polygon points = ""399.21000000000004,384 406.96336048880517,356.4369061348225 391.4566395111949,356.4369061348225"" stroke=""none"" stroke-width=""3"" fill = ""none"" />
    
    </svg>
    </div>
        ","","","","","","","","","","","","get_response","true","QK4JQKpOu241j0RH","","","true","true","false","220.79","4","691.758","118.60619834710741","2.15","1","0","","",""
"html-keyboard-response","40","188961","0.0-40.0","null","null","","
    <div style="" display: block;  position: relative;"">
    
    <svg width=1366 height=768>
    <circle cx=620 cy=384 r=19.294165705624263 stroke=""black"" stroke-width=""1"" fill=""black"" />
    <circle cx=517.8161983471075 cy=384 r=27.56309386517752 stroke=""none"" stroke-width=""1.5"" fill=""none"" />
    <circle cx=399.21000000000004 cy=502.6061983471074 r=27.56309386517752 stroke=""none"" stroke-width=""1.5"" fill=""none"" />
    <circle cx=280.6038016528926 cy=384 r=27.56309386517752 stroke=""none"" stroke-width=""1.5"" fill=""none"" />
    <circle cx=399.21000000000004 cy=265.3938016528926 r=27.56309386517752 stroke=""none"" stroke-width=""1.5"" fill=""none"" />
    <polygon points = ""399.21000000000004,384 406.96336048880517,356.4369061348225 391.4566395111949,356.4369061348225"" stroke=""none"" stroke-width=""3"" fill = ""none"" />
    
    </svg>
    </div>
        ","","","","","","","","","","","","","","","","","","","","","","","","","","","","",""
"html-keyboard-response","41","189127","0.0-41.0","null","null","","
    <div style="" display: block;  position: relative;"">
    <svg width=1366 height=768>
    
    <circle cx=620 cy=384 r=19.294165705624263 stroke=""black"" stroke-width=""1"" fill=""black"" />
    <circle cx=399.21000000000004 cy=384 r=27.56309386517752 stroke=""black"" stroke-width=""1.5"" fill=""none"" />
    <circle cx=507.0338166791886 cy=384 r=27.56309386517752 stroke=""black"" stroke-width=""1.5"" fill=""none"" />
    <circle cx=399.21000000000004 cy=491.82381667918855 r=27.56309386517752 stroke=""black"" stroke-width=""1.5"" fill=""none"" />
    <circle cx=291.3861833208115 cy=384 r=27.56309386517752 stroke=""black"" stroke-width=""1.5"" fill=""none"" />
    <circle cx=399.21000000000004 cy=276.17618332081145 r=27.56309386517752 stroke=""black"" stroke-width=""1.5"" fill=""none"" />
    <polygon points = ""399.21000000000004,384 406.96336048880517,356.4369061348225 391.4566395111949,356.4369061348225"" stroke=""white"" stroke-width=""3"" fill = ""white"" />
    
    </svg>
    </div>
        ","","","","","","","","","","","","stimulus","","","","","","","","","","","","","","","","",""
"html-keyboard-response","42","189639","0.0-42.0","501.89999999990687","arrowup","","
    <div style="" display: block;  position: relative;"">
    
    <svg width=1366 height=768>
    <circle cx=620 cy=384 r=19.294165705624263 stroke=""black"" stroke-width=""1"" fill=""black"" />
    <circle cx=507.0338166791886 cy=384 r=27.56309386517752 stroke=""none"" stroke-width=""1.5"" fill=""none"" />
    <circle cx=399.21000000000004 cy=491.82381667918855 r=27.56309386517752 stroke=""none"" stroke-width=""1.5"" fill=""none"" />
    <circle cx=291.3861833208115 cy=384 r=27.56309386517752 stroke=""none"" stroke-width=""1.5"" fill=""none"" />
    <circle cx=399.21000000000004 cy=276.17618332081145 r=27.56309386517752 stroke=""none"" stroke-width=""1.5"" fill=""none"" />
    <polygon points = ""399.21000000000004,384 406.96336048880517,356.4369061348225 391.4566395111949,356.4369061348225"" stroke=""none"" stroke-width=""3"" fill = ""none"" />
    
    </svg>
    </div>
        ","","","","","","","","","","","","get_response","true","QK4JQKpOu241j0RH","","","true","true","false","220.79","4","691.758","107.82381667918854","1.95","1","0","","",""
"html-keyboard-response","43","190152","0.0-43.0","null","null","","
    <div style="" display: block;  position: relative;"">
    
    <svg width=1366 height=768>
    <circle cx=620 cy=384 r=19.294165705624263 stroke=""black"" stroke-width=""1"" fill=""black"" />
    <circle cx=507.0338166791886 cy=384 r=27.56309386517752 stroke=""none"" stroke-width=""1.5"" fill=""none"" />
    <circle cx=399.21000000000004 cy=491.82381667918855 r=27.56309386517752 stroke=""none"" stroke-width=""1.5"" fill=""none"" />
    <circle cx=291.3861833208115 cy=384 r=27.56309386517752 stroke=""none"" stroke-width=""1.5"" fill=""none"" />
    <circle cx=399.21000000000004 cy=276.17618332081145 r=27.56309386517752 stroke=""none"" stroke-width=""1.5"" fill=""none"" />
    <polygon points = ""399.21000000000004,384 406.96336048880517,356.4369061348225 391.4566395111949,356.4369061348225"" stroke=""none"" stroke-width=""3"" fill = ""none"" />
    
    </svg>
    </div>
        ","","","","","","","","","","","","","","","","","","","","","","","","","","","","",""
"html-keyboard-response","44","190314","0.0-44.0","null","null","","
    <div style="" display: block;  position: relative;"">
    <svg width=1366 height=768>
    
    <circle cx=620 cy=384 r=19.294165705624263 stroke=""black"" stroke-width=""1"" fill=""black"" />
    <circle cx=840.79 cy=384 r=27.56309386517752 stroke=""black"" stroke-width=""1.5"" fill=""none"" />
    <circle cx=938.811651526535 cy=384 r=27.56309386517752 stroke=""black"" stroke-width=""1.5"" fill=""none"" />
    <circle cx=840.79 cy=482.02165152653504 r=27.56309386517752 stroke=""black"" stroke-width=""1.5"" fill=""none"" />
    <circle cx=742.7683484734649 cy=384 r=27.56309386517752 stroke=""black"" stroke-width=""1.5"" fill=""none"" />
    <circle cx=840.79 cy=285.97834847346496 r=27.56309386517752 stroke=""black"" stroke-width=""1.5"" fill=""none"" />
    <polygon points = ""840.79,384 848.5433604888051,411.5630938651775 833.0366395111948,411.5630938651775"" stroke=""white"" stroke-width=""3"" fill = ""white"" />
    
    </svg>
    </div>
        ","","","","","","","","","","","","stimulus","","","","","","","","","","","","","","","","",""
"html-keyboard-response","45","190927","0.0-45.0","609.8000000002794","arrowdown","","
    <div style="" display: block;  position: relative;"">
    
    <svg width=1366 height=768>
    <circle cx=620 cy=384 r=19.294165705624263 stroke=""black"" stroke-width=""1"" fill=""black"" />
    <circle cx=938.811651526535 cy=384 r=27.56309386517752 stroke=""none"" stroke-width=""1.5"" fill=""none"" />
    <circle cx=840.79 cy=482.02165152653504 r=27.56309386517752 stroke=""none"" stroke-width=""1.5"" fill=""none"" />
    <circle cx=742.7683484734649 cy=384 r=27.56309386517752 stroke=""none"" stroke-width=""1.5"" fill=""none"" />
    <circle cx=840.79 cy=285.97834847346496 r=27.56309386517752 stroke=""none"" stroke-width=""1.5"" fill=""none"" />
    <polygon points = ""840.79,384 848.5433604888051,411.5630938651775 833.0366395111948,411.5630938651775"" stroke=""none"" stroke-width=""3"" fill = ""none"" />
    
    </svg>
    </div>
        ","","","","","","","","","","","","get_response","true","QK4JQKpOu241j0RH","","","false","false","false","220.79","4","691.758","98.02165152653502","1.77","1","0","","",""
"html-keyboard-response","46","191435","0.0-46.0","null","null","","
    <div style="" display: block;  position: relative;"">
    
    <svg width=1366 height=768>
    <circle cx=620 cy=384 r=19.294165705624263 stroke=""black"" stroke-width=""1"" fill=""black"" />
    <circle cx=938.811651526535 cy=384 r=27.56309386517752 stroke=""none"" stroke-width=""1.5"" fill=""none"" />
    <circle cx=840.79 cy=482.02165152653504 r=27.56309386517752 stroke=""none"" stroke-width=""1.5"" fill=""none"" />
    <circle cx=742.7683484734649 cy=384 r=27.56309386517752 stroke=""none"" stroke-width=""1.5"" fill=""none"" />
    <circle cx=840.79 cy=285.97834847346496 r=27.56309386517752 stroke=""none"" stroke-width=""1.5"" fill=""none"" />
    <polygon points = ""840.79,384 848.5433604888051,411.5630938651775 833.0366395111948,411.5630938651775"" stroke=""none"" stroke-width=""3"" fill = ""none"" />
    
    </svg>
    </div>
        ","","","","","","","","","","","","","","","","","","","","","","","","","","","","",""
"html-keyboard-response","47","191619","0.0-47.0","null","null","","
    <div style="" display: block;  position: relative;"">
    <svg width=1366 height=768>
    
    <circle cx=620 cy=384 r=19.294165705624263 stroke=""black"" stroke-width=""1"" fill=""black"" />
    <circle cx=399.21000000000004 cy=384 r=27.56309386517752 stroke=""black"" stroke-width=""1.5"" fill=""none"" />
    <circle cx=488.32059229685007 cy=384 r=27.56309386517752 stroke=""black"" stroke-width=""1.5"" fill=""none"" />
    <circle cx=399.21000000000004 cy=473.11059229685003 r=27.56309386517752 stroke=""black"" stroke-width=""1.5"" fill=""none"" />
    <circle cx=310.09940770315 cy=384 r=27.56309386517752 stroke=""black"" stroke-width=""1.5"" fill=""none"" />
    <circle cx=399.21000000000004 cy=294.88940770314997 r=27.56309386517752 stroke=""black"" stroke-width=""1.5"" fill=""none"" />
    <polygon points = ""399.21000000000004,384 406.96336048880517,411.5630938651775 391.4566395111949,411.5630938651775"" stroke=""white"" stroke-width=""3"" fill = ""white"" />
    
    </svg>
    </div>
        ","","","","","","","","","","","","stimulus","","","","","","","","","","","","","","","","",""
"html-keyboard-response","48","192210","0.0-48.0","587","arrowdown","","
    <div style="" display: block;  position: relative;"">
    
    <svg width=1366 height=768>
    <circle cx=620 cy=384 r=19.294165705624263 stroke=""black"" stroke-width=""1"" fill=""black"" />
    <circle cx=488.32059229685007 cy=384 r=27.56309386517752 stroke=""none"" stroke-width=""1.5"" fill=""none"" />
    <circle cx=399.21000000000004 cy=473.11059229685003 r=27.56309386517752 stroke=""none"" stroke-width=""1.5"" fill=""none"" />
    <circle cx=310.09940770315 cy=384 r=27.56309386517752 stroke=""none"" stroke-width=""1.5"" fill=""none"" />
    <circle cx=399.21000000000004 cy=294.88940770314997 r=27.56309386517752 stroke=""none"" stroke-width=""1.5"" fill=""none"" />
    <polygon points = ""399.21000000000004,384 406.96336048880517,411.5630938651775 391.4566395111949,411.5630938651775"" stroke=""none"" stroke-width=""3"" fill = ""none"" />
    
    </svg>
    </div>
        ","","","","","","","","","","","","get_response","true","QK4JQKpOu241j0RH","","","true","false","false","220.79","4","691.758","89.11059229685002","1.61","1","0","","",""
"html-keyboard-response","49","192720","0.0-49.0","null","null","","
    <div style="" display: block;  position: relative;"">
    
    <svg width=1366 height=768>
    <circle cx=620 cy=384 r=19.294165705624263 stroke=""black"" stroke-width=""1"" fill=""black"" />
    <circle cx=488.32059229685007 cy=384 r=27.56309386517752 stroke=""none"" stroke-width=""1.5"" fill=""none"" />
    <circle cx=399.21000000000004 cy=473.11059229685003 r=27.56309386517752 stroke=""none"" stroke-width=""1.5"" fill=""none"" />
    <circle cx=310.09940770315 cy=384 r=27.56309386517752 stroke=""none"" stroke-width=""1.5"" fill=""none"" />
    <circle cx=399.21000000000004 cy=294.88940770314997 r=27.56309386517752 stroke=""none"" stroke-width=""1.5"" fill=""none"" />
    <polygon points = ""399.21000000000004,384 406.96336048880517,411.5630938651775 391.4566395111949,411.5630938651775"" stroke=""none"" stroke-width=""3"" fill = ""none"" />
    
    </svg>
    </div>
        ","","","","","","","","","","","","","","","","","","","","","","","","","","","","",""
"html-keyboard-response","50","192895","0.0-50.0","null","null","","
    <div style="" display: block;  position: relative;"">
    <svg width=1366 height=768>
    
    <circle cx=620 cy=384 r=19.294165705624263 stroke=""black"" stroke-width=""1"" fill=""black"" />
    <circle cx=840.79 cy=384 r=27.56309386517752 stroke=""black"" stroke-width=""1.5"" fill=""none"" />
    <circle cx=921.7996293607727 cy=384 r=27.56309386517752 stroke=""black"" stroke-width=""1.5"" fill=""none"" />
    <circle cx=840.79 cy=465.00962936077275 r=27.56309386517752 stroke=""black"" stroke-width=""1.5"" fill=""none"" />
    <circle cx=759.7803706392273 cy=384 r=27.56309386517752 stroke=""black"" stroke-width=""1.5"" fill=""none"" />
    <circle cx=840.79 cy=302.99037063922725 r=27.56309386517752 stroke=""black"" stroke-width=""1.5"" fill=""none"" />
    <polygon points = ""840.79,384 848.5433604888051,411.5630938651775 833.0366395111948,411.5630938651775"" stroke=""white"" stroke-width=""3"" fill = ""white"" />
    
    </svg>
    </div>
        ","","","","","","","","","","","","stimulus","","","","","","","","","","","","","","","","",""
"html-keyboard-response","51","193473","0.0-51.0","567.4000000003725","arrowdown","","
    <div style="" display: block;  position: relative;"">
    
    <svg width=1366 height=768>
    <circle cx=620 cy=384 r=19.294165705624263 stroke=""black"" stroke-width=""1"" fill=""black"" />
    <circle cx=921.7996293607727 cy=384 r=27.56309386517752 stroke=""none"" stroke-width=""1.5"" fill=""none"" />
    <circle cx=840.79 cy=465.00962936077275 r=27.56309386517752 stroke=""none"" stroke-width=""1.5"" fill=""none"" />
    <circle cx=759.7803706392273 cy=384 r=27.56309386517752 stroke=""none"" stroke-width=""1.5"" fill=""none"" />
    <circle cx=840.79 cy=302.99037063922725 r=27.56309386517752 stroke=""none"" stroke-width=""1.5"" fill=""none"" />
    <polygon points = ""840.79,384 848.5433604888051,411.5630938651775 833.0366395111948,411.5630938651775"" stroke=""none"" stroke-width=""3"" fill = ""none"" />
    
    </svg>
    </div>
        ","","","","","","","","","","","","get_response","true","QK4JQKpOu241j0RH","","","false","false","false","220.79","4","691.758","81.00962936077273","1.47","1","0","","",""
"html-keyboard-response","52","193986","0.0-52.0","null","null","","
    <div style="" display: block;  position: relative;"">
    
    <svg width=1366 height=768>
    <circle cx=620 cy=384 r=19.294165705624263 stroke=""black"" stroke-width=""1"" fill=""black"" />
    <circle cx=921.7996293607727 cy=384 r=27.56309386517752 stroke=""none"" stroke-width=""1.5"" fill=""none"" />
    <circle cx=840.79 cy=465.00962936077275 r=27.56309386517752 stroke=""none"" stroke-width=""1.5"" fill=""none"" />
    <circle cx=759.7803706392273 cy=384 r=27.56309386517752 stroke=""none"" stroke-width=""1.5"" fill=""none"" />
    <circle cx=840.79 cy=302.99037063922725 r=27.56309386517752 stroke=""none"" stroke-width=""1.5"" fill=""none"" />
    <polygon points = ""840.79,384 848.5433604888051,411.5630938651775 833.0366395111948,411.5630938651775"" stroke=""none"" stroke-width=""3"" fill = ""none"" />
    
    </svg>
    </div>
        ","","","","","","","","","","","","","","","","","","","","","","","","","","","","",""
"html-keyboard-response","53","194145","0.0-53.0","null","null","","
    <div style="" display: block;  position: relative;"">
    <svg width=1366 height=768>
    
    <circle cx=620 cy=384 r=19.294165705624263 stroke=""black"" stroke-width=""1"" fill=""black"" />
    <circle cx=840.79 cy=384 r=27.56309386517752 stroke=""black"" stroke-width=""1.5"" fill=""none"" />
    <circle cx=914.4351176007025 cy=384 r=27.56309386517752 stroke=""black"" stroke-width=""1.5"" fill=""none"" />
    <circle cx=840.79 cy=457.64511760070246 r=27.56309386517752 stroke=""black"" stroke-width=""1.5"" fill=""none"" />
    <circle cx=767.1448823992974 cy=384 r=27.56309386517752 stroke=""black"" stroke-width=""1.5"" fill=""none"" />
    <circle cx=840.79 cy=310.35488239929754 r=27.56309386517752 stroke=""black"" stroke-width=""1.5"" fill=""none"" />
    <polygon points = ""840.79,384 848.5433604888051,411.5630938651775 833.0366395111948,411.5630938651775"" stroke=""white"" stroke-width=""3"" fill = ""white"" />
    
    </svg>
    </div>
        ","","","","","","","","","","","","stimulus","","","","","","","","","","","","","","","","",""
"html-keyboard-response","54","194903","0.0-54.0","745.9000000003725","arrowdown","","
    <div style="" display: block;  position: relative;"">
    
    <svg width=1366 height=768>
    <circle cx=620 cy=384 r=19.294165705624263 stroke=""black"" stroke-width=""1"" fill=""black"" />
    <circle cx=914.4351176007025 cy=384 r=27.56309386517752 stroke=""none"" stroke-width=""1.5"" fill=""none"" />
    <circle cx=840.79 cy=457.64511760070246 r=27.56309386517752 stroke=""none"" stroke-width=""1.5"" fill=""none"" />
    <circle cx=767.1448823992974 cy=384 r=27.56309386517752 stroke=""none"" stroke-width=""1.5"" fill=""none"" />
    <circle cx=840.79 cy=310.35488239929754 r=27.56309386517752 stroke=""none"" stroke-width=""1.5"" fill=""none"" />
    <polygon points = ""840.79,384 848.5433604888051,411.5630938651775 833.0366395111948,411.5630938651775"" stroke=""none"" stroke-width=""3"" fill = ""none"" />
    
    </svg>
    </div>
        ","","","","","","","","","","","","get_response","true","QK4JQKpOu241j0RH","","","false","false","false","220.79","4","691.758","73.64511760070248","1.33","1","0","","",""
"html-keyboard-response","55","195426","0.0-55.0","null","null","","
    <div style="" display: block;  position: relative;"">
    
    <svg width=1366 height=768>
    <circle cx=620 cy=384 r=19.294165705624263 stroke=""black"" stroke-width=""1"" fill=""black"" />
    <circle cx=914.4351176007025 cy=384 r=27.56309386517752 stroke=""none"" stroke-width=""1.5"" fill=""none"" />
    <circle cx=840.79 cy=457.64511760070246 r=27.56309386517752 stroke=""none"" stroke-width=""1.5"" fill=""none"" />
    <circle cx=767.1448823992974 cy=384 r=27.56309386517752 stroke=""none"" stroke-width=""1.5"" fill=""none"" />
    <circle cx=840.79 cy=310.35488239929754 r=27.56309386517752 stroke=""none"" stroke-width=""1.5"" fill=""none"" />
    <polygon points = ""840.79,384 848.5433604888051,411.5630938651775 833.0366395111948,411.5630938651775"" stroke=""none"" stroke-width=""3"" fill = ""none"" />
    
    </svg>
    </div>
        ","","","","","","","","","","","","","","","","","","","","","","","","","","","","",""
"html-keyboard-response","56","195593","0.0-56.0","null","null","","
    <div style="" display: block;  position: relative;"">
    <svg width=1366 height=768>
    
    <circle cx=620 cy=384 r=19.294165705624263 stroke=""black"" stroke-width=""1"" fill=""black"" />
    <circle cx=840.79 cy=384 r=27.56309386517752 stroke=""black"" stroke-width=""1.5"" fill=""none"" />
    <circle cx=907.7401069097294 cy=384 r=27.56309386517752 stroke=""black"" stroke-width=""1.5"" fill=""none"" />
    <circle cx=840.79 cy=450.9501069097295 r=27.56309386517752 stroke=""black"" stroke-width=""1.5"" fill=""none"" />
    <circle cx=773.8398930902705 cy=384 r=27.56309386517752 stroke=""black"" stroke-width=""1.5"" fill=""none"" />
    <circle cx=840.79 cy=317.0498930902705 r=27.56309386517752 stroke=""black"" stroke-width=""1.5"" fill=""none"" />
    <polygon points = ""840.79,384 848.5433604888051,356.4369061348225 833.0366395111948,356.4369061348225"" stroke=""white"" stroke-width=""3"" fill = ""white"" />
    
    </svg>
    </div>
        ","","","","","","","","","","","","stimulus","","","","","","","","","","","","","","","","",""
"html-keyboard-response","57","196179","0.0-57.0","575.2999999998137","arrowup","","
    <div style="" display: block;  position: relative;"">
    
    <svg width=1366 height=768>
    <circle cx=620 cy=384 r=19.294165705624263 stroke=""black"" stroke-width=""1"" fill=""black"" />
    <circle cx=907.7401069097294 cy=384 r=27.56309386517752 stroke=""none"" stroke-width=""1.5"" fill=""none"" />
    <circle cx=840.79 cy=450.9501069097295 r=27.56309386517752 stroke=""none"" stroke-width=""1.5"" fill=""none"" />
    <circle cx=773.8398930902705 cy=384 r=27.56309386517752 stroke=""none"" stroke-width=""1.5"" fill=""none"" />
    <circle cx=840.79 cy=317.0498930902705 r=27.56309386517752 stroke=""none"" stroke-width=""1.5"" fill=""none"" />
    <polygon points = ""840.79,384 848.5433604888051,356.4369061348225 833.0366395111948,356.4369061348225"" stroke=""none"" stroke-width=""3"" fill = ""none"" />
    
    </svg>
    </div>
        ","","","","","","","","","","","","get_response","true","QK4JQKpOu241j0RH","","","false","true","false","220.79","4","691.758","66.95010690972951","1.21","1","0","","",""
"html-keyboard-response","58","196701","0.0-58.0","null","null","","
    <div style="" display: block;  position: relative;"">
    
    <svg width=1366 height=768>
    <circle cx=620 cy=384 r=19.294165705624263 stroke=""black"" stroke-width=""1"" fill=""black"" />
    <circle cx=907.7401069097294 cy=384 r=27.56309386517752 stroke=""none"" stroke-width=""1.5"" fill=""none"" />
    <circle cx=840.79 cy=450.9501069097295 r=27.56309386517752 stroke=""none"" stroke-width=""1.5"" fill=""none"" />
    <circle cx=773.8398930902705 cy=384 r=27.56309386517752 stroke=""none"" stroke-width=""1.5"" fill=""none"" />
    <circle cx=840.79 cy=317.0498930902705 r=27.56309386517752 stroke=""none"" stroke-width=""1.5"" fill=""none"" />
    <polygon points = ""840.79,384 848.5433604888051,356.4369061348225 833.0366395111948,356.4369061348225"" stroke=""none"" stroke-width=""3"" fill = ""none"" />
    
    </svg>
    </div>
        ","","","","","","","","","","","","","","","","","","","","","","","","","","","","",""
"html-keyboard-response","59","196857","0.0-59.0","null","null","","
    <div style="" display: block;  position: relative;"">
    <svg width=1366 height=768>
    
    <circle cx=620 cy=384 r=19.294165705624263 stroke=""black"" stroke-width=""1"" fill=""black"" />
    <circle cx=840.79 cy=384 r=27.56309386517752 stroke=""black"" stroke-width=""1.5"" fill=""none"" />
    <circle cx=901.6537335542995 cy=384 r=27.56309386517752 stroke=""black"" stroke-width=""1.5"" fill=""none"" />
    <circle cx=840.79 cy=444.86373355429953 r=27.56309386517752 stroke=""black"" stroke-width=""1.5"" fill=""none"" />
    <circle cx=779.9262664457004 cy=384 r=27.56309386517752 stroke=""black"" stroke-width=""1.5"" fill=""none"" />
    <circle cx=840.79 cy=323.13626644570047 r=27.56309386517752 stroke=""black"" stroke-width=""1.5"" fill=""none"" />
    <polygon points = ""840.79,384 848.5433604888051,411.5630938651775 833.0366395111948,411.5630938651775"" stroke=""white"" stroke-width=""3"" fill = ""white"" />
    
    </svg>
    </div>
        ","","","","","","","","","","","","stimulus","","","","","","","","","","","","","","","","",""
"html-keyboard-response","60","197427","0.0-60.0","565","arrowup","","
    <div style="" display: block;  position: relative;"">
    
    <svg width=1366 height=768>
    <circle cx=620 cy=384 r=19.294165705624263 stroke=""black"" stroke-width=""1"" fill=""black"" />
    <circle cx=901.6537335542995 cy=384 r=27.56309386517752 stroke=""none"" stroke-width=""1.5"" fill=""none"" />
    <circle cx=840.79 cy=444.86373355429953 r=27.56309386517752 stroke=""none"" stroke-width=""1.5"" fill=""none"" />
    <circle cx=779.9262664457004 cy=384 r=27.56309386517752 stroke=""none"" stroke-width=""1.5"" fill=""none"" />
    <circle cx=840.79 cy=323.13626644570047 r=27.56309386517752 stroke=""none"" stroke-width=""1.5"" fill=""none"" />
    <polygon points = ""840.79,384 848.5433604888051,411.5630938651775 833.0366395111948,411.5630938651775"" stroke=""none"" stroke-width=""3"" fill = ""none"" />
    
    </svg>
    </div>
        ","","","","","","","","","","","","get_response","false","QK4JQKpOu241j0RH","","","false","false","false","220.79","4","691.758","60.86373355429955","1.1","1","0","","",""
"html-keyboard-response","61","197957","0.0-61.0","null","null","","
    <div style="" display: block;  position: relative;"">
    
    <svg width=1366 height=768>
    <circle cx=620 cy=384 r=19.294165705624263 stroke=""black"" stroke-width=""1"" fill=""black"" />
    <circle cx=901.6537335542995 cy=384 r=27.56309386517752 stroke=""none"" stroke-width=""1.5"" fill=""none"" />
    <circle cx=840.79 cy=444.86373355429953 r=27.56309386517752 stroke=""none"" stroke-width=""1.5"" fill=""none"" />
    <circle cx=779.9262664457004 cy=384 r=27.56309386517752 stroke=""none"" stroke-width=""1.5"" fill=""none"" />
    <circle cx=840.79 cy=323.13626644570047 r=27.56309386517752 stroke=""none"" stroke-width=""1.5"" fill=""none"" />
    <polygon points = ""840.79,384 848.5433604888051,411.5630938651775 833.0366395111948,411.5630938651775"" stroke=""none"" stroke-width=""3"" fill = ""none"" />
    
    </svg>
    </div>
        ","","","","","","","","","","","","","","","","","","","","","","","","","","","","",""
"html-keyboard-response","62","198125","0.0-62.0","null","null","","
    <div style="" display: block;  position: relative;"">
    <svg width=1366 height=768>
    
    <circle cx=620 cy=384 r=19.294165705624263 stroke=""black"" stroke-width=""1"" fill=""black"" />
    <circle cx=840.79 cy=384 r=27.56309386517752 stroke=""black"" stroke-width=""1.5"" fill=""none"" />
    <circle cx=919.9128536205894 cy=384 r=27.56309386517752 stroke=""black"" stroke-width=""1.5"" fill=""none"" />
    <circle cx=840.79 cy=463.1228536205894 r=27.56309386517752 stroke=""black"" stroke-width=""1.5"" fill=""none"" />
    <circle cx=761.6671463794105 cy=384 r=27.56309386517752 stroke=""black"" stroke-width=""1.5"" fill=""none"" />
    <circle cx=840.79 cy=304.8771463794106 r=27.56309386517752 stroke=""black"" stroke-width=""1.5"" fill=""none"" />
    <polygon points = ""840.79,384 848.5433604888051,356.4369061348225 833.0366395111948,356.4369061348225"" stroke=""white"" stroke-width=""3"" fill = ""white"" />
    
    </svg>
    </div>
        ","","","","","","","","","","","","stimulus","","","","","","","","","","","","","","","","",""
"html-keyboard-response","63","199538","0.0-63.0","1393.0999999996275","arrowup","","
    <div style="" display: block;  position: relative;"">
    
    <svg width=1366 height=768>
    <circle cx=620 cy=384 r=19.294165705624263 stroke=""black"" stroke-width=""1"" fill=""black"" />
    <circle cx=919.9128536205894 cy=384 r=27.56309386517752 stroke=""none"" stroke-width=""1.5"" fill=""none"" />
    <circle cx=840.79 cy=463.1228536205894 r=27.56309386517752 stroke=""none"" stroke-width=""1.5"" fill=""none"" />
    <circle cx=761.6671463794105 cy=384 r=27.56309386517752 stroke=""none"" stroke-width=""1.5"" fill=""none"" />
    <circle cx=840.79 cy=304.8771463794106 r=27.56309386517752 stroke=""none"" stroke-width=""1.5"" fill=""none"" />
    <polygon points = ""840.79,384 848.5433604888051,356.4369061348225 833.0366395111948,356.4369061348225"" stroke=""none"" stroke-width=""3"" fill = ""none"" />
    
    </svg>
    </div>
        ","","","","","","","","","","","","get_response","true","QK4JQKpOu241j0RH","","","false","true","false","220.79","4","691.758","79.12285362058942","1.43","1","0","","",""
"html-keyboard-response","64","200052","0.0-64.0","null","null","","
    <div style="" display: block;  position: relative;"">
    
    <svg width=1366 height=768>
    <circle cx=620 cy=384 r=19.294165705624263 stroke=""black"" stroke-width=""1"" fill=""black"" />
    <circle cx=919.9128536205894 cy=384 r=27.56309386517752 stroke=""none"" stroke-width=""1.5"" fill=""none"" />
    <circle cx=840.79 cy=463.1228536205894 r=27.56309386517752 stroke=""none"" stroke-width=""1.5"" fill=""none"" />
    <circle cx=761.6671463794105 cy=384 r=27.56309386517752 stroke=""none"" stroke-width=""1.5"" fill=""none"" />
    <circle cx=840.79 cy=304.8771463794106 r=27.56309386517752 stroke=""none"" stroke-width=""1.5"" fill=""none"" />
    <polygon points = ""840.79,384 848.5433604888051,356.4369061348225 833.0366395111948,356.4369061348225"" stroke=""none"" stroke-width=""3"" fill = ""none"" />
    
    </svg>
    </div>
        ","","","","","","","","","","","","","","","","","","","","","","","","","","","","",""
"html-keyboard-response","65","200225","0.0-65.0","null","null","","
    <div style="" display: block;  position: relative;"">
    <svg width=1366 height=768>
    
    <circle cx=620 cy=384 r=19.294165705624263 stroke=""black"" stroke-width=""1"" fill=""black"" />
    <circle cx=399.21000000000004 cy=384 r=27.56309386517752 stroke=""black"" stroke-width=""1.5"" fill=""none"" />
    <circle cx=478.33285362058945 cy=384 r=27.56309386517752 stroke=""black"" stroke-width=""1.5"" fill=""none"" />
    <circle cx=399.21000000000004 cy=463.1228536205894 r=27.56309386517752 stroke=""black"" stroke-width=""1.5"" fill=""none"" />
    <circle cx=320.0871463794106 cy=384 r=27.56309386517752 stroke=""black"" stroke-width=""1.5"" fill=""none"" />
    <circle cx=399.21000000000004 cy=304.8771463794106 r=27.56309386517752 stroke=""black"" stroke-width=""1.5"" fill=""none"" />
    <polygon points = ""399.21000000000004,384 406.96336048880517,356.4369061348225 391.4566395111949,356.4369061348225"" stroke=""white"" stroke-width=""3"" fill = ""white"" />
    
    </svg>
    </div>
        ","","","","","","","","","","","","stimulus","","","","","","","","","","","","","","","","",""
"html-keyboard-response","66","200964","0.0-66.0","729","arrowup","","
    <div style="" display: block;  position: relative;"">
    
    <svg width=1366 height=768>
    <circle cx=620 cy=384 r=19.294165705624263 stroke=""black"" stroke-width=""1"" fill=""black"" />
    <circle cx=478.33285362058945 cy=384 r=27.56309386517752 stroke=""none"" stroke-width=""1.5"" fill=""none"" />
    <circle cx=399.21000000000004 cy=463.1228536205894 r=27.56309386517752 stroke=""none"" stroke-width=""1.5"" fill=""none"" />
    <circle cx=320.0871463794106 cy=384 r=27.56309386517752 stroke=""none"" stroke-width=""1.5"" fill=""none"" />
    <circle cx=399.21000000000004 cy=304.8771463794106 r=27.56309386517752 stroke=""none"" stroke-width=""1.5"" fill=""none"" />
    <polygon points = ""399.21000000000004,384 406.96336048880517,356.4369061348225 391.4566395111949,356.4369061348225"" stroke=""none"" stroke-width=""3"" fill = ""none"" />
    
    </svg>
    </div>
        ","","","","","","","","","","","","get_response","true","QK4JQKpOu241j0RH","","","true","true","false","220.79","4","691.758","79.12285362058942","1.43","1","0","","",""
"html-keyboard-response","67","201481","0.0-67.0","null","null","","
    <div style="" display: block;  position: relative;"">
    
    <svg width=1366 height=768>
    <circle cx=620 cy=384 r=19.294165705624263 stroke=""black"" stroke-width=""1"" fill=""black"" />
    <circle cx=478.33285362058945 cy=384 r=27.56309386517752 stroke=""none"" stroke-width=""1.5"" fill=""none"" />
    <circle cx=399.21000000000004 cy=463.1228536205894 r=27.56309386517752 stroke=""none"" stroke-width=""1.5"" fill=""none"" />
    <circle cx=320.0871463794106 cy=384 r=27.56309386517752 stroke=""none"" stroke-width=""1.5"" fill=""none"" />
    <circle cx=399.21000000000004 cy=304.8771463794106 r=27.56309386517752 stroke=""none"" stroke-width=""1.5"" fill=""none"" />
    <polygon points = ""399.21000000000004,384 406.96336048880517,356.4369061348225 391.4566395111949,356.4369061348225"" stroke=""none"" stroke-width=""3"" fill = ""none"" />
    
    </svg>
    </div>
        ","","","","","","","","","","","","","","","","","","","","","","","","","","","","",""
"html-keyboard-response","68","201642","0.0-68.0","null","null","","
    <div style="" display: block;  position: relative;"">
    <svg width=1366 height=768>
    
    <circle cx=620 cy=384 r=19.294165705624263 stroke=""black"" stroke-width=""1"" fill=""black"" />
    <circle cx=399.21000000000004 cy=384 r=27.56309386517752 stroke=""black"" stroke-width=""1.5"" fill=""none"" />
    <circle cx=478.33285362058945 cy=384 r=27.56309386517752 stroke=""black"" stroke-width=""1.5"" fill=""none"" />
    <circle cx=399.21000000000004 cy=463.1228536205894 r=27.56309386517752 stroke=""black"" stroke-width=""1.5"" fill=""none"" />
    <circle cx=320.0871463794106 cy=384 r=27.56309386517752 stroke=""black"" stroke-width=""1.5"" fill=""none"" />
    <circle cx=399.21000000000004 cy=304.8771463794106 r=27.56309386517752 stroke=""black"" stroke-width=""1.5"" fill=""none"" />
    <polygon points = ""399.21000000000004,384 406.96336048880517,356.4369061348225 391.4566395111949,356.4369061348225"" stroke=""white"" stroke-width=""3"" fill = ""white"" />
    
    </svg>
    </div>
        ","","","","","","","","","","","","stimulus","","","","","","","","","","","","","","","","",""
"html-keyboard-response","69","204163","0.0-69.0","2501.7999999998137","arrowup","","
    <div style="" display: block;  position: relative;"">
    
    <svg width=1366 height=768>
    <circle cx=620 cy=384 r=19.294165705624263 stroke=""black"" stroke-width=""1"" fill=""black"" />
    <circle cx=478.33285362058945 cy=384 r=27.56309386517752 stroke=""none"" stroke-width=""1.5"" fill=""none"" />
    <circle cx=399.21000000000004 cy=463.1228536205894 r=27.56309386517752 stroke=""none"" stroke-width=""1.5"" fill=""none"" />
    <circle cx=320.0871463794106 cy=384 r=27.56309386517752 stroke=""none"" stroke-width=""1.5"" fill=""none"" />
    <circle cx=399.21000000000004 cy=304.8771463794106 r=27.56309386517752 stroke=""none"" stroke-width=""1.5"" fill=""none"" />
    <polygon points = ""399.21000000000004,384 406.96336048880517,356.4369061348225 391.4566395111949,356.4369061348225"" stroke=""none"" stroke-width=""3"" fill = ""none"" />
    
    </svg>
    </div>
        ","","","","","","","","","","","","get_response","true","QK4JQKpOu241j0RH","","","true","true","false","220.79","4","691.758","79.12285362058942","1.43","1","0","","",""
"html-keyboard-response","70","204686","0.0-70.0","null","null","","
    <div style="" display: block;  position: relative;"">
    
    <svg width=1366 height=768>
    <circle cx=620 cy=384 r=19.294165705624263 stroke=""black"" stroke-width=""1"" fill=""black"" />
    <circle cx=478.33285362058945 cy=384 r=27.56309386517752 stroke=""none"" stroke-width=""1.5"" fill=""none"" />
    <circle cx=399.21000000000004 cy=463.1228536205894 r=27.56309386517752 stroke=""none"" stroke-width=""1.5"" fill=""none"" />
    <circle cx=320.0871463794106 cy=384 r=27.56309386517752 stroke=""none"" stroke-width=""1.5"" fill=""none"" />
    <circle cx=399.21000000000004 cy=304.8771463794106 r=27.56309386517752 stroke=""none"" stroke-width=""1.5"" fill=""none"" />
    <polygon points = ""399.21000000000004,384 406.96336048880517,356.4369061348225 391.4566395111949,356.4369061348225"" stroke=""none"" stroke-width=""3"" fill = ""none"" />
    
    </svg>
    </div>
        ","","","","","","","","","","","","","","","","","","","","","","","","","","","","",""
"html-keyboard-response","71","204858","0.0-71.0","null","null","","
    <div style="" display: block;  position: relative;"">
    <svg width=1366 height=768>
    
    <circle cx=620 cy=384 r=19.294165705624263 stroke=""black"" stroke-width=""1"" fill=""black"" />
    <circle cx=399.21000000000004 cy=384 r=27.56309386517752 stroke=""black"" stroke-width=""1.5"" fill=""none"" />
    <circle cx=471.1398669278086 cy=384 r=27.56309386517752 stroke=""black"" stroke-width=""1.5"" fill=""none"" />
    <circle cx=399.21000000000004 cy=455.9298669278086 r=27.56309386517752 stroke=""black"" stroke-width=""1.5"" fill=""none"" />
    <circle cx=327.28013307219146 cy=384 r=27.56309386517752 stroke=""black"" stroke-width=""1.5"" fill=""none"" />
    <circle cx=399.21000000000004 cy=312.0701330721914 r=27.56309386517752 stroke=""black"" stroke-width=""1.5"" fill=""none"" />
    <polygon points = ""399.21000000000004,384 406.96336048880517,411.5630938651775 391.4566395111949,411.5630938651775"" stroke=""white"" stroke-width=""3"" fill = ""white"" />
    
    </svg>
    </div>
        ","","","","","","","","","","","","stimulus","","","","","","","","","","","","","","","","",""
"html-keyboard-response","72","205474","0.0-72.0","605.3999999999069","arrowdown","","
    <div style="" display: block;  position: relative;"">
    
    <svg width=1366 height=768>
    <circle cx=620 cy=384 r=19.294165705624263 stroke=""black"" stroke-width=""1"" fill=""black"" />
    <circle cx=471.1398669278086 cy=384 r=27.56309386517752 stroke=""none"" stroke-width=""1.5"" fill=""none"" />
    <circle cx=399.21000000000004 cy=455.9298669278086 r=27.56309386517752 stroke=""none"" stroke-width=""1.5"" fill=""none"" />
    <circle cx=327.28013307219146 cy=384 r=27.56309386517752 stroke=""none"" stroke-width=""1.5"" fill=""none"" />
    <circle cx=399.21000000000004 cy=312.0701330721914 r=27.56309386517752 stroke=""none"" stroke-width=""1.5"" fill=""none"" />
    <polygon points = ""399.21000000000004,384 406.96336048880517,411.5630938651775 391.4566395111949,411.5630938651775"" stroke=""none"" stroke-width=""3"" fill = ""none"" />
    
    </svg>
    </div>
        ","","","","","","","","","","","","get_response","true","QK4JQKpOu241j0RH","","","true","false","false","220.79","4","691.758","71.92986692780856","1.3","1","0","","",""
"html-keyboard-response","73","205985","0.0-73.0","null","null","","
    <div style="" display: block;  position: relative;"">
    
    <svg width=1366 height=768>
    <circle cx=620 cy=384 r=19.294165705624263 stroke=""black"" stroke-width=""1"" fill=""black"" />
    <circle cx=471.1398669278086 cy=384 r=27.56309386517752 stroke=""none"" stroke-width=""1.5"" fill=""none"" />
    <circle cx=399.21000000000004 cy=455.9298669278086 r=27.56309386517752 stroke=""none"" stroke-width=""1.5"" fill=""none"" />
    <circle cx=327.28013307219146 cy=384 r=27.56309386517752 stroke=""none"" stroke-width=""1.5"" fill=""none"" />
    <circle cx=399.21000000000004 cy=312.0701330721914 r=27.56309386517752 stroke=""none"" stroke-width=""1.5"" fill=""none"" />
    <polygon points = ""399.21000000000004,384 406.96336048880517,411.5630938651775 391.4566395111949,411.5630938651775"" stroke=""none"" stroke-width=""3"" fill = ""none"" />
    
    </svg>
    </div>
        ","","","","","","","","","","","","","","","","","","","","","","","","","","","","",""
"html-keyboard-response","74","206157","0.0-74.0","null","null","","
    <div style="" display: block;  position: relative;"">
    <svg width=1366 height=768>
    
    <circle cx=620 cy=384 r=19.294165705624263 stroke=""black"" stroke-width=""1"" fill=""black"" />
    <circle cx=399.21000000000004 cy=384 r=27.56309386517752 stroke=""black"" stroke-width=""1.5"" fill=""none"" />
    <circle cx=464.6007881161896 cy=384 r=27.56309386517752 stroke=""black"" stroke-width=""1.5"" fill=""none"" />
    <circle cx=399.21000000000004 cy=449.3907881161896 r=27.56309386517752 stroke=""black"" stroke-width=""1.5"" fill=""none"" />
    <circle cx=333.81921188381045 cy=384 r=27.56309386517752 stroke=""black"" stroke-width=""1.5"" fill=""none"" />
    <circle cx=399.21000000000004 cy=318.6092118838104 r=27.56309386517752 stroke=""black"" stroke-width=""1.5"" fill=""none"" />
    <polygon points = ""399.21000000000004,384 406.96336048880517,411.5630938651775 391.4566395111949,411.5630938651775"" stroke=""white"" stroke-width=""3"" fill = ""white"" />
    
    </svg>
    </div>
        ","","","","","","","","","","","","stimulus","","","","","","","","","","","","","","","","",""
"html-keyboard-response","75","206630","0.0-75.0","469.20000000018626","arrowdown","","
    <div style="" display: block;  position: relative;"">
    
    <svg width=1366 height=768>
    <circle cx=620 cy=384 r=19.294165705624263 stroke=""black"" stroke-width=""1"" fill=""black"" />
    <circle cx=464.6007881161896 cy=384 r=27.56309386517752 stroke=""none"" stroke-width=""1.5"" fill=""none"" />
    <circle cx=399.21000000000004 cy=449.3907881161896 r=27.56309386517752 stroke=""none"" stroke-width=""1.5"" fill=""none"" />
    <circle cx=333.81921188381045 cy=384 r=27.56309386517752 stroke=""none"" stroke-width=""1.5"" fill=""none"" />
    <circle cx=399.21000000000004 cy=318.6092118838104 r=27.56309386517752 stroke=""none"" stroke-width=""1.5"" fill=""none"" />
    <polygon points = ""399.21000000000004,384 406.96336048880517,411.5630938651775 391.4566395111949,411.5630938651775"" stroke=""none"" stroke-width=""3"" fill = ""none"" />
    
    </svg>
    </div>
        ","","","","","","","","","","","","get_response","true","QK4JQKpOu241j0RH","","","true","false","false","220.79","4","691.758","65.3907881161896","1.18","1","0","","",""
"html-keyboard-response","76","207146","0.0-76.0","null","null","","
    <div style="" display: block;  position: relative;"">
    
    <svg width=1366 height=768>
    <circle cx=620 cy=384 r=19.294165705624263 stroke=""black"" stroke-width=""1"" fill=""black"" />
    <circle cx=464.6007881161896 cy=384 r=27.56309386517752 stroke=""none"" stroke-width=""1.5"" fill=""none"" />
    <circle cx=399.21000000000004 cy=449.3907881161896 r=27.56309386517752 stroke=""none"" stroke-width=""1.5"" fill=""none"" />
    <circle cx=333.81921188381045 cy=384 r=27.56309386517752 stroke=""none"" stroke-width=""1.5"" fill=""none"" />
    <circle cx=399.21000000000004 cy=318.6092118838104 r=27.56309386517752 stroke=""none"" stroke-width=""1.5"" fill=""none"" />
    <polygon points = ""399.21000000000004,384 406.96336048880517,411.5630938651775 391.4566395111949,411.5630938651775"" stroke=""none"" stroke-width=""3"" fill = ""none"" />
    
    </svg>
    </div>
        ","","","","","","","","","","","","","","","","","","","","","","","","","","","","",""
"html-keyboard-response","77","207309","0.0-77.0","null","null","","
    <div style="" display: block;  position: relative;"">
    <svg width=1366 height=768>
    
    <circle cx=620 cy=384 r=19.294165705624263 stroke=""black"" stroke-width=""1"" fill=""black"" />
    <circle cx=399.21000000000004 cy=384 r=27.56309386517752 stroke=""black"" stroke-width=""1.5"" fill=""none"" />
    <circle cx=458.65617101471787 cy=384 r=27.56309386517752 stroke=""black"" stroke-width=""1.5"" fill=""none"" />
    <circle cx=399.21000000000004 cy=443.44617101471783 r=27.56309386517752 stroke=""black"" stroke-width=""1.5"" fill=""none"" />
    <circle cx=339.7638289852822 cy=384 r=27.56309386517752 stroke=""black"" stroke-width=""1.5"" fill=""none"" />
    <circle cx=399.21000000000004 cy=324.55382898528217 r=27.56309386517752 stroke=""black"" stroke-width=""1.5"" fill=""none"" />
    <polygon points = ""399.21000000000004,384 406.96336048880517,356.4369061348225 391.4566395111949,356.4369061348225"" stroke=""white"" stroke-width=""3"" fill = ""white"" />
    
    </svg>
    </div>
        ","","","","","","","","","","","","stimulus","","","","","","","","","","","","","","","","",""
"html-keyboard-response","78","207814","0.0-78.0","496.3000000002794","arrowdown","","
    <div style="" display: block;  position: relative;"">
    
    <svg width=1366 height=768>
    <circle cx=620 cy=384 r=19.294165705624263 stroke=""black"" stroke-width=""1"" fill=""black"" />
    <circle cx=458.65617101471787 cy=384 r=27.56309386517752 stroke=""none"" stroke-width=""1.5"" fill=""none"" />
    <circle cx=399.21000000000004 cy=443.44617101471783 r=27.56309386517752 stroke=""none"" stroke-width=""1.5"" fill=""none"" />
    <circle cx=339.7638289852822 cy=384 r=27.56309386517752 stroke=""none"" stroke-width=""1.5"" fill=""none"" />
    <circle cx=399.21000000000004 cy=324.55382898528217 r=27.56309386517752 stroke=""none"" stroke-width=""1.5"" fill=""none"" />
    <polygon points = ""399.21000000000004,384 406.96336048880517,356.4369061348225 391.4566395111949,356.4369061348225"" stroke=""none"" stroke-width=""3"" fill = ""none"" />
    
    </svg>
    </div>
        ","","","","","","","","","","","","get_response","false","QK4JQKpOu241j0RH","","","true","true","false","220.79","4","691.758","59.44617101471781","1.08","1","0","","",""
"html-keyboard-response","79","208334","0.0-79.0","null","null","","
    <div style="" display: block;  position: relative;"">
    
    <svg width=1366 height=768>
    <circle cx=620 cy=384 r=19.294165705624263 stroke=""black"" stroke-width=""1"" fill=""black"" />
    <circle cx=458.65617101471787 cy=384 r=27.56309386517752 stroke=""none"" stroke-width=""1.5"" fill=""none"" />
    <circle cx=399.21000000000004 cy=443.44617101471783 r=27.56309386517752 stroke=""none"" stroke-width=""1.5"" fill=""none"" />
    <circle cx=339.7638289852822 cy=384 r=27.56309386517752 stroke=""none"" stroke-width=""1.5"" fill=""none"" />
    <circle cx=399.21000000000004 cy=324.55382898528217 r=27.56309386517752 stroke=""none"" stroke-width=""1.5"" fill=""none"" />
    <polygon points = ""399.21000000000004,384 406.96336048880517,356.4369061348225 391.4566395111949,356.4369061348225"" stroke=""none"" stroke-width=""3"" fill = ""none"" />
    
    </svg>
    </div>
        ","","","","","","","","","","","","","","","","","","","","","","","","","","","","",""
"html-keyboard-response","80","208494","0.0-80.0","null","null","","
    <div style="" display: block;  position: relative;"">
    <svg width=1366 height=768>
    
    <circle cx=620 cy=384 r=19.294165705624263 stroke=""black"" stroke-width=""1"" fill=""black"" />
    <circle cx=840.79 cy=384 r=27.56309386517752 stroke=""black"" stroke-width=""1.5"" fill=""none"" />
    <circle cx=918.0700223191332 cy=384 r=27.56309386517752 stroke=""black"" stroke-width=""1.5"" fill=""none"" />
    <circle cx=840.79 cy=461.28002231913314 r=27.56309386517752 stroke=""black"" stroke-width=""1.5"" fill=""none"" />
    <circle cx=763.5099776808668 cy=384 r=27.56309386517752 stroke=""black"" stroke-width=""1.5"" fill=""none"" />
    <circle cx=840.79 cy=306.71997768086686 r=27.56309386517752 stroke=""black"" stroke-width=""1.5"" fill=""none"" />
    <polygon points = ""840.79,384 848.5433604888051,411.5630938651775 833.0366395111948,411.5630938651775"" stroke=""white"" stroke-width=""3"" fill = ""white"" />
    
    </svg>
    </div>
        ","","","","","","","","","","","","stimulus","","","","","","","","","","","","","","","","",""
"html-keyboard-response","81","209046","0.0-81.0","541.1000000000931","arrowdown","","
    <div style="" display: block;  position: relative;"">
    
    <svg width=1366 height=768>
    <circle cx=620 cy=384 r=19.294165705624263 stroke=""black"" stroke-width=""1"" fill=""black"" />
    <circle cx=918.0700223191332 cy=384 r=27.56309386517752 stroke=""none"" stroke-width=""1.5"" fill=""none"" />
    <circle cx=840.79 cy=461.28002231913314 r=27.56309386517752 stroke=""none"" stroke-width=""1.5"" fill=""none"" />
    <circle cx=763.5099776808668 cy=384 r=27.56309386517752 stroke=""none"" stroke-width=""1.5"" fill=""none"" />
    <circle cx=840.79 cy=306.71997768086686 r=27.56309386517752 stroke=""none"" stroke-width=""1.5"" fill=""none"" />
    <polygon points = ""840.79,384 848.5433604888051,411.5630938651775 833.0366395111948,411.5630938651775"" stroke=""none"" stroke-width=""3"" fill = ""none"" />
    
    </svg>
    </div>
        ","","","","","","","","","","","","get_response","true","QK4JQKpOu241j0RH","","","false","false","false","220.79","4","691.758","77.28002231913315","1.4","1","0","","",""
"html-keyboard-response","82","209553","0.0-82.0","null","null","","
    <div style="" display: block;  position: relative;"">
    
    <svg width=1366 height=768>
    <circle cx=620 cy=384 r=19.294165705624263 stroke=""black"" stroke-width=""1"" fill=""black"" />
    <circle cx=918.0700223191332 cy=384 r=27.56309386517752 stroke=""none"" stroke-width=""1.5"" fill=""none"" />
    <circle cx=840.79 cy=461.28002231913314 r=27.56309386517752 stroke=""none"" stroke-width=""1.5"" fill=""none"" />
    <circle cx=763.5099776808668 cy=384 r=27.56309386517752 stroke=""none"" stroke-width=""1.5"" fill=""none"" />
    <circle cx=840.79 cy=306.71997768086686 r=27.56309386517752 stroke=""none"" stroke-width=""1.5"" fill=""none"" />
    <polygon points = ""840.79,384 848.5433604888051,411.5630938651775 833.0366395111948,411.5630938651775"" stroke=""none"" stroke-width=""3"" fill = ""none"" />
    
    </svg>
    </div>
        ","","","","","","","","","","","","","","","","","","","","","","","","","","","","",""
"html-keyboard-response","83","209731","0.0-83.0","null","null","","
    <div style="" display: block;  position: relative;"">
    <svg width=1366 height=768>
    
    <circle cx=620 cy=384 r=19.294165705624263 stroke=""black"" stroke-width=""1"" fill=""black"" />
    <circle cx=399.21000000000004 cy=384 r=27.56309386517752 stroke=""black"" stroke-width=""1.5"" fill=""none"" />
    <circle cx=476.4900223191332 cy=384 r=27.56309386517752 stroke=""black"" stroke-width=""1.5"" fill=""none"" />
    <circle cx=399.21000000000004 cy=461.28002231913314 r=27.56309386517752 stroke=""black"" stroke-width=""1.5"" fill=""none"" />
    <circle cx=321.9299776808669 cy=384 r=27.56309386517752 stroke=""black"" stroke-width=""1.5"" fill=""none"" />
    <circle cx=399.21000000000004 cy=306.71997768086686 r=27.56309386517752 stroke=""black"" stroke-width=""1.5"" fill=""none"" />
    <polygon points = ""399.21000000000004,384 406.96336048880517,356.4369061348225 391.4566395111949,356.4369061348225"" stroke=""white"" stroke-width=""3"" fill = ""white"" />
    
    </svg>
    </div>
        ","","","","","","","","","","","","stimulus","","","","","","","","","","","","","","","","",""
"html-keyboard-response","84","210227","0.0-84.0","478","arrowup","","
    <div style="" display: block;  position: relative;"">
    
    <svg width=1366 height=768>
    <circle cx=620 cy=384 r=19.294165705624263 stroke=""black"" stroke-width=""1"" fill=""black"" />
    <circle cx=476.4900223191332 cy=384 r=27.56309386517752 stroke=""none"" stroke-width=""1.5"" fill=""none"" />
    <circle cx=399.21000000000004 cy=461.28002231913314 r=27.56309386517752 stroke=""none"" stroke-width=""1.5"" fill=""none"" />
    <circle cx=321.9299776808669 cy=384 r=27.56309386517752 stroke=""none"" stroke-width=""1.5"" fill=""none"" />
    <circle cx=399.21000000000004 cy=306.71997768086686 r=27.56309386517752 stroke=""none"" stroke-width=""1.5"" fill=""none"" />
    <polygon points = ""399.21000000000004,384 406.96336048880517,356.4369061348225 391.4566395111949,356.4369061348225"" stroke=""none"" stroke-width=""3"" fill = ""none"" />
    
    </svg>
    </div>
        ","","","","","","","","","","","","get_response","true","QK4JQKpOu241j0RH","","","true","true","false","220.79","4","691.758","77.28002231913315","1.4","1","0","","",""
"html-keyboard-response","85","210750","0.0-85.0","null","null","","
    <div style="" display: block;  position: relative;"">
    
    <svg width=1366 height=768>
    <circle cx=620 cy=384 r=19.294165705624263 stroke=""black"" stroke-width=""1"" fill=""black"" />
    <circle cx=476.4900223191332 cy=384 r=27.56309386517752 stroke=""none"" stroke-width=""1.5"" fill=""none"" />
    <circle cx=399.21000000000004 cy=461.28002231913314 r=27.56309386517752 stroke=""none"" stroke-width=""1.5"" fill=""none"" />
    <circle cx=321.9299776808669 cy=384 r=27.56309386517752 stroke=""none"" stroke-width=""1.5"" fill=""none"" />
    <circle cx=399.21000000000004 cy=306.71997768086686 r=27.56309386517752 stroke=""none"" stroke-width=""1.5"" fill=""none"" />
    <polygon points = ""399.21000000000004,384 406.96336048880517,356.4369061348225 391.4566395111949,356.4369061348225"" stroke=""none"" stroke-width=""3"" fill = ""none"" />
    
    </svg>
    </div>
        ","","","","","","","","","","","","","","","","","","","","","","","","","","","","",""
"html-keyboard-response","86","210923","0.0-86.0","null","null","","
    <div style="" display: block;  position: relative;"">
    <svg width=1366 height=768>
    
    <circle cx=620 cy=384 r=19.294165705624263 stroke=""black"" stroke-width=""1"" fill=""black"" />
    <circle cx=840.79 cy=384 r=27.56309386517752 stroke=""black"" stroke-width=""1.5"" fill=""none"" />
    <circle cx=918.0700223191332 cy=384 r=27.56309386517752 stroke=""black"" stroke-width=""1.5"" fill=""none"" />
    <circle cx=840.79 cy=461.28002231913314 r=27.56309386517752 stroke=""black"" stroke-width=""1.5"" fill=""none"" />
    <circle cx=763.5099776808668 cy=384 r=27.56309386517752 stroke=""black"" stroke-width=""1.5"" fill=""none"" />
    <circle cx=840.79 cy=306.71997768086686 r=27.56309386517752 stroke=""black"" stroke-width=""1.5"" fill=""none"" />
    <polygon points = ""840.79,384 848.5433604888051,356.4369061348225 833.0366395111948,356.4369061348225"" stroke=""white"" stroke-width=""3"" fill = ""white"" />
    
    </svg>
    </div>
        ","","","","","","","","","","","","stimulus","","","","","","","","","","","","","","","","",""
"html-keyboard-response","87","211525","0.0-87.0","588.5","arrowup","","
    <div style="" display: block;  position: relative;"">
    
    <svg width=1366 height=768>
    <circle cx=620 cy=384 r=19.294165705624263 stroke=""black"" stroke-width=""1"" fill=""black"" />
    <circle cx=918.0700223191332 cy=384 r=27.56309386517752 stroke=""none"" stroke-width=""1.5"" fill=""none"" />
    <circle cx=840.79 cy=461.28002231913314 r=27.56309386517752 stroke=""none"" stroke-width=""1.5"" fill=""none"" />
    <circle cx=763.5099776808668 cy=384 r=27.56309386517752 stroke=""none"" stroke-width=""1.5"" fill=""none"" />
    <circle cx=840.79 cy=306.71997768086686 r=27.56309386517752 stroke=""none"" stroke-width=""1.5"" fill=""none"" />
    <polygon points = ""840.79,384 848.5433604888051,356.4369061348225 833.0366395111948,356.4369061348225"" stroke=""none"" stroke-width=""3"" fill = ""none"" />
    
    </svg>
    </div>
        ","","","","","","","","","","","","get_response","true","QK4JQKpOu241j0RH","","","false","true","false","220.79","4","691.758","77.28002231913315","1.4","1","0","","",""
"html-keyboard-response","88","212053","0.0-88.0","null","null","","
    <div style="" display: block;  position: relative;"">
    
    <svg width=1366 height=768>
    <circle cx=620 cy=384 r=19.294165705624263 stroke=""black"" stroke-width=""1"" fill=""black"" />
    <circle cx=918.0700223191332 cy=384 r=27.56309386517752 stroke=""none"" stroke-width=""1.5"" fill=""none"" />
    <circle cx=840.79 cy=461.28002231913314 r=27.56309386517752 stroke=""none"" stroke-width=""1.5"" fill=""none"" />
    <circle cx=763.5099776808668 cy=384 r=27.56309386517752 stroke=""none"" stroke-width=""1.5"" fill=""none"" />
    <circle cx=840.79 cy=306.71997768086686 r=27.56309386517752 stroke=""none"" stroke-width=""1.5"" fill=""none"" />
    <polygon points = ""840.79,384 848.5433604888051,356.4369061348225 833.0366395111948,356.4369061348225"" stroke=""none"" stroke-width=""3"" fill = ""none"" />
    
    </svg>
    </div>
        ","","","","","","","","","","","","","","","","","","","","","","","","","","","","",""
"html-keyboard-response","89","212223","0.0-89.0","null","null","","
    <div style="" display: block;  position: relative;"">
    <svg width=1366 height=768>
    
    <circle cx=620 cy=384 r=19.294165705624263 stroke=""black"" stroke-width=""1"" fill=""black"" />
    <circle cx=399.21000000000004 cy=384 r=27.56309386517752 stroke=""black"" stroke-width=""1.5"" fill=""none"" />
    <circle cx=469.4645657446665 cy=384 r=27.56309386517752 stroke=""black"" stroke-width=""1.5"" fill=""none"" />
    <circle cx=399.21000000000004 cy=454.2545657446665 r=27.56309386517752 stroke=""black"" stroke-width=""1.5"" fill=""none"" />
    <circle cx=328.95543425533356 cy=384 r=27.56309386517752 stroke=""black"" stroke-width=""1.5"" fill=""none"" />
    <circle cx=399.21000000000004 cy=313.7454342553335 r=27.56309386517752 stroke=""black"" stroke-width=""1.5"" fill=""none"" />
    <polygon points = ""399.21000000000004,384 406.96336048880517,356.4369061348225 391.4566395111949,356.4369061348225"" stroke=""white"" stroke-width=""3"" fill = ""white"" />
    
    </svg>
    </div>
        ","","","","","","","","","","","","stimulus","","","","","","","","","","","","","","","","",""
"html-keyboard-response","90","212828","0.0-90.0","593.7000000001863","arrowup","","
    <div style="" display: block;  position: relative;"">
    
    <svg width=1366 height=768>
    <circle cx=620 cy=384 r=19.294165705624263 stroke=""black"" stroke-width=""1"" fill=""black"" />
    <circle cx=469.4645657446665 cy=384 r=27.56309386517752 stroke=""none"" stroke-width=""1.5"" fill=""none"" />
    <circle cx=399.21000000000004 cy=454.2545657446665 r=27.56309386517752 stroke=""none"" stroke-width=""1.5"" fill=""none"" />
    <circle cx=328.95543425533356 cy=384 r=27.56309386517752 stroke=""none"" stroke-width=""1.5"" fill=""none"" />
    <circle cx=399.21000000000004 cy=313.7454342553335 r=27.56309386517752 stroke=""none"" stroke-width=""1.5"" fill=""none"" />
    <polygon points = ""399.21000000000004,384 406.96336048880517,356.4369061348225 391.4566395111949,356.4369061348225"" stroke=""none"" stroke-width=""3"" fill = ""none"" />
    
    </svg>
    </div>
        ","","","","","","","","","","","","get_response","true","QK4JQKpOu241j0RH","","","true","true","false","220.79","4","691.758","70.2545657446665","1.27","1","0","","",""
"html-keyboard-response","91","213350","0.0-91.0","null","null","","
    <div style="" display: block;  position: relative;"">
    
    <svg width=1366 height=768>
    <circle cx=620 cy=384 r=19.294165705624263 stroke=""black"" stroke-width=""1"" fill=""black"" />
    <circle cx=469.4645657446665 cy=384 r=27.56309386517752 stroke=""none"" stroke-width=""1.5"" fill=""none"" />
    <circle cx=399.21000000000004 cy=454.2545657446665 r=27.56309386517752 stroke=""none"" stroke-width=""1.5"" fill=""none"" />
    <circle cx=328.95543425533356 cy=384 r=27.56309386517752 stroke=""none"" stroke-width=""1.5"" fill=""none"" />
    <circle cx=399.21000000000004 cy=313.7454342553335 r=27.56309386517752 stroke=""none"" stroke-width=""1.5"" fill=""none"" />
    <polygon points = ""399.21000000000004,384 406.96336048880517,356.4369061348225 391.4566395111949,356.4369061348225"" stroke=""none"" stroke-width=""3"" fill = ""none"" />
    
    </svg>
    </div>
        ","","","","","","","","","","","","","","","","","","","","","","","","","","","","",""
"html-keyboard-response","92","213542","0.0-92.0","null","null","","
    <div style="" display: block;  position: relative;"">
    <svg width=1366 height=768>
    
    <circle cx=620 cy=384 r=19.294165705624263 stroke=""black"" stroke-width=""1"" fill=""black"" />
    <circle cx=840.79 cy=384 r=27.56309386517752 stroke=""black"" stroke-width=""1.5"" fill=""none"" />
    <circle cx=904.6577870406059 cy=384 r=27.56309386517752 stroke=""black"" stroke-width=""1.5"" fill=""none"" />
    <circle cx=840.79 cy=447.8677870406059 r=27.56309386517752 stroke=""black"" stroke-width=""1.5"" fill=""none"" />
    <circle cx=776.9222129593941 cy=384 r=27.56309386517752 stroke=""black"" stroke-width=""1.5"" fill=""none"" />
    <circle cx=840.79 cy=320.1322129593941 r=27.56309386517752 stroke=""black"" stroke-width=""1.5"" fill=""none"" />
    <polygon points = ""840.79,384 848.5433604888051,356.4369061348225 833.0366395111948,356.4369061348225"" stroke=""white"" stroke-width=""3"" fill = ""white"" />
    
    </svg>
    </div>
        ","","","","","","","","","","","","stimulus","","","","","","","","","","","","","","","","",""
"html-keyboard-response","93","214029","0.0-93.0","474.20000000018626","arrowup","","
    <div style="" display: block;  position: relative;"">
    
    <svg width=1366 height=768>
    <circle cx=620 cy=384 r=19.294165705624263 stroke=""black"" stroke-width=""1"" fill=""black"" />
    <circle cx=904.6577870406059 cy=384 r=27.56309386517752 stroke=""none"" stroke-width=""1.5"" fill=""none"" />
    <circle cx=840.79 cy=447.8677870406059 r=27.56309386517752 stroke=""none"" stroke-width=""1.5"" fill=""none"" />
    <circle cx=776.9222129593941 cy=384 r=27.56309386517752 stroke=""none"" stroke-width=""1.5"" fill=""none"" />
    <circle cx=840.79 cy=320.1322129593941 r=27.56309386517752 stroke=""none"" stroke-width=""1.5"" fill=""none"" />
    <polygon points = ""840.79,384 848.5433604888051,356.4369061348225 833.0366395111948,356.4369061348225"" stroke=""none"" stroke-width=""3"" fill = ""none"" />
    
    </svg>
    </div>
        ","","","","","","","","","","","","get_response","true","QK4JQKpOu241j0RH","","","false","true","false","220.79","4","691.758","63.8677870406059","1.16","1","0","","",""
"html-keyboard-response","94","214550","0.0-94.0","null","null","","
    <div style="" display: block;  position: relative;"">
    
    <svg width=1366 height=768>
    <circle cx=620 cy=384 r=19.294165705624263 stroke=""black"" stroke-width=""1"" fill=""black"" />
    <circle cx=904.6577870406059 cy=384 r=27.56309386517752 stroke=""none"" stroke-width=""1.5"" fill=""none"" />
    <circle cx=840.79 cy=447.8677870406059 r=27.56309386517752 stroke=""none"" stroke-width=""1.5"" fill=""none"" />
    <circle cx=776.9222129593941 cy=384 r=27.56309386517752 stroke=""none"" stroke-width=""1.5"" fill=""none"" />
    <circle cx=840.79 cy=320.1322129593941 r=27.56309386517752 stroke=""none"" stroke-width=""1.5"" fill=""none"" />
    <polygon points = ""840.79,384 848.5433604888051,356.4369061348225 833.0366395111948,356.4369061348225"" stroke=""none"" stroke-width=""3"" fill = ""none"" />
    
    </svg>
    </div>
        ","","","","","","","","","","","","","","","","","","","","","","","","","","","","",""
"html-keyboard-response","95","214709","0.0-95.0","null","null","","
    <div style="" display: block;  position: relative;"">
    <svg width=1366 height=768>
    
    <circle cx=620 cy=384 r=19.294165705624263 stroke=""black"" stroke-width=""1"" fill=""black"" />
    <circle cx=399.21000000000004 cy=384 r=27.56309386517752 stroke=""black"" stroke-width=""1.5"" fill=""none"" />
    <circle cx=457.27162458236904 cy=384 r=27.56309386517752 stroke=""black"" stroke-width=""1.5"" fill=""none"" />
    <circle cx=399.21000000000004 cy=442.061624582369 r=27.56309386517752 stroke=""black"" stroke-width=""1.5"" fill=""none"" />
