"trial_type","trial_index","time_elapsed","internal_node_id","rt","response","success","stimulus","start_time","start_time_unix","item_width_mm","item_height_mm","item_width_px","px2mm","view_dist_mm","item_width_deg","px2deg","win_width_deg","win_height_deg","trialType","correct","participantID","criticalSpacing","criticalSpacing_deg","isLeft","isUp","isEccen4","eccentricity","eccentricity_deg","viewingDistanceMean","critical_spacing","critical_spacing_deg","crowding_session","correctRate","viewDistance_1","viewDistance_2","viewDistance_3"
"pavlovia","0","2","0.0-0.0","","","","","","","","","","","","","","","","","","","","","","","","","","","","","","","","",""
"survey-text","1","11544","0.0-1.0","11528.300000071526","{""Q0"":""""}","","","","","","","","","","","","","","","","","","","","","","","","","","","","","","",""
"fullscreen","2","15401","0.0-2.0","","","true","","","","","","","","","","","","","","","","","","","","","","","","","","","","","",""
"html-keyboard-response","3","22184","0.0-3.0","6782.399999976158"," ","","<h1>Consent Form</h1>
       <p>By answering the following questions, you are participating in a study being performed by cognitive scientists in the Stanford Department of Psychology. If you have questions about this research, please contact us at stanfordpsych251@gmail.com. You must be at least 18 years old to participate. Your participation in this research is voluntary. You may decline to answer any or all of the following questions. You may decline further participation by closing the window, at any time, without adverse consequences. Your anonymity is assured; the researchers who have requested your participation will not receive any personal information about you.</p>
       <p>Press <b>any key</b> to start the experiment!</p>","","","","","","","","","","","","","","","","","","","","","","","","","","","","",""
"html-keyboard-response","4","25368","0.0-4.0","3183.3000000715256"," ","","<h1>Welcome to the Visual Crowding Experiment!</h1>
       <p>This test will take <b>10-12</b> minutes to complete.</p>
       <p>Press any key to start the experiment!</p>","30/11/2021 23:54:50","1638338090879","","","","","","","","","","","","","","","","","","","","","","","","","","",""
"html-keyboard-response","5","42905","0.0-5.0","17535.799999952316","arrowdown","","<div> 
<p> Before you begin this study, let&#39;s quickly test how far away you are sitting. You might know that vision tests at a doctor&#39;s practice often involve chinrests, the doctor basically asks you to sit away from a screen in a specific distance. We do this here with a <b>virtual chinrest</b>. </p>
<p> Please press the <b>down</b> arrow to continue.
</p>
</div>","","","","","","","","","","","","","","","","","","","","","","","","","","","","",""
"virtual-chinrest","6","217169","0.0-6.0","174263","","","","","","85.6","53.98","342","4","431.3","11.334370518436412","30.173709201027535","63.631553787713194","35.79274900558867","","","","","","","","","","","","","","","","","",""
"html-keyboard-response","7","265224","0.0-7.0","48054.89999997616","arrowdown","","
	<h2 class=""bolded-blue"">Now, you will take a peripheral vision test!</h2>
<p> 
	<b>
		<font size=""140%"">1. </font>
	</b>
	<em><b>Please use both eyes for the following task.</b></em> First, you will see a screen (like the one in the image below) showing a <b>black dot</b> in the middle of the screen, with a group of circles displayed on either the <span class=""bolded-blue"">left</span> or <span class=""bolded-blue"">right</span> of the black dot for 150 ms. <span class=""bolded-blue"">Please make sure to focus on the black dot all the time!</span>

	<div>
		<img src=""example.png"" alt=""example"" style=""border: 2px solid black"" width=""600""/> 
	</div>
	
	<b>
		<font size=""140%"">2. </font>
	</b>
	Your task is to identify whether the opening of the <b class=""bolded-blue"">center circle</b> is upward by pressing UP or downward by pressing DOWN on your keyboard. The opening of the circle will only be upward or downward, not towards left or right.

	<div>
		<img src=""arrow_keys+.png"" alt=""arrows"" style=""border: 2px solid black"" width=""600""/>
	</div>
	<br>

<p>Please press the <b>down</b> arrow key to start the <span class=""bolded-blue"">practice task</span> (this first practice task will not count toward your final results).</p>
</p>
","","","","","","","","","","","","","","","","","","","","","","","","","","","","",""
"html-keyboard-response","8","265736","0.0-8.0","null","null","","
    <div style="" display: block;  position: relative;"">
    
    <svg width=1920 height=1080>
    <circle cx=897 cy=540 r=10.81849025499988 stroke=""black"" stroke-width=""1"" fill=""black"" />
    <circle cx=NaN cy=540 r=15.454986078571258 stroke=""none"" stroke-width=""1.5"" fill=""none"" />
    <circle cx=773.2 cy=NaN r=15.454986078571258 stroke=""none"" stroke-width=""1.5"" fill=""none"" />
    <circle cx=NaN cy=540 r=15.454986078571258 stroke=""none"" stroke-width=""1.5"" fill=""none"" />
    <circle cx=773.2 cy=NaN r=15.454986078571258 stroke=""none"" stroke-width=""1.5"" fill=""none"" />
    <polygon points = ""773.2,540 777.5474103089717,555.4549860785712 768.8525896910284,555.4549860785712"" stroke=""none"" stroke-width=""3"" fill = ""none"" />
    
    </svg>
    </div>
        ","","","","","","","","","","","","","","","","","","","","","","","","","","","","",""
"html-keyboard-response","9","265891","0.0-9.0","null","null","","
    <div style="" display: block;  position: relative;"">
    <svg width=1920 height=1080>
    
    <circle cx=897 cy=540 r=10.81849025499988 stroke=""black"" stroke-width=""1"" fill=""black"" />
    <circle cx=1020.8 cy=540 r=15.454986078571258 stroke=""black"" stroke-width=""1.5"" fill=""none"" />
    <circle cx=1101.27 cy=540 r=15.454986078571258 stroke=""black"" stroke-width=""1.5"" fill=""none"" />
    <circle cx=1020.8 cy=620.47 r=15.454986078571258 stroke=""black"" stroke-width=""1.5"" fill=""none"" />
    <circle cx=940.3299999999999 cy=540 r=15.454986078571258 stroke=""black"" stroke-width=""1.5"" fill=""none"" />
    <circle cx=1020.8 cy=459.53 r=15.454986078571258 stroke=""black"" stroke-width=""1.5"" fill=""none"" />
    <polygon points = ""1020.8,540 1025.1474103089718,555.4549860785712 1016.4525896910283,555.4549860785712"" stroke=""white"" stroke-width=""3"" fill = ""white"" />
    
    </svg>
    </div>
        ","","","","","","","","","","","","stimulus","","","","","","","","","","","","","","","","",""
"html-keyboard-response","10","267208","0.0-10.0","1316.3999999761581","arrowdown","","
    <div style="" display: block;  position: relative;"">
    
    <svg width=1920 height=1080>
    <circle cx=897 cy=540 r=10.81849025499988 stroke=""black"" stroke-width=""1"" fill=""black"" />
    <circle cx=1101.27 cy=540 r=15.454986078571258 stroke=""none"" stroke-width=""1.5"" fill=""none"" />
    <circle cx=1020.8 cy=620.47 r=15.454986078571258 stroke=""none"" stroke-width=""1.5"" fill=""none"" />
    <circle cx=940.3299999999999 cy=540 r=15.454986078571258 stroke=""none"" stroke-width=""1.5"" fill=""none"" />
    <circle cx=1020.8 cy=459.53 r=15.454986078571258 stroke=""none"" stroke-width=""1.5"" fill=""none"" />
    <polygon points = ""1020.8,540 1025.1474103089718,555.4549860785712 1016.4525896910283,555.4549860785712"" stroke=""none"" stroke-width=""3"" fill = ""none"" />
    
    </svg>
    </div>
        ","","","","","","","","","","","","practice_get_response","true","yhHDMorbvTEWkI34","80.47","2.6","false","false","true","123.8","4","444.12","","","","","","",""
"html-keyboard-response","11","267717","0.0-11.0","null","null","","
    <div style="" display: block;  position: relative;"">
    
    <svg width=1920 height=1080>
    <circle cx=897 cy=540 r=10.81849025499988 stroke=""black"" stroke-width=""1"" fill=""black"" />
    <circle cx=1101.27 cy=540 r=15.454986078571258 stroke=""none"" stroke-width=""1.5"" fill=""none"" />
    <circle cx=1020.8 cy=620.47 r=15.454986078571258 stroke=""none"" stroke-width=""1.5"" fill=""none"" />
    <circle cx=940.3299999999999 cy=540 r=15.454986078571258 stroke=""none"" stroke-width=""1.5"" fill=""none"" />
    <circle cx=1020.8 cy=459.53 r=15.454986078571258 stroke=""none"" stroke-width=""1.5"" fill=""none"" />
    <polygon points = ""1020.8,540 1025.1474103089718,555.4549860785712 1016.4525896910283,555.4549860785712"" stroke=""none"" stroke-width=""3"" fill = ""none"" />
    
    </svg>
    </div>
        ","","","","","","","","","","","","","","","","","","","","","","","","","","","","",""
"html-keyboard-response","12","267872","0.0-12.0","null","null","","
    <div style="" display: block;  position: relative;"">
    <svg width=1920 height=1080>
    
    <circle cx=897 cy=540 r=10.81849025499988 stroke=""black"" stroke-width=""1"" fill=""black"" />
    <circle cx=1020.8 cy=540 r=15.454986078571258 stroke=""black"" stroke-width=""1.5"" fill=""none"" />
    <circle cx=1101.27 cy=540 r=15.454986078571258 stroke=""black"" stroke-width=""1.5"" fill=""none"" />
    <circle cx=1020.8 cy=620.47 r=15.454986078571258 stroke=""black"" stroke-width=""1.5"" fill=""none"" />
    <circle cx=940.3299999999999 cy=540 r=15.454986078571258 stroke=""black"" stroke-width=""1.5"" fill=""none"" />
    <circle cx=1020.8 cy=459.53 r=15.454986078571258 stroke=""black"" stroke-width=""1.5"" fill=""none"" />
    <polygon points = ""1020.8,540 1025.1474103089718,524.5450139214288 1016.4525896910283,524.5450139214288"" stroke=""white"" stroke-width=""3"" fill = ""white"" />
    
    </svg>
    </div>
        ","","","","","","","","","","","","stimulus","","","","","","","","","","","","","","","","",""
"html-keyboard-response","13","268168","0.0-13.0","295.10000002384186","arrowup","","
    <div style="" display: block;  position: relative;"">
    
    <svg width=1920 height=1080>
    <circle cx=897 cy=540 r=10.81849025499988 stroke=""black"" stroke-width=""1"" fill=""black"" />
    <circle cx=1101.27 cy=540 r=15.454986078571258 stroke=""none"" stroke-width=""1.5"" fill=""none"" />
    <circle cx=1020.8 cy=620.47 r=15.454986078571258 stroke=""none"" stroke-width=""1.5"" fill=""none"" />
    <circle cx=940.3299999999999 cy=540 r=15.454986078571258 stroke=""none"" stroke-width=""1.5"" fill=""none"" />
    <circle cx=1020.8 cy=459.53 r=15.454986078571258 stroke=""none"" stroke-width=""1.5"" fill=""none"" />
    <polygon points = ""1020.8,540 1025.1474103089718,524.5450139214288 1016.4525896910283,524.5450139214288"" stroke=""none"" stroke-width=""3"" fill = ""none"" />
    
    </svg>
    </div>
        ","","","","","","","","","","","","practice_get_response","true","yhHDMorbvTEWkI34","80.47","2.6","false","true","true","123.8","4","444.12","","","","","","",""
"html-keyboard-response","14","268679","0.0-14.0","null","null","","
    <div style="" display: block;  position: relative;"">
    
    <svg width=1920 height=1080>
    <circle cx=897 cy=540 r=10.81849025499988 stroke=""black"" stroke-width=""1"" fill=""black"" />
    <circle cx=1101.27 cy=540 r=15.454986078571258 stroke=""none"" stroke-width=""1.5"" fill=""none"" />
    <circle cx=1020.8 cy=620.47 r=15.454986078571258 stroke=""none"" stroke-width=""1.5"" fill=""none"" />
    <circle cx=940.3299999999999 cy=540 r=15.454986078571258 stroke=""none"" stroke-width=""1.5"" fill=""none"" />
    <circle cx=1020.8 cy=459.53 r=15.454986078571258 stroke=""none"" stroke-width=""1.5"" fill=""none"" />
    <polygon points = ""1020.8,540 1025.1474103089718,524.5450139214288 1016.4525896910283,524.5450139214288"" stroke=""none"" stroke-width=""3"" fill = ""none"" />
    
    </svg>
    </div>
        ","","","","","","","","","","","","","","","","","","","","","","","","","","","","",""
"html-keyboard-response","15","268834","0.0-15.0","null","null","","
    <div style="" display: block;  position: relative;"">
    <svg width=1920 height=1080>
    
    <circle cx=897 cy=540 r=10.81849025499988 stroke=""black"" stroke-width=""1"" fill=""black"" />
    <circle cx=1020.8 cy=540 r=15.454986078571258 stroke=""black"" stroke-width=""1.5"" fill=""none"" />
    <circle cx=1101.27 cy=540 r=15.454986078571258 stroke=""black"" stroke-width=""1.5"" fill=""none"" />
    <circle cx=1020.8 cy=620.47 r=15.454986078571258 stroke=""black"" stroke-width=""1.5"" fill=""none"" />
    <circle cx=940.3299999999999 cy=540 r=15.454986078571258 stroke=""black"" stroke-width=""1.5"" fill=""none"" />
    <circle cx=1020.8 cy=459.53 r=15.454986078571258 stroke=""black"" stroke-width=""1.5"" fill=""none"" />
    <polygon points = ""1020.8,540 1025.1474103089718,524.5450139214288 1016.4525896910283,524.5450139214288"" stroke=""white"" stroke-width=""3"" fill = ""white"" />
    
    </svg>
    </div>
        ","","","","","","","","","","","","stimulus","","","","","","","","","","","","","","","","",""
"html-keyboard-response","16","269080","0.0-16.0","245.19999992847443","arrowup","","
    <div style="" display: block;  position: relative;"">
    
    <svg width=1920 height=1080>
    <circle cx=897 cy=540 r=10.81849025499988 stroke=""black"" stroke-width=""1"" fill=""black"" />
    <circle cx=1101.27 cy=540 r=15.454986078571258 stroke=""none"" stroke-width=""1.5"" fill=""none"" />
    <circle cx=1020.8 cy=620.47 r=15.454986078571258 stroke=""none"" stroke-width=""1.5"" fill=""none"" />
    <circle cx=940.3299999999999 cy=540 r=15.454986078571258 stroke=""none"" stroke-width=""1.5"" fill=""none"" />
    <circle cx=1020.8 cy=459.53 r=15.454986078571258 stroke=""none"" stroke-width=""1.5"" fill=""none"" />
    <polygon points = ""1020.8,540 1025.1474103089718,524.5450139214288 1016.4525896910283,524.5450139214288"" stroke=""none"" stroke-width=""3"" fill = ""none"" />
    
    </svg>
    </div>
        ","","","","","","","","","","","","practice_get_response","true","yhHDMorbvTEWkI34","80.47","2.6","false","true","true","123.8","4","444.12","","","","","","",""
"html-keyboard-response","17","269595","0.0-17.0","null","null","","
    <div style="" display: block;  position: relative;"">
    
    <svg width=1920 height=1080>
    <circle cx=897 cy=540 r=10.81849025499988 stroke=""black"" stroke-width=""1"" fill=""black"" />
    <circle cx=1101.27 cy=540 r=15.454986078571258 stroke=""none"" stroke-width=""1.5"" fill=""none"" />
    <circle cx=1020.8 cy=620.47 r=15.454986078571258 stroke=""none"" stroke-width=""1.5"" fill=""none"" />
    <circle cx=940.3299999999999 cy=540 r=15.454986078571258 stroke=""none"" stroke-width=""1.5"" fill=""none"" />
    <circle cx=1020.8 cy=459.53 r=15.454986078571258 stroke=""none"" stroke-width=""1.5"" fill=""none"" />
    <polygon points = ""1020.8,540 1025.1474103089718,524.5450139214288 1016.4525896910283,524.5450139214288"" stroke=""none"" stroke-width=""3"" fill = ""none"" />
    
    </svg>
    </div>
        ","","","","","","","","","","","","","","","","","","","","","","","","","","","","",""
"html-keyboard-response","18","269750","0.0-18.0","null","null","","
    <div style="" display: block;  position: relative;"">
    <svg width=1920 height=1080>
    
    <circle cx=897 cy=540 r=10.81849025499988 stroke=""black"" stroke-width=""1"" fill=""black"" />
    <circle cx=773.2 cy=540 r=15.454986078571258 stroke=""black"" stroke-width=""1.5"" fill=""none"" />
    <circle cx=846.3545454545455 cy=540 r=15.454986078571258 stroke=""black"" stroke-width=""1.5"" fill=""none"" />
    <circle cx=773.2 cy=613.1545454545454 r=15.454986078571258 stroke=""black"" stroke-width=""1.5"" fill=""none"" />
    <circle cx=700.0454545454546 cy=540 r=15.454986078571258 stroke=""black"" stroke-width=""1.5"" fill=""none"" />
    <circle cx=773.2 cy=466.8454545454546 r=15.454986078571258 stroke=""black"" stroke-width=""1.5"" fill=""none"" />
    <polygon points = ""773.2,540 777.5474103089717,524.5450139214288 768.8525896910284,524.5450139214288"" stroke=""white"" stroke-width=""3"" fill = ""white"" />
    
    </svg>
    </div>
        ","","","","","","","","","","","","stimulus","","","","","","","","","","","","","","","","",""
"html-keyboard-response","19","270184","0.0-19.0","433.89999997615814","arrowup","","
    <div style="" display: block;  position: relative;"">
    
    <svg width=1920 height=1080>
    <circle cx=897 cy=540 r=10.81849025499988 stroke=""black"" stroke-width=""1"" fill=""black"" />
    <circle cx=846.3545454545455 cy=540 r=15.454986078571258 stroke=""none"" stroke-width=""1.5"" fill=""none"" />
    <circle cx=773.2 cy=613.1545454545454 r=15.454986078571258 stroke=""none"" stroke-width=""1.5"" fill=""none"" />
    <circle cx=700.0454545454546 cy=540 r=15.454986078571258 stroke=""none"" stroke-width=""1.5"" fill=""none"" />
    <circle cx=773.2 cy=466.8454545454546 r=15.454986078571258 stroke=""none"" stroke-width=""1.5"" fill=""none"" />
    <polygon points = ""773.2,540 777.5474103089717,524.5450139214288 768.8525896910284,524.5450139214288"" stroke=""none"" stroke-width=""3"" fill = ""none"" />
    
    </svg>
    </div>
        ","","","","","","","","","","","","practice_get_response","true","yhHDMorbvTEWkI34","73.15454545454544","2.36","true","true","true","123.8","4","444.12","","","","","","",""
"html-keyboard-response","20","270697","0.0-20.0","null","null","","
    <div style="" display: block;  position: relative;"">
    
    <svg width=1920 height=1080>
    <circle cx=897 cy=540 r=10.81849025499988 stroke=""black"" stroke-width=""1"" fill=""black"" />
    <circle cx=846.3545454545455 cy=540 r=15.454986078571258 stroke=""none"" stroke-width=""1.5"" fill=""none"" />
    <circle cx=773.2 cy=613.1545454545454 r=15.454986078571258 stroke=""none"" stroke-width=""1.5"" fill=""none"" />
    <circle cx=700.0454545454546 cy=540 r=15.454986078571258 stroke=""none"" stroke-width=""1.5"" fill=""none"" />
    <circle cx=773.2 cy=466.8454545454546 r=15.454986078571258 stroke=""none"" stroke-width=""1.5"" fill=""none"" />
    <polygon points = ""773.2,540 777.5474103089717,524.5450139214288 768.8525896910284,524.5450139214288"" stroke=""none"" stroke-width=""3"" fill = ""none"" />
    
    </svg>
    </div>
        ","","","","","","","","","","","","","","","","","","","","","","","","","","","","",""
"html-keyboard-response","21","270853","0.0-21.0","null","null","","
    <div style="" display: block;  position: relative;"">
    <svg width=1920 height=1080>
    
    <circle cx=897 cy=540 r=10.81849025499988 stroke=""black"" stroke-width=""1"" fill=""black"" />
    <circle cx=773.2 cy=540 r=15.454986078571258 stroke=""black"" stroke-width=""1.5"" fill=""none"" />
    <circle cx=839.704132231405 cy=540 r=15.454986078571258 stroke=""black"" stroke-width=""1.5"" fill=""none"" />
    <circle cx=773.2 cy=606.5041322314049 r=15.454986078571258 stroke=""black"" stroke-width=""1.5"" fill=""none"" />
    <circle cx=706.6958677685951 cy=540 r=15.454986078571258 stroke=""black"" stroke-width=""1.5"" fill=""none"" />
    <circle cx=773.2 cy=473.4958677685951 r=15.454986078571258 stroke=""black"" stroke-width=""1.5"" fill=""none"" />
    <polygon points = ""773.2,540 777.5474103089717,524.5450139214288 768.8525896910284,524.5450139214288"" stroke=""white"" stroke-width=""3"" fill = ""white"" />
    
    </svg>
    </div>
        ","","","","","","","","","","","","stimulus","","","","","","","","","","","","","","","","",""
"html-keyboard-response","22","271128","0.0-22.0","274.8000000715256","arrowup","","
    <div style="" display: block;  position: relative;"">
    
    <svg width=1920 height=1080>
    <circle cx=897 cy=540 r=10.81849025499988 stroke=""black"" stroke-width=""1"" fill=""black"" />
    <circle cx=839.704132231405 cy=540 r=15.454986078571258 stroke=""none"" stroke-width=""1.5"" fill=""none"" />
    <circle cx=773.2 cy=606.5041322314049 r=15.454986078571258 stroke=""none"" stroke-width=""1.5"" fill=""none"" />
    <circle cx=706.6958677685951 cy=540 r=15.454986078571258 stroke=""none"" stroke-width=""1.5"" fill=""none"" />
    <circle cx=773.2 cy=473.4958677685951 r=15.454986078571258 stroke=""none"" stroke-width=""1.5"" fill=""none"" />
    <polygon points = ""773.2,540 777.5474103089717,524.5450139214288 768.8525896910284,524.5450139214288"" stroke=""none"" stroke-width=""3"" fill = ""none"" />
    
    </svg>
    </div>
        ","","","","","","","","","","","","practice_get_response","true","yhHDMorbvTEWkI34","66.50413223140494","2.15","true","true","true","123.8","4","444.12","","","","","","",""
"html-keyboard-response","23","281176","0.0-23.0","10047.899999976158","arrowdown","","<div> 
<h2 class=""bolded-blue"">Well done!</h2>
<p> Now that you have the hang of it, we&#39;ll start the study. This session has 25 trials and takes about 2 minute to complete. </p> 
<p>If you are ready for the real deal, please press the <b>down</b> arrow to continue.
</p>
</div>","","","","","","","","","","","","","","","","","","","","","","","","","","","","",""
"html-keyboard-response","24","293561","0.0-24.0","12383.599999904633","arrowdown","","<div id=""continue""> 
<p>Again, please keep the <b>full screen</b> mode for the best experience.</p>
<p>Please do not move around and keep your eye on the black dot. Click <b>up</b> or <b>down</b> key on your keyboard to indicate the opening of the center circle. Make your best guess!</p>
<p>Please press the <b>down</b> arrow key to start the session 1. </p>
</div>","","","","","","","","","","","","","","","","","","","","","","","","","","","","",""
"html-keyboard-response","25","294072","0.0-25.0","null","null","","
    <div style="" display: block;  position: relative;"">
    
    <svg width=1920 height=1080>
    <circle cx=897 cy=540 r=10.81849025499988 stroke=""black"" stroke-width=""1"" fill=""black"" />
    <circle cx=839.704132231405 cy=540 r=15.454986078571258 stroke=""none"" stroke-width=""1.5"" fill=""none"" />
    <circle cx=773.2 cy=606.5041322314049 r=15.454986078571258 stroke=""none"" stroke-width=""1.5"" fill=""none"" />
    <circle cx=706.6958677685951 cy=540 r=15.454986078571258 stroke=""none"" stroke-width=""1.5"" fill=""none"" />
    <circle cx=773.2 cy=473.4958677685951 r=15.454986078571258 stroke=""none"" stroke-width=""1.5"" fill=""none"" />
    <polygon points = ""773.2,540 777.5474103089717,555.4549860785712 768.8525896910284,555.4549860785712"" stroke=""none"" stroke-width=""3"" fill = ""none"" />
    
    </svg>
    </div>
        ","","","","","","","","","","","","","","","","","","","","","","","","","","","","",""
"html-keyboard-response","26","294226","0.0-26.0","null","null","","
    <div style="" display: block;  position: relative;"">
    <svg width=1920 height=1080>
    
    <circle cx=897 cy=540 r=10.81849025499988 stroke=""black"" stroke-width=""1"" fill=""black"" />
    <circle cx=773.2 cy=540 r=15.454986078571258 stroke=""black"" stroke-width=""1.5"" fill=""none"" />
    <circle cx=853.6700000000001 cy=540 r=15.454986078571258 stroke=""black"" stroke-width=""1.5"" fill=""none"" />
    <circle cx=773.2 cy=620.47 r=15.454986078571258 stroke=""black"" stroke-width=""1.5"" fill=""none"" />
    <circle cx=692.73 cy=540 r=15.454986078571258 stroke=""black"" stroke-width=""1.5"" fill=""none"" />
    <circle cx=773.2 cy=459.53 r=15.454986078571258 stroke=""black"" stroke-width=""1.5"" fill=""none"" />
    <polygon points = ""773.2,540 777.5474103089717,555.4549860785712 768.8525896910284,555.4549860785712"" stroke=""white"" stroke-width=""3"" fill = ""white"" />
    
    </svg>
    </div>
        ","","","","","","","","","","","","stimulus","","","","","","","","","","","","","","","","",""
"html-keyboard-response","27","294537","0.0-27.0","310","arrowdown","","
    <div style="" display: block;  position: relative;"">
    
    <svg width=1920 height=1080>
    <circle cx=897 cy=540 r=10.81849025499988 stroke=""black"" stroke-width=""1"" fill=""black"" />
    <circle cx=853.6700000000001 cy=540 r=15.454986078571258 stroke=""none"" stroke-width=""1.5"" fill=""none"" />
    <circle cx=773.2 cy=620.47 r=15.454986078571258 stroke=""none"" stroke-width=""1.5"" fill=""none"" />
    <circle cx=692.73 cy=540 r=15.454986078571258 stroke=""none"" stroke-width=""1.5"" fill=""none"" />
    <circle cx=773.2 cy=459.53 r=15.454986078571258 stroke=""none"" stroke-width=""1.5"" fill=""none"" />
    <polygon points = ""773.2,540 777.5474103089717,555.4549860785712 768.8525896910284,555.4549860785712"" stroke=""none"" stroke-width=""3"" fill = ""none"" />
    
    </svg>
    </div>
        ","","","","","","","","","","","","get_response","true","yhHDMorbvTEWkI34","","","true","false","true","123.8","4","444.12","80.47","2.6","1","0","","",""
"html-keyboard-response","28","295046","0.0-28.0","null","null","","
    <div style="" display: block;  position: relative;"">
    
    <svg width=1920 height=1080>
    <circle cx=897 cy=540 r=10.81849025499988 stroke=""black"" stroke-width=""1"" fill=""black"" />
    <circle cx=853.6700000000001 cy=540 r=15.454986078571258 stroke=""none"" stroke-width=""1.5"" fill=""none"" />
    <circle cx=773.2 cy=620.47 r=15.454986078571258 stroke=""none"" stroke-width=""1.5"" fill=""none"" />
    <circle cx=692.73 cy=540 r=15.454986078571258 stroke=""none"" stroke-width=""1.5"" fill=""none"" />
    <circle cx=773.2 cy=459.53 r=15.454986078571258 stroke=""none"" stroke-width=""1.5"" fill=""none"" />
    <polygon points = ""773.2,540 777.5474103089717,555.4549860785712 768.8525896910284,555.4549860785712"" stroke=""none"" stroke-width=""3"" fill = ""none"" />
    
    </svg>
    </div>
        ","","","","","","","","","","","","","","","","","","","","","","","","","","","","",""
"html-keyboard-response","29","295202","0.0-29.0","null","null","","
    <div style="" display: block;  position: relative;"">
    <svg width=1920 height=1080>
    
    <circle cx=897 cy=540 r=10.81849025499988 stroke=""black"" stroke-width=""1"" fill=""black"" />
    <circle cx=773.2 cy=540 r=15.454986078571258 stroke=""black"" stroke-width=""1.5"" fill=""none"" />
    <circle cx=853.6700000000001 cy=540 r=15.454986078571258 stroke=""black"" stroke-width=""1.5"" fill=""none"" />
    <circle cx=773.2 cy=620.47 r=15.454986078571258 stroke=""black"" stroke-width=""1.5"" fill=""none"" />
    <circle cx=692.73 cy=540 r=15.454986078571258 stroke=""black"" stroke-width=""1.5"" fill=""none"" />
    <circle cx=773.2 cy=459.53 r=15.454986078571258 stroke=""black"" stroke-width=""1.5"" fill=""none"" />
    <polygon points = ""773.2,540 777.5474103089717,555.4549860785712 768.8525896910284,555.4549860785712"" stroke=""white"" stroke-width=""3"" fill = ""white"" />
    
    </svg>
    </div>
        ","","","","","","","","","","","","stimulus","","","","","","","","","","","","","","","","",""
"html-keyboard-response","30","295433","0.0-30.0","230","arrowdown","","
    <div style="" display: block;  position: relative;"">
    
    <svg width=1920 height=1080>
    <circle cx=897 cy=540 r=10.81849025499988 stroke=""black"" stroke-width=""1"" fill=""black"" />
    <circle cx=853.6700000000001 cy=540 r=15.454986078571258 stroke=""none"" stroke-width=""1.5"" fill=""none"" />
    <circle cx=773.2 cy=620.47 r=15.454986078571258 stroke=""none"" stroke-width=""1.5"" fill=""none"" />
    <circle cx=692.73 cy=540 r=15.454986078571258 stroke=""none"" stroke-width=""1.5"" fill=""none"" />
    <circle cx=773.2 cy=459.53 r=15.454986078571258 stroke=""none"" stroke-width=""1.5"" fill=""none"" />
    <polygon points = ""773.2,540 777.5474103089717,555.4549860785712 768.8525896910284,555.4549860785712"" stroke=""none"" stroke-width=""3"" fill = ""none"" />
    
    </svg>
    </div>
        ","","","","","","","","","","","","get_response","true","yhHDMorbvTEWkI34","","","true","false","true","123.8","4","444.12","80.47","2.6","1","0","","",""
"html-keyboard-response","31","295944","0.0-31.0","null","null","","
    <div style="" display: block;  position: relative;"">
    
    <svg width=1920 height=1080>
    <circle cx=897 cy=540 r=10.81849025499988 stroke=""black"" stroke-width=""1"" fill=""black"" />
    <circle cx=853.6700000000001 cy=540 r=15.454986078571258 stroke=""none"" stroke-width=""1.5"" fill=""none"" />
    <circle cx=773.2 cy=620.47 r=15.454986078571258 stroke=""none"" stroke-width=""1.5"" fill=""none"" />
    <circle cx=692.73 cy=540 r=15.454986078571258 stroke=""none"" stroke-width=""1.5"" fill=""none"" />
    <circle cx=773.2 cy=459.53 r=15.454986078571258 stroke=""none"" stroke-width=""1.5"" fill=""none"" />
    <polygon points = ""773.2,540 777.5474103089717,555.4549860785712 768.8525896910284,555.4549860785712"" stroke=""none"" stroke-width=""3"" fill = ""none"" />
    
    </svg>
    </div>
        ","","","","","","","","","","","","","","","","","","","","","","","","","","","","",""
"html-keyboard-response","32","296100","0.0-32.0","null","null","","
    <div style="" display: block;  position: relative;"">
    <svg width=1920 height=1080>
    
    <circle cx=897 cy=540 r=10.81849025499988 stroke=""black"" stroke-width=""1"" fill=""black"" />
    <circle cx=1020.8 cy=540 r=15.454986078571258 stroke=""black"" stroke-width=""1.5"" fill=""none"" />
    <circle cx=1101.27 cy=540 r=15.454986078571258 stroke=""black"" stroke-width=""1.5"" fill=""none"" />
    <circle cx=1020.8 cy=620.47 r=15.454986078571258 stroke=""black"" stroke-width=""1.5"" fill=""none"" />
    <circle cx=940.3299999999999 cy=540 r=15.454986078571258 stroke=""black"" stroke-width=""1.5"" fill=""none"" />
    <circle cx=1020.8 cy=459.53 r=15.454986078571258 stroke=""black"" stroke-width=""1.5"" fill=""none"" />
    <polygon points = ""1020.8,540 1025.1474103089718,555.4549860785712 1016.4525896910283,555.4549860785712"" stroke=""white"" stroke-width=""3"" fill = ""white"" />
    
    </svg>
    </div>
        ","","","","","","","","","","","","stimulus","","","","","","","","","","","","","","","","",""
"html-keyboard-response","33","296425","0.0-33.0","325.2000000476837","arrowdown","","
    <div style="" display: block;  position: relative;"">
    
    <svg width=1920 height=1080>
    <circle cx=897 cy=540 r=10.81849025499988 stroke=""black"" stroke-width=""1"" fill=""black"" />
    <circle cx=1101.27 cy=540 r=15.454986078571258 stroke=""none"" stroke-width=""1.5"" fill=""none"" />
    <circle cx=1020.8 cy=620.47 r=15.454986078571258 stroke=""none"" stroke-width=""1.5"" fill=""none"" />
    <circle cx=940.3299999999999 cy=540 r=15.454986078571258 stroke=""none"" stroke-width=""1.5"" fill=""none"" />
    <circle cx=1020.8 cy=459.53 r=15.454986078571258 stroke=""none"" stroke-width=""1.5"" fill=""none"" />
    <polygon points = ""1020.8,540 1025.1474103089718,555.4549860785712 1016.4525896910283,555.4549860785712"" stroke=""none"" stroke-width=""3"" fill = ""none"" />
    
    </svg>
    </div>
        ","","","","","","","","","","","","get_response","true","yhHDMorbvTEWkI34","","","false","false","true","123.8","4","444.12","80.47","2.6","1","0","","",""
"html-keyboard-response","34","296936","0.0-34.0","null","null","","
    <div style="" display: block;  position: relative;"">
    
    <svg width=1920 height=1080>
    <circle cx=897 cy=540 r=10.81849025499988 stroke=""black"" stroke-width=""1"" fill=""black"" />
    <circle cx=1101.27 cy=540 r=15.454986078571258 stroke=""none"" stroke-width=""1.5"" fill=""none"" />
    <circle cx=1020.8 cy=620.47 r=15.454986078571258 stroke=""none"" stroke-width=""1.5"" fill=""none"" />
    <circle cx=940.3299999999999 cy=540 r=15.454986078571258 stroke=""none"" stroke-width=""1.5"" fill=""none"" />
    <circle cx=1020.8 cy=459.53 r=15.454986078571258 stroke=""none"" stroke-width=""1.5"" fill=""none"" />
    <polygon points = ""1020.8,540 1025.1474103089718,555.4549860785712 1016.4525896910283,555.4549860785712"" stroke=""none"" stroke-width=""3"" fill = ""none"" />
    
    </svg>
    </div>
        ","","","","","","","","","","","","","","","","","","","","","","","","","","","","",""
"html-keyboard-response","35","297090","0.0-35.0","null","null","","
    <div style="" display: block;  position: relative;"">
    <svg width=1920 height=1080>
    
    <circle cx=897 cy=540 r=10.81849025499988 stroke=""black"" stroke-width=""1"" fill=""black"" />
    <circle cx=773.2 cy=540 r=15.454986078571258 stroke=""black"" stroke-width=""1.5"" fill=""none"" />
    <circle cx=846.3545454545455 cy=540 r=15.454986078571258 stroke=""black"" stroke-width=""1.5"" fill=""none"" />
    <circle cx=773.2 cy=613.1545454545454 r=15.454986078571258 stroke=""black"" stroke-width=""1.5"" fill=""none"" />
    <circle cx=700.0454545454546 cy=540 r=15.454986078571258 stroke=""black"" stroke-width=""1.5"" fill=""none"" />
    <circle cx=773.2 cy=466.8454545454546 r=15.454986078571258 stroke=""black"" stroke-width=""1.5"" fill=""none"" />
    <polygon points = ""773.2,540 777.5474103089717,555.4549860785712 768.8525896910284,555.4549860785712"" stroke=""white"" stroke-width=""3"" fill = ""white"" />
    
    </svg>
    </div>
        ","","","","","","","","","","","","stimulus","","","","","","","","","","","","","","","","",""
"html-keyboard-response","36","297385","0.0-36.0","293.7000000476837","arrowdown","","
    <div style="" display: block;  position: relative;"">
    
    <svg width=1920 height=1080>
    <circle cx=897 cy=540 r=10.81849025499988 stroke=""black"" stroke-width=""1"" fill=""black"" />
    <circle cx=846.3545454545455 cy=540 r=15.454986078571258 stroke=""none"" stroke-width=""1.5"" fill=""none"" />
    <circle cx=773.2 cy=613.1545454545454 r=15.454986078571258 stroke=""none"" stroke-width=""1.5"" fill=""none"" />
    <circle cx=700.0454545454546 cy=540 r=15.454986078571258 stroke=""none"" stroke-width=""1.5"" fill=""none"" />
    <circle cx=773.2 cy=466.8454545454546 r=15.454986078571258 stroke=""none"" stroke-width=""1.5"" fill=""none"" />
    <polygon points = ""773.2,540 777.5474103089717,555.4549860785712 768.8525896910284,555.4549860785712"" stroke=""none"" stroke-width=""3"" fill = ""none"" />
    
    </svg>
    </div>
        ","","","","","","","","","","","","get_response","true","yhHDMorbvTEWkI34","","","true","false","true","123.8","4","444.12","73.15454545454544","2.36","1","0","","",""
"html-keyboard-response","37","297896","0.0-37.0","null","null","","
    <div style="" display: block;  position: relative;"">
    
    <svg width=1920 height=1080>
    <circle cx=897 cy=540 r=10.81849025499988 stroke=""black"" stroke-width=""1"" fill=""black"" />
    <circle cx=846.3545454545455 cy=540 r=15.454986078571258 stroke=""none"" stroke-width=""1.5"" fill=""none"" />
    <circle cx=773.2 cy=613.1545454545454 r=15.454986078571258 stroke=""none"" stroke-width=""1.5"" fill=""none"" />
    <circle cx=700.0454545454546 cy=540 r=15.454986078571258 stroke=""none"" stroke-width=""1.5"" fill=""none"" />
    <circle cx=773.2 cy=466.8454545454546 r=15.454986078571258 stroke=""none"" stroke-width=""1.5"" fill=""none"" />
    <polygon points = ""773.2,540 777.5474103089717,555.4549860785712 768.8525896910284,555.4549860785712"" stroke=""none"" stroke-width=""3"" fill = ""none"" />
    
    </svg>
    </div>
        ","","","","","","","","","","","","","","","","","","","","","","","","","","","","",""
"html-keyboard-response","38","298052","0.0-38.0","null","null","","
    <div style="" display: block;  position: relative;"">
    <svg width=1920 height=1080>
    
    <circle cx=897 cy=540 r=10.81849025499988 stroke=""black"" stroke-width=""1"" fill=""black"" />
    <circle cx=1020.8 cy=540 r=15.454986078571258 stroke=""black"" stroke-width=""1.5"" fill=""none"" />
    <circle cx=1087.304132231405 cy=540 r=15.454986078571258 stroke=""black"" stroke-width=""1.5"" fill=""none"" />
    <circle cx=1020.8 cy=606.5041322314049 r=15.454986078571258 stroke=""black"" stroke-width=""1.5"" fill=""none"" />
    <circle cx=954.295867768595 cy=540 r=15.454986078571258 stroke=""black"" stroke-width=""1.5"" fill=""none"" />
    <circle cx=1020.8 cy=473.4958677685951 r=15.454986078571258 stroke=""black"" stroke-width=""1.5"" fill=""none"" />
    <polygon points = ""1020.8,540 1025.1474103089718,524.5450139214288 1016.4525896910283,524.5450139214288"" stroke=""white"" stroke-width=""3"" fill = ""white"" />
    
    </svg>
    </div>
        ","","","","","","","","","","","","stimulus","","","","","","","","","","","","","","","","",""
"html-keyboard-response","39","298249","0.0-39.0","196.39999997615814","arrowup","","
    <div style="" display: block;  position: relative;"">
    
    <svg width=1920 height=1080>
    <circle cx=897 cy=540 r=10.81849025499988 stroke=""black"" stroke-width=""1"" fill=""black"" />
    <circle cx=1087.304132231405 cy=540 r=15.454986078571258 stroke=""none"" stroke-width=""1.5"" fill=""none"" />
    <circle cx=1020.8 cy=606.5041322314049 r=15.454986078571258 stroke=""none"" stroke-width=""1.5"" fill=""none"" />
    <circle cx=954.295867768595 cy=540 r=15.454986078571258 stroke=""none"" stroke-width=""1.5"" fill=""none"" />
    <circle cx=1020.8 cy=473.4958677685951 r=15.454986078571258 stroke=""none"" stroke-width=""1.5"" fill=""none"" />
    <polygon points = ""1020.8,540 1025.1474103089718,524.5450139214288 1016.4525896910283,524.5450139214288"" stroke=""none"" stroke-width=""3"" fill = ""none"" />
    
    </svg>
    </div>
        ","","","","","","","","","","","","get_response","true","yhHDMorbvTEWkI34","","","false","true","true","123.8","4","444.12","66.50413223140494","2.15","1","0","","",""
"html-keyboard-response","40","298750","0.0-40.0","null","null","","
    <div style="" display: block;  position: relative;"">
    
    <svg width=1920 height=1080>
    <circle cx=897 cy=540 r=10.81849025499988 stroke=""black"" stroke-width=""1"" fill=""black"" />
    <circle cx=1087.304132231405 cy=540 r=15.454986078571258 stroke=""none"" stroke-width=""1.5"" fill=""none"" />
    <circle cx=1020.8 cy=606.5041322314049 r=15.454986078571258 stroke=""none"" stroke-width=""1.5"" fill=""none"" />
    <circle cx=954.295867768595 cy=540 r=15.454986078571258 stroke=""none"" stroke-width=""1.5"" fill=""none"" />
    <circle cx=1020.8 cy=473.4958677685951 r=15.454986078571258 stroke=""none"" stroke-width=""1.5"" fill=""none"" />
    <polygon points = ""1020.8,540 1025.1474103089718,524.5450139214288 1016.4525896910283,524.5450139214288"" stroke=""none"" stroke-width=""3"" fill = ""none"" />
    
    </svg>
    </div>
        ","","","","","","","","","","","","","","","","","","","","","","","","","","","","",""
"html-keyboard-response","41","298904","0.0-41.0","null","null","","
    <div style="" display: block;  position: relative;"">
    <svg width=1920 height=1080>
    
    <circle cx=897 cy=540 r=10.81849025499988 stroke=""black"" stroke-width=""1"" fill=""black"" />
    <circle cx=773.2 cy=540 r=15.454986078571258 stroke=""black"" stroke-width=""1.5"" fill=""none"" />
    <circle cx=833.65830202855 cy=540 r=15.454986078571258 stroke=""black"" stroke-width=""1.5"" fill=""none"" />
    <circle cx=773.2 cy=600.45830202855 r=15.454986078571258 stroke=""black"" stroke-width=""1.5"" fill=""none"" />
    <circle cx=712.7416979714501 cy=540 r=15.454986078571258 stroke=""black"" stroke-width=""1.5"" fill=""none"" />
    <circle cx=773.2 cy=479.54169797145005 r=15.454986078571258 stroke=""black"" stroke-width=""1.5"" fill=""none"" />
    <polygon points = ""773.2,540 777.5474103089717,524.5450139214288 768.8525896910284,524.5450139214288"" stroke=""white"" stroke-width=""3"" fill = ""white"" />
    
    </svg>
    </div>
        ","","","","","","","","","","","","stimulus","","","","","","","","","","","","","","","","",""
"html-keyboard-response","42","299257","0.0-42.0","352.10000002384186","arrowup","","
    <div style="" display: block;  position: relative;"">
    
    <svg width=1920 height=1080>
    <circle cx=897 cy=540 r=10.81849025499988 stroke=""black"" stroke-width=""1"" fill=""black"" />
    <circle cx=833.65830202855 cy=540 r=15.454986078571258 stroke=""none"" stroke-width=""1.5"" fill=""none"" />
    <circle cx=773.2 cy=600.45830202855 r=15.454986078571258 stroke=""none"" stroke-width=""1.5"" fill=""none"" />
    <circle cx=712.7416979714501 cy=540 r=15.454986078571258 stroke=""none"" stroke-width=""1.5"" fill=""none"" />
    <circle cx=773.2 cy=479.54169797145005 r=15.454986078571258 stroke=""none"" stroke-width=""1.5"" fill=""none"" />
    <polygon points = ""773.2,540 777.5474103089717,524.5450139214288 768.8525896910284,524.5450139214288"" stroke=""none"" stroke-width=""3"" fill = ""none"" />
    
    </svg>
    </div>
        ","","","","","","","","","","","","get_response","true","yhHDMorbvTEWkI34","","","true","true","true","123.8","4","444.12","60.45830202854994","1.95","1","0","","",""
"html-keyboard-response","43","299771","0.0-43.0","null","null","","
    <div style="" display: block;  position: relative;"">
    
    <svg width=1920 height=1080>
    <circle cx=897 cy=540 r=10.81849025499988 stroke=""black"" stroke-width=""1"" fill=""black"" />
    <circle cx=833.65830202855 cy=540 r=15.454986078571258 stroke=""none"" stroke-width=""1.5"" fill=""none"" />
    <circle cx=773.2 cy=600.45830202855 r=15.454986078571258 stroke=""none"" stroke-width=""1.5"" fill=""none"" />
    <circle cx=712.7416979714501 cy=540 r=15.454986078571258 stroke=""none"" stroke-width=""1.5"" fill=""none"" />
    <circle cx=773.2 cy=479.54169797145005 r=15.454986078571258 stroke=""none"" stroke-width=""1.5"" fill=""none"" />
    <polygon points = ""773.2,540 777.5474103089717,524.5450139214288 768.8525896910284,524.5450139214288"" stroke=""none"" stroke-width=""3"" fill = ""none"" />
    
    </svg>
    </div>
        ","","","","","","","","","","","","","","","","","","","","","","","","","","","","",""
"html-keyboard-response","44","299925","0.0-44.0","null","null","","
    <div style="" display: block;  position: relative;"">
    <svg width=1920 height=1080>
    
    <circle cx=897 cy=540 r=10.81849025499988 stroke=""black"" stroke-width=""1"" fill=""black"" />
    <circle cx=773.2 cy=540 r=15.454986078571258 stroke=""black"" stroke-width=""1.5"" fill=""none"" />
    <circle cx=828.1620927532273 cy=540 r=15.454986078571258 stroke=""black"" stroke-width=""1.5"" fill=""none"" />
    <circle cx=773.2 cy=594.9620927532272 r=15.454986078571258 stroke=""black"" stroke-width=""1.5"" fill=""none"" />
    <circle cx=718.2379072467728 cy=540 r=15.454986078571258 stroke=""black"" stroke-width=""1.5"" fill=""none"" />
    <circle cx=773.2 cy=485.03790724677276 r=15.454986078571258 stroke=""black"" stroke-width=""1.5"" fill=""none"" />
    <polygon points = ""773.2,540 777.5474103089717,555.4549860785712 768.8525896910284,555.4549860785712"" stroke=""white"" stroke-width=""3"" fill = ""white"" />
    
    </svg>
    </div>
        ","","","","","","","","","","","","stimulus","","","","","","","","","","","","","","","","",""
"html-keyboard-response","45","300217","0.0-45.0","290.89999997615814","arrowdown","","
    <div style="" display: block;  position: relative;"">
    
    <svg width=1920 height=1080>
    <circle cx=897 cy=540 r=10.81849025499988 stroke=""black"" stroke-width=""1"" fill=""black"" />
    <circle cx=828.1620927532273 cy=540 r=15.454986078571258 stroke=""none"" stroke-width=""1.5"" fill=""none"" />
    <circle cx=773.2 cy=594.9620927532272 r=15.454986078571258 stroke=""none"" stroke-width=""1.5"" fill=""none"" />
    <circle cx=718.2379072467728 cy=540 r=15.454986078571258 stroke=""none"" stroke-width=""1.5"" fill=""none"" />
    <circle cx=773.2 cy=485.03790724677276 r=15.454986078571258 stroke=""none"" stroke-width=""1.5"" fill=""none"" />
    <polygon points = ""773.2,540 777.5474103089717,555.4549860785712 768.8525896910284,555.4549860785712"" stroke=""none"" stroke-width=""3"" fill = ""none"" />
    
    </svg>
    </div>
        ","","","","","","","","","","","","get_response","true","yhHDMorbvTEWkI34","","","true","false","true","123.8","4","444.12","54.96209275322721","1.77","1","0","","",""
"html-keyboard-response","46","300729","0.0-46.0","null","null","","
    <div style="" display: block;  position: relative;"">
    
    <svg width=1920 height=1080>
    <circle cx=897 cy=540 r=10.81849025499988 stroke=""black"" stroke-width=""1"" fill=""black"" />
    <circle cx=828.1620927532273 cy=540 r=15.454986078571258 stroke=""none"" stroke-width=""1.5"" fill=""none"" />
    <circle cx=773.2 cy=594.9620927532272 r=15.454986078571258 stroke=""none"" stroke-width=""1.5"" fill=""none"" />
    <circle cx=718.2379072467728 cy=540 r=15.454986078571258 stroke=""none"" stroke-width=""1.5"" fill=""none"" />
    <circle cx=773.2 cy=485.03790724677276 r=15.454986078571258 stroke=""none"" stroke-width=""1.5"" fill=""none"" />
    <polygon points = ""773.2,540 777.5474103089717,555.4549860785712 768.8525896910284,555.4549860785712"" stroke=""none"" stroke-width=""3"" fill = ""none"" />
    
    </svg>
    </div>
        ","","","","","","","","","","","","","","","","","","","","","","","","","","","","",""
"html-keyboard-response","47","300886","0.0-47.0","null","null","","
    <div style="" display: block;  position: relative;"">
    <svg width=1920 height=1080>
    
    <circle cx=897 cy=540 r=10.81849025499988 stroke=""black"" stroke-width=""1"" fill=""black"" />
    <circle cx=1020.8 cy=540 r=15.454986078571258 stroke=""black"" stroke-width=""1.5"" fill=""none"" />
    <circle cx=1070.76553886657 cy=540 r=15.454986078571258 stroke=""black"" stroke-width=""1.5"" fill=""none"" />
    <circle cx=1020.8 cy=589.9655388665702 r=15.454986078571258 stroke=""black"" stroke-width=""1.5"" fill=""none"" />
    <circle cx=970.8344611334297 cy=540 r=15.454986078571258 stroke=""black"" stroke-width=""1.5"" fill=""none"" />
    <circle cx=1020.8 cy=490.03446113342983 r=15.454986078571258 stroke=""black"" stroke-width=""1.5"" fill=""none"" />
    <polygon points = ""1020.8,540 1025.1474103089718,555.4549860785712 1016.4525896910283,555.4549860785712"" stroke=""white"" stroke-width=""3"" fill = ""white"" />
    
    </svg>
    </div>
        ","","","","","","","","","","","","stimulus","","","","","","","","","","","","","","","","",""
"html-keyboard-response","48","301177","0.0-48.0","290.60000002384186","arrowdown","","
    <div style="" display: block;  position: relative;"">
    
    <svg width=1920 height=1080>
    <circle cx=897 cy=540 r=10.81849025499988 stroke=""black"" stroke-width=""1"" fill=""black"" />
    <circle cx=1070.76553886657 cy=540 r=15.454986078571258 stroke=""none"" stroke-width=""1.5"" fill=""none"" />
    <circle cx=1020.8 cy=589.9655388665702 r=15.454986078571258 stroke=""none"" stroke-width=""1.5"" fill=""none"" />
    <circle cx=970.8344611334297 cy=540 r=15.454986078571258 stroke=""none"" stroke-width=""1.5"" fill=""none"" />
    <circle cx=1020.8 cy=490.03446113342983 r=15.454986078571258 stroke=""none"" stroke-width=""1.5"" fill=""none"" />
    <polygon points = ""1020.8,540 1025.1474103089718,555.4549860785712 1016.4525896910283,555.4549860785712"" stroke=""none"" stroke-width=""3"" fill = ""none"" />
    
    </svg>
    </div>
        ","","","","","","","","","","","","get_response","true","yhHDMorbvTEWkI34","","","false","false","true","123.8","4","444.12","49.965538866570185","1.61","1","0","","",""
"html-keyboard-response","49","301692","0.0-49.0","null","null","","
    <div style="" display: block;  position: relative;"">
    
    <svg width=1920 height=1080>
    <circle cx=897 cy=540 r=10.81849025499988 stroke=""black"" stroke-width=""1"" fill=""black"" />
    <circle cx=1070.76553886657 cy=540 r=15.454986078571258 stroke=""none"" stroke-width=""1.5"" fill=""none"" />
    <circle cx=1020.8 cy=589.9655388665702 r=15.454986078571258 stroke=""none"" stroke-width=""1.5"" fill=""none"" />
    <circle cx=970.8344611334297 cy=540 r=15.454986078571258 stroke=""none"" stroke-width=""1.5"" fill=""none"" />
    <circle cx=1020.8 cy=490.03446113342983 r=15.454986078571258 stroke=""none"" stroke-width=""1.5"" fill=""none"" />
    <polygon points = ""1020.8,540 1025.1474103089718,555.4549860785712 1016.4525896910283,555.4549860785712"" stroke=""none"" stroke-width=""3"" fill = ""none"" />
    
    </svg>
    </div>
        ","","","","","","","","","","","","","","","","","","","","","","","","","","","","",""
"html-keyboard-response","50","301846","0.0-50.0","null","null","","
    <div style="" display: block;  position: relative;"">
    <svg width=1920 height=1080>
    
    <circle cx=897 cy=540 r=10.81849025499988 stroke=""black"" stroke-width=""1"" fill=""black"" />
    <circle cx=1020.8 cy=540 r=15.454986078571258 stroke=""black"" stroke-width=""1.5"" fill=""none"" />
    <circle cx=1066.2232171514274 cy=540 r=15.454986078571258 stroke=""black"" stroke-width=""1.5"" fill=""none"" />
    <circle cx=1020.8 cy=585.4232171514275 r=15.454986078571258 stroke=""black"" stroke-width=""1.5"" fill=""none"" />
    <circle cx=975.3767828485725 cy=540 r=15.454986078571258 stroke=""black"" stroke-width=""1.5"" fill=""none"" />
    <circle cx=1020.8 cy=494.5767828485726 r=15.454986078571258 stroke=""black"" stroke-width=""1.5"" fill=""none"" />
    <polygon points = ""1020.8,540 1025.1474103089718,555.4549860785712 1016.4525896910283,555.4549860785712"" stroke=""white"" stroke-width=""3"" fill = ""white"" />
    
    </svg>
    </div>
        ","","","","","","","","","","","","stimulus","","","","","","","","","","","","","","","","",""
"html-keyboard-response","51","302057","0.0-51.0","210.5","arrowdown","","
    <div style="" display: block;  position: relative;"">
    
    <svg width=1920 height=1080>
    <circle cx=897 cy=540 r=10.81849025499988 stroke=""black"" stroke-width=""1"" fill=""black"" />
    <circle cx=1066.2232171514274 cy=540 r=15.454986078571258 stroke=""none"" stroke-width=""1.5"" fill=""none"" />
    <circle cx=1020.8 cy=585.4232171514275 r=15.454986078571258 stroke=""none"" stroke-width=""1.5"" fill=""none"" />
    <circle cx=975.3767828485725 cy=540 r=15.454986078571258 stroke=""none"" stroke-width=""1.5"" fill=""none"" />
    <circle cx=1020.8 cy=494.5767828485726 r=15.454986078571258 stroke=""none"" stroke-width=""1.5"" fill=""none"" />
    <polygon points = ""1020.8,540 1025.1474103089718,555.4549860785712 1016.4525896910283,555.4549860785712"" stroke=""none"" stroke-width=""3"" fill = ""none"" />
    
    </svg>
    </div>
        ","","","","","","","","","","","","get_response","true","yhHDMorbvTEWkI34","","","false","false","true","123.8","4","444.12","45.42321715142744","1.47","1","0","","",""
"html-keyboard-response","52","302561","0.0-52.0","null","null","","
    <div style="" display: block;  position: relative;"">
    
    <svg width=1920 height=1080>
    <circle cx=897 cy=540 r=10.81849025499988 stroke=""black"" stroke-width=""1"" fill=""black"" />
    <circle cx=1066.2232171514274 cy=540 r=15.454986078571258 stroke=""none"" stroke-width=""1.5"" fill=""none"" />
    <circle cx=1020.8 cy=585.4232171514275 r=15.454986078571258 stroke=""none"" stroke-width=""1.5"" fill=""none"" />
    <circle cx=975.3767828485725 cy=540 r=15.454986078571258 stroke=""none"" stroke-width=""1.5"" fill=""none"" />
    <circle cx=1020.8 cy=494.5767828485726 r=15.454986078571258 stroke=""none"" stroke-width=""1.5"" fill=""none"" />
    <polygon points = ""1020.8,540 1025.1474103089718,555.4549860785712 1016.4525896910283,555.4549860785712"" stroke=""none"" stroke-width=""3"" fill = ""none"" />
    
    </svg>
    </div>
        ","","","","","","","","","","","","","","","","","","","","","","","","","","","","",""
"html-keyboard-response","53","302716","0.0-53.0","null","null","","
    <div style="" display: block;  position: relative;"">
    <svg width=1920 height=1080>
    
    <circle cx=897 cy=540 r=10.81849025499988 stroke=""black"" stroke-width=""1"" fill=""black"" />
    <circle cx=1020.8 cy=540 r=15.454986078571258 stroke=""black"" stroke-width=""1.5"" fill=""none"" />
    <circle cx=1062.093833774025 cy=540 r=15.454986078571258 stroke=""black"" stroke-width=""1.5"" fill=""none"" />
    <circle cx=1020.8 cy=581.293833774025 r=15.454986078571258 stroke=""black"" stroke-width=""1.5"" fill=""none"" />
    <circle cx=979.506166225975 cy=540 r=15.454986078571258 stroke=""black"" stroke-width=""1.5"" fill=""none"" />
    <circle cx=1020.8 cy=498.70616622597504 r=15.454986078571258 stroke=""black"" stroke-width=""1.5"" fill=""none"" />
    <polygon points = ""1020.8,540 1025.1474103089718,524.5450139214288 1016.4525896910283,524.5450139214288"" stroke=""white"" stroke-width=""3"" fill = ""white"" />
    
    </svg>
    </div>
        ","","","","","","","","","","","","stimulus","","","","","","","","","","","","","","","","",""
"html-keyboard-response","54","302921","0.0-54.0","204.5","arrowup","","
    <div style="" display: block;  position: relative;"">
    
    <svg width=1920 height=1080>
    <circle cx=897 cy=540 r=10.81849025499988 stroke=""black"" stroke-width=""1"" fill=""black"" />
    <circle cx=1062.093833774025 cy=540 r=15.454986078571258 stroke=""none"" stroke-width=""1.5"" fill=""none"" />
    <circle cx=1020.8 cy=581.293833774025 r=15.454986078571258 stroke=""none"" stroke-width=""1.5"" fill=""none"" />
    <circle cx=979.506166225975 cy=540 r=15.454986078571258 stroke=""none"" stroke-width=""1.5"" fill=""none"" />
    <circle cx=1020.8 cy=498.70616622597504 r=15.454986078571258 stroke=""none"" stroke-width=""1.5"" fill=""none"" />
    <polygon points = ""1020.8,540 1025.1474103089718,524.5450139214288 1016.4525896910283,524.5450139214288"" stroke=""none"" stroke-width=""3"" fill = ""none"" />
    
    </svg>
    </div>
        ","","","","","","","","","","","","get_response","true","yhHDMorbvTEWkI34","","","false","true","true","123.8","4","444.12","41.29383377402494","1.33","1","0","","",""
"html-keyboard-response","55","303427","0.0-55.0","null","null","","
    <div style="" display: block;  position: relative;"">
    
    <svg width=1920 height=1080>
    <circle cx=897 cy=540 r=10.81849025499988 stroke=""black"" stroke-width=""1"" fill=""black"" />
    <circle cx=1062.093833774025 cy=540 r=15.454986078571258 stroke=""none"" stroke-width=""1.5"" fill=""none"" />
    <circle cx=1020.8 cy=581.293833774025 r=15.454986078571258 stroke=""none"" stroke-width=""1.5"" fill=""none"" />
    <circle cx=979.506166225975 cy=540 r=15.454986078571258 stroke=""none"" stroke-width=""1.5"" fill=""none"" />
    <circle cx=1020.8 cy=498.70616622597504 r=15.454986078571258 stroke=""none"" stroke-width=""1.5"" fill=""none"" />
    <polygon points = ""1020.8,540 1025.1474103089718,524.5450139214288 1016.4525896910283,524.5450139214288"" stroke=""none"" stroke-width=""3"" fill = ""none"" />
    
    </svg>
    </div>
        ","","","","","","","","","","","","","","","","","","","","","","","","","","","","",""
"html-keyboard-response","56","303582","0.0-56.0","null","null","","
    <div style="" display: block;  position: relative;"">
    <svg width=1920 height=1080>
    
    <circle cx=897 cy=540 r=10.81849025499988 stroke=""black"" stroke-width=""1"" fill=""black"" />
    <circle cx=773.2 cy=540 r=15.454986078571258 stroke=""black"" stroke-width=""1.5"" fill=""none"" />
    <circle cx=810.7398488854773 cy=540 r=15.454986078571258 stroke=""black"" stroke-width=""1.5"" fill=""none"" />
    <circle cx=773.2 cy=577.5398488854772 r=15.454986078571258 stroke=""black"" stroke-width=""1.5"" fill=""none"" />
    <circle cx=735.6601511145228 cy=540 r=15.454986078571258 stroke=""black"" stroke-width=""1.5"" fill=""none"" />
    <circle cx=773.2 cy=502.4601511145228 r=15.454986078571258 stroke=""black"" stroke-width=""1.5"" fill=""none"" />
    <polygon points = ""773.2,540 777.5474103089717,555.4549860785712 768.8525896910284,555.4549860785712"" stroke=""white"" stroke-width=""3"" fill = ""white"" />
    
    </svg>
    </div>
        ","","","","","","","","","","","","stimulus","","","","","","","","","","","","","","","","",""
"html-keyboard-response","57","303897","0.0-57.0","314.09999990463257","arrowdown","","
    <div style="" display: block;  position: relative;"">
    
    <svg width=1920 height=1080>
    <circle cx=897 cy=540 r=10.81849025499988 stroke=""black"" stroke-width=""1"" fill=""black"" />
    <circle cx=810.7398488854773 cy=540 r=15.454986078571258 stroke=""none"" stroke-width=""1.5"" fill=""none"" />
    <circle cx=773.2 cy=577.5398488854772 r=15.454986078571258 stroke=""none"" stroke-width=""1.5"" fill=""none"" />
    <circle cx=735.6601511145228 cy=540 r=15.454986078571258 stroke=""none"" stroke-width=""1.5"" fill=""none"" />
    <circle cx=773.2 cy=502.4601511145228 r=15.454986078571258 stroke=""none"" stroke-width=""1.5"" fill=""none"" />
    <polygon points = ""773.2,540 777.5474103089717,555.4549860785712 768.8525896910284,555.4549860785712"" stroke=""none"" stroke-width=""3"" fill = ""none"" />
    
    </svg>
    </div>
        ","","","","","","","","","","","","get_response","true","yhHDMorbvTEWkI34","","","true","false","true","123.8","4","444.12","37.53984888547721","1.21","1","0","","",""
"html-keyboard-response","58","304405","0.0-58.0","null","null","","
    <div style="" display: block;  position: relative;"">
    
    <svg width=1920 height=1080>
    <circle cx=897 cy=540 r=10.81849025499988 stroke=""black"" stroke-width=""1"" fill=""black"" />
    <circle cx=810.7398488854773 cy=540 r=15.454986078571258 stroke=""none"" stroke-width=""1.5"" fill=""none"" />
    <circle cx=773.2 cy=577.5398488854772 r=15.454986078571258 stroke=""none"" stroke-width=""1.5"" fill=""none"" />
    <circle cx=735.6601511145228 cy=540 r=15.454986078571258 stroke=""none"" stroke-width=""1.5"" fill=""none"" />
    <circle cx=773.2 cy=502.4601511145228 r=15.454986078571258 stroke=""none"" stroke-width=""1.5"" fill=""none"" />
    <polygon points = ""773.2,540 777.5474103089717,555.4549860785712 768.8525896910284,555.4549860785712"" stroke=""none"" stroke-width=""3"" fill = ""none"" />
    
    </svg>
    </div>
        ","","","","","","","","","","","","","","","","","","","","","","","","","","","","",""
"html-keyboard-response","59","304560","0.0-59.0","null","null","","
    <div style="" display: block;  position: relative;"">
    <svg width=1920 height=1080>
    
    <circle cx=897 cy=540 r=10.81849025499988 stroke=""black"" stroke-width=""1"" fill=""black"" />
    <circle cx=1020.8 cy=540 r=15.454986078571258 stroke=""black"" stroke-width=""1.5"" fill=""none"" />
    <circle cx=1054.9271353504337 cy=540 r=15.454986078571258 stroke=""black"" stroke-width=""1.5"" fill=""none"" />
    <circle cx=1020.8 cy=574.1271353504338 r=15.454986078571258 stroke=""black"" stroke-width=""1.5"" fill=""none"" />
    <circle cx=986.6728646495661 cy=540 r=15.454986078571258 stroke=""black"" stroke-width=""1.5"" fill=""none"" />
    <circle cx=1020.8 cy=505.87286464956617 r=15.454986078571258 stroke=""black"" stroke-width=""1.5"" fill=""none"" />
    <polygon points = ""1020.8,540 1025.1474103089718,555.4549860785712 1016.4525896910283,555.4549860785712"" stroke=""white"" stroke-width=""3"" fill = ""white"" />
    
    </svg>
    </div>
        ","","","","","","","","","","","","stimulus","","","","","","","","","","","","","","","","",""
"html-keyboard-response","60","305033","0.0-60.0","472.5","arrowdown","","
    <div style="" display: block;  position: relative;"">
    
    <svg width=1920 height=1080>
    <circle cx=897 cy=540 r=10.81849025499988 stroke=""black"" stroke-width=""1"" fill=""black"" />
    <circle cx=1054.9271353504337 cy=540 r=15.454986078571258 stroke=""none"" stroke-width=""1.5"" fill=""none"" />
    <circle cx=1020.8 cy=574.1271353504338 r=15.454986078571258 stroke=""none"" stroke-width=""1.5"" fill=""none"" />
    <circle cx=986.6728646495661 cy=540 r=15.454986078571258 stroke=""none"" stroke-width=""1.5"" fill=""none"" />
    <circle cx=1020.8 cy=505.87286464956617 r=15.454986078571258 stroke=""none"" stroke-width=""1.5"" fill=""none"" />
    <polygon points = ""1020.8,540 1025.1474103089718,555.4549860785712 1016.4525896910283,555.4549860785712"" stroke=""none"" stroke-width=""3"" fill = ""none"" />
    
    </svg>
    </div>
        ","","","","","","","","","","","","get_response","true","yhHDMorbvTEWkI34","","","false","false","true","123.8","4","444.12","34.127135350433825","1.1","1","0","","",""
"html-keyboard-response","61","305543","0.0-61.0","null","null","","
    <div style="" display: block;  position: relative;"">
    
    <svg width=1920 height=1080>
    <circle cx=897 cy=540 r=10.81849025499988 stroke=""black"" stroke-width=""1"" fill=""black"" />
    <circle cx=1054.9271353504337 cy=540 r=15.454986078571258 stroke=""none"" stroke-width=""1.5"" fill=""none"" />
    <circle cx=1020.8 cy=574.1271353504338 r=15.454986078571258 stroke=""none"" stroke-width=""1.5"" fill=""none"" />
    <circle cx=986.6728646495661 cy=540 r=15.454986078571258 stroke=""none"" stroke-width=""1.5"" fill=""none"" />
    <circle cx=1020.8 cy=505.87286464956617 r=15.454986078571258 stroke=""none"" stroke-width=""1.5"" fill=""none"" />
    <polygon points = ""1020.8,540 1025.1474103089718,555.4549860785712 1016.4525896910283,555.4549860785712"" stroke=""none"" stroke-width=""3"" fill = ""none"" />
    
    </svg>
    </div>
        ","","","","","","","","","","","","","","","","","","","","","","","","","","","","",""
"html-keyboard-response","62","305698","0.0-62.0","null","null","","
    <div style="" display: block;  position: relative;"">
    <svg width=1920 height=1080>
    
    <circle cx=897 cy=540 r=10.81849025499988 stroke=""black"" stroke-width=""1"" fill=""black"" />
    <circle cx=773.2 cy=540 r=15.454986078571258 stroke=""black"" stroke-width=""1.5"" fill=""none"" />
    <circle cx=804.2246685003944 cy=540 r=15.454986078571258 stroke=""black"" stroke-width=""1.5"" fill=""none"" />
    <circle cx=773.2 cy=571.0246685003943 r=15.454986078571258 stroke=""black"" stroke-width=""1.5"" fill=""none"" />
    <circle cx=742.1753314996057 cy=540 r=15.454986078571258 stroke=""black"" stroke-width=""1.5"" fill=""none"" />
    <circle cx=773.2 cy=508.9753314996056 r=15.454986078571258 stroke=""black"" stroke-width=""1.5"" fill=""none"" />
    <polygon points = ""773.2,540 777.5474103089717,555.4549860785712 768.8525896910284,555.4549860785712"" stroke=""white"" stroke-width=""3"" fill = ""white"" />
    
    </svg>
    </div>
        ","","","","","","","","","","","","stimulus","","","","","","","","","","","","","","","","",""
"html-keyboard-response","63","306073","0.0-63.0","373.7999999523163","arrowdown","","
    <div style="" display: block;  position: relative;"">
    
    <svg width=1920 height=1080>
    <circle cx=897 cy=540 r=10.81849025499988 stroke=""black"" stroke-width=""1"" fill=""black"" />
    <circle cx=804.2246685003944 cy=540 r=15.454986078571258 stroke=""none"" stroke-width=""1.5"" fill=""none"" />
    <circle cx=773.2 cy=571.0246685003943 r=15.454986078571258 stroke=""none"" stroke-width=""1.5"" fill=""none"" />
    <circle cx=742.1753314996057 cy=540 r=15.454986078571258 stroke=""none"" stroke-width=""1.5"" fill=""none"" />
    <circle cx=773.2 cy=508.9753314996056 r=15.454986078571258 stroke=""none"" stroke-width=""1.5"" fill=""none"" />
    <polygon points = ""773.2,540 777.5474103089717,555.4549860785712 768.8525896910284,555.4549860785712"" stroke=""none"" stroke-width=""3"" fill = ""none"" />
    
    </svg>
    </div>
        ","","","","","","","","","","","","get_response","true","yhHDMorbvTEWkI34","","","true","false","true","123.8","4","444.12","31.024668500394384","1","1","0","","",""
"html-keyboard-response","64","306582","0.0-64.0","null","null","","
    <div style="" display: block;  position: relative;"">
    
    <svg width=1920 height=1080>
    <circle cx=897 cy=540 r=10.81849025499988 stroke=""black"" stroke-width=""1"" fill=""black"" />
    <circle cx=804.2246685003944 cy=540 r=15.454986078571258 stroke=""none"" stroke-width=""1.5"" fill=""none"" />
    <circle cx=773.2 cy=571.0246685003943 r=15.454986078571258 stroke=""none"" stroke-width=""1.5"" fill=""none"" />
    <circle cx=742.1753314996057 cy=540 r=15.454986078571258 stroke=""none"" stroke-width=""1.5"" fill=""none"" />
    <circle cx=773.2 cy=508.9753314996056 r=15.454986078571258 stroke=""none"" stroke-width=""1.5"" fill=""none"" />
    <polygon points = ""773.2,540 777.5474103089717,555.4549860785712 768.8525896910284,555.4549860785712"" stroke=""none"" stroke-width=""3"" fill = ""none"" />
    
    </svg>
    </div>
        ","","","","","","","","","","","","","","","","","","","","","","","","","","","","",""
"html-keyboard-response","65","306737","0.0-65.0","null","null","","
    <div style="" display: block;  position: relative;"">
    <svg width=1920 height=1080>
    
    <circle cx=897 cy=540 r=10.81849025499988 stroke=""black"" stroke-width=""1"" fill=""black"" />
    <circle cx=1020.8 cy=540 r=15.454986078571258 stroke=""black"" stroke-width=""1.5"" fill=""none"" />
    <circle cx=1051.7099721571424 cy=540 r=15.454986078571258 stroke=""black"" stroke-width=""1.5"" fill=""none"" />
    <circle cx=1020.8 cy=570.9099721571425 r=15.454986078571258 stroke=""black"" stroke-width=""1.5"" fill=""none"" />
    <circle cx=989.8900278428574 cy=540 r=15.454986078571258 stroke=""black"" stroke-width=""1.5"" fill=""none"" />
    <circle cx=1020.8 cy=509.09002784285747 r=15.454986078571258 stroke=""black"" stroke-width=""1.5"" fill=""none"" />
    <polygon points = ""1020.8,540 1025.1474103089718,524.5450139214288 1016.4525896910283,524.5450139214288"" stroke=""white"" stroke-width=""3"" fill = ""white"" />
    
    </svg>
    </div>
        ","","","","","","","","","","","","stimulus","","","","","","","","","","","","","","","","",""
"html-keyboard-response","66","307001","0.0-66.0","263.6999999284744","arrowup","","
    <div style="" display: block;  position: relative;"">
    
    <svg width=1920 height=1080>
    <circle cx=897 cy=540 r=10.81849025499988 stroke=""black"" stroke-width=""1"" fill=""black"" />
    <circle cx=1051.7099721571424 cy=540 r=15.454986078571258 stroke=""none"" stroke-width=""1.5"" fill=""none"" />
    <circle cx=1020.8 cy=570.9099721571425 r=15.454986078571258 stroke=""none"" stroke-width=""1.5"" fill=""none"" />
    <circle cx=989.8900278428574 cy=540 r=15.454986078571258 stroke=""none"" stroke-width=""1.5"" fill=""none"" />
    <circle cx=1020.8 cy=509.09002784285747 r=15.454986078571258 stroke=""none"" stroke-width=""1.5"" fill=""none"" />
    <polygon points = ""1020.8,540 1025.1474103089718,524.5450139214288 1016.4525896910283,524.5450139214288"" stroke=""none"" stroke-width=""3"" fill = ""none"" />
    
    </svg>
    </div>
        ","","","","","","","","","","","","get_response","true","yhHDMorbvTEWkI34","","","false","true","true","123.8","4","444.12","30.909972157142516","1","1","0","","",""
"html-keyboard-response","67","307510","0.0-67.0","null","null","","
    <div style="" display: block;  position: relative;"">
    
    <svg width=1920 height=1080>
    <circle cx=897 cy=540 r=10.81849025499988 stroke=""black"" stroke-width=""1"" fill=""black"" />
    <circle cx=1051.7099721571424 cy=540 r=15.454986078571258 stroke=""none"" stroke-width=""1.5"" fill=""none"" />
    <circle cx=1020.8 cy=570.9099721571425 r=15.454986078571258 stroke=""none"" stroke-width=""1.5"" fill=""none"" />
    <circle cx=989.8900278428574 cy=540 r=15.454986078571258 stroke=""none"" stroke-width=""1.5"" fill=""none"" />
    <circle cx=1020.8 cy=509.09002784285747 r=15.454986078571258 stroke=""none"" stroke-width=""1.5"" fill=""none"" />
    <polygon points = ""1020.8,540 1025.1474103089718,524.5450139214288 1016.4525896910283,524.5450139214288"" stroke=""none"" stroke-width=""3"" fill = ""none"" />
    
    </svg>
    </div>
        ","","","","","","","","","","","","","","","","","","","","","","","","","","","","",""
"html-keyboard-response","68","307665","0.0-68.0","null","null","","
    <div style="" display: block;  position: relative;"">
    <svg width=1920 height=1080>
    
    <circle cx=897 cy=540 r=10.81849025499988 stroke=""black"" stroke-width=""1"" fill=""black"" />
    <circle cx=773.2 cy=540 r=15.454986078571258 stroke=""black"" stroke-width=""1.5"" fill=""none"" />
    <circle cx=804.1099721571426 cy=540 r=15.454986078571258 stroke=""black"" stroke-width=""1.5"" fill=""none"" />
    <circle cx=773.2 cy=570.9099721571425 r=15.454986078571258 stroke=""black"" stroke-width=""1.5"" fill=""none"" />
    <circle cx=742.2900278428575 cy=540 r=15.454986078571258 stroke=""black"" stroke-width=""1.5"" fill=""none"" />
    <circle cx=773.2 cy=509.09002784285747 r=15.454986078571258 stroke=""black"" stroke-width=""1.5"" fill=""none"" />
    <polygon points = ""773.2,540 777.5474103089717,524.5450139214288 768.8525896910284,524.5450139214288"" stroke=""white"" stroke-width=""3"" fill = ""white"" />
    
    </svg>
    </div>
        ","","","","","","","","","","","","stimulus","","","","","","","","","","","","","","","","",""
"html-keyboard-response","69","307913","0.0-69.0","247.19999992847443","arrowup","","
    <div style="" display: block;  position: relative;"">
    
    <svg width=1920 height=1080>
    <circle cx=897 cy=540 r=10.81849025499988 stroke=""black"" stroke-width=""1"" fill=""black"" />
    <circle cx=804.1099721571426 cy=540 r=15.454986078571258 stroke=""none"" stroke-width=""1.5"" fill=""none"" />
    <circle cx=773.2 cy=570.9099721571425 r=15.454986078571258 stroke=""none"" stroke-width=""1.5"" fill=""none"" />
    <circle cx=742.2900278428575 cy=540 r=15.454986078571258 stroke=""none"" stroke-width=""1.5"" fill=""none"" />
    <circle cx=773.2 cy=509.09002784285747 r=15.454986078571258 stroke=""none"" stroke-width=""1.5"" fill=""none"" />
    <polygon points = ""773.2,540 777.5474103089717,524.5450139214288 768.8525896910284,524.5450139214288"" stroke=""none"" stroke-width=""3"" fill = ""none"" />
    
    </svg>
    </div>
        ","","","","","","","","","","","","get_response","true","yhHDMorbvTEWkI34","","","true","true","true","123.8","4","444.12","30.909972157142516","1","1","0","","",""
"html-keyboard-response","70","308423","0.0-70.0","null","null","","
    <div style="" display: block;  position: relative;"">
    
    <svg width=1920 height=1080>
    <circle cx=897 cy=540 r=10.81849025499988 stroke=""black"" stroke-width=""1"" fill=""black"" />
    <circle cx=804.1099721571426 cy=540 r=15.454986078571258 stroke=""none"" stroke-width=""1.5"" fill=""none"" />
    <circle cx=773.2 cy=570.9099721571425 r=15.454986078571258 stroke=""none"" stroke-width=""1.5"" fill=""none"" />
    <circle cx=742.2900278428575 cy=540 r=15.454986078571258 stroke=""none"" stroke-width=""1.5"" fill=""none"" />
    <circle cx=773.2 cy=509.09002784285747 r=15.454986078571258 stroke=""none"" stroke-width=""1.5"" fill=""none"" />
    <polygon points = ""773.2,540 777.5474103089717,524.5450139214288 768.8525896910284,524.5450139214288"" stroke=""none"" stroke-width=""3"" fill = ""none"" />
    
    </svg>
    </div>
        ","","","","","","","","","","","","","","","","","","","","","","","","","","","","",""
"html-keyboard-response","71","308578","0.0-71.0","null","null","","
    <div style="" display: block;  position: relative;"">
    <svg width=1920 height=1080>
    
    <circle cx=897 cy=540 r=10.81849025499988 stroke=""black"" stroke-width=""1"" fill=""black"" />
    <circle cx=773.2 cy=540 r=15.454986078571258 stroke=""black"" stroke-width=""1.5"" fill=""none"" />
    <circle cx=804.1099721571426 cy=540 r=15.454986078571258 stroke=""black"" stroke-width=""1.5"" fill=""none"" />
    <circle cx=773.2 cy=570.9099721571425 r=15.454986078571258 stroke=""black"" stroke-width=""1.5"" fill=""none"" />
    <circle cx=742.2900278428575 cy=540 r=15.454986078571258 stroke=""black"" stroke-width=""1.5"" fill=""none"" />
    <circle cx=773.2 cy=509.09002784285747 r=15.454986078571258 stroke=""black"" stroke-width=""1.5"" fill=""none"" />
    <polygon points = ""773.2,540 777.5474103089717,555.4549860785712 768.8525896910284,555.4549860785712"" stroke=""white"" stroke-width=""3"" fill = ""white"" />
    
    </svg>
    </div>
        ","","","","","","","","","","","","stimulus","","","","","","","","","","","","","","","","",""
"html-keyboard-response","72","308921","0.0-72.0","341.59999990463257","arrowdown","","
    <div style="" display: block;  position: relative;"">
    
    <svg width=1920 height=1080>
    <circle cx=897 cy=540 r=10.81849025499988 stroke=""black"" stroke-width=""1"" fill=""black"" />
    <circle cx=804.1099721571426 cy=540 r=15.454986078571258 stroke=""none"" stroke-width=""1.5"" fill=""none"" />
    <circle cx=773.2 cy=570.9099721571425 r=15.454986078571258 stroke=""none"" stroke-width=""1.5"" fill=""none"" />
    <circle cx=742.2900278428575 cy=540 r=15.454986078571258 stroke=""none"" stroke-width=""1.5"" fill=""none"" />
    <circle cx=773.2 cy=509.09002784285747 r=15.454986078571258 stroke=""none"" stroke-width=""1.5"" fill=""none"" />
    <polygon points = ""773.2,540 777.5474103089717,555.4549860785712 768.8525896910284,555.4549860785712"" stroke=""none"" stroke-width=""3"" fill = ""none"" />
    
    </svg>
    </div>
        ","","","","","","","","","","","","get_response","true","yhHDMorbvTEWkI34","","","true","false","true","123.8","4","444.12","30.909972157142516","1","1","0","","",""
"html-keyboard-response","73","309434","0.0-73.0","null","null","","
    <div style="" display: block;  position: relative;"">
    
    <svg width=1920 height=1080>
    <circle cx=897 cy=540 r=10.81849025499988 stroke=""black"" stroke-width=""1"" fill=""black"" />
    <circle cx=804.1099721571426 cy=540 r=15.454986078571258 stroke=""none"" stroke-width=""1.5"" fill=""none"" />
    <circle cx=773.2 cy=570.9099721571425 r=15.454986078571258 stroke=""none"" stroke-width=""1.5"" fill=""none"" />
    <circle cx=742.2900278428575 cy=540 r=15.454986078571258 stroke=""none"" stroke-width=""1.5"" fill=""none"" />
    <circle cx=773.2 cy=509.09002784285747 r=15.454986078571258 stroke=""none"" stroke-width=""1.5"" fill=""none"" />
    <polygon points = ""773.2,540 777.5474103089717,555.4549860785712 768.8525896910284,555.4549860785712"" stroke=""none"" stroke-width=""3"" fill = ""none"" />
    
    </svg>
    </div>
        ","","","","","","","","","","","","","","","","","","","","","","","","","","","","",""
"html-keyboard-response","74","309589","0.0-74.0","null","null","","
    <div style="" display: block;  position: relative;"">
    <svg width=1920 height=1080>
    
    <circle cx=897 cy=540 r=10.81849025499988 stroke=""black"" stroke-width=""1"" fill=""black"" />
    <circle cx=1020.8 cy=540 r=15.454986078571258 stroke=""black"" stroke-width=""1.5"" fill=""none"" />
    <circle cx=1051.7099721571424 cy=540 r=15.454986078571258 stroke=""black"" stroke-width=""1.5"" fill=""none"" />
    <circle cx=1020.8 cy=570.9099721571425 r=15.454986078571258 stroke=""black"" stroke-width=""1.5"" fill=""none"" />
    <circle cx=989.8900278428574 cy=540 r=15.454986078571258 stroke=""black"" stroke-width=""1.5"" fill=""none"" />
    <circle cx=1020.8 cy=509.09002784285747 r=15.454986078571258 stroke=""black"" stroke-width=""1.5"" fill=""none"" />
    <polygon points = ""1020.8,540 1025.1474103089718,555.4549860785712 1016.4525896910283,555.4549860785712"" stroke=""white"" stroke-width=""3"" fill = ""white"" />
    
    </svg>
    </div>
        ","","","","","","","","","","","","stimulus","","","","","","","","","","","","","","","","",""
"html-keyboard-response","75","310009","0.0-75.0","419.40000009536743","arrowup","","
    <div style="" display: block;  position: relative;"">
    
    <svg width=1920 height=1080>
    <circle cx=897 cy=540 r=10.81849025499988 stroke=""black"" stroke-width=""1"" fill=""black"" />
    <circle cx=1051.7099721571424 cy=540 r=15.454986078571258 stroke=""none"" stroke-width=""1.5"" fill=""none"" />
    <circle cx=1020.8 cy=570.9099721571425 r=15.454986078571258 stroke=""none"" stroke-width=""1.5"" fill=""none"" />
    <circle cx=989.8900278428574 cy=540 r=15.454986078571258 stroke=""none"" stroke-width=""1.5"" fill=""none"" />
    <circle cx=1020.8 cy=509.09002784285747 r=15.454986078571258 stroke=""none"" stroke-width=""1.5"" fill=""none"" />
    <polygon points = ""1020.8,540 1025.1474103089718,555.4549860785712 1016.4525896910283,555.4549860785712"" stroke=""none"" stroke-width=""3"" fill = ""none"" />
    
    </svg>
    </div>
        ","","","","","","","","","","","","get_response","false","yhHDMorbvTEWkI34","","","false","false","true","123.8","4","444.12","30.909972157142516","1","1","0","","",""
"html-keyboard-response","76","310514","0.0-76.0","null","null","","
    <div style="" display: block;  position: relative;"">
    
    <svg width=1920 height=1080>
    <circle cx=897 cy=540 r=10.81849025499988 stroke=""black"" stroke-width=""1"" fill=""black"" />
    <circle cx=1051.7099721571424 cy=540 r=15.454986078571258 stroke=""none"" stroke-width=""1.5"" fill=""none"" />
    <circle cx=1020.8 cy=570.9099721571425 r=15.454986078571258 stroke=""none"" stroke-width=""1.5"" fill=""none"" />
    <circle cx=989.8900278428574 cy=540 r=15.454986078571258 stroke=""none"" stroke-width=""1.5"" fill=""none"" />
    <circle cx=1020.8 cy=509.09002784285747 r=15.454986078571258 stroke=""none"" stroke-width=""1.5"" fill=""none"" />
    <polygon points = ""1020.8,540 1025.1474103089718,555.4549860785712 1016.4525896910283,555.4549860785712"" stroke=""none"" stroke-width=""3"" fill = ""none"" />
    
    </svg>
    </div>
        ","","","","","","","","","","","","","","","","","","","","","","","","","","","","",""
"html-keyboard-response","77","310667","0.0-77.0","null","null","","
    <div style="" display: block;  position: relative;"">
    <svg width=1920 height=1080>
    
    <circle cx=897 cy=540 r=10.81849025499988 stroke=""black"" stroke-width=""1"" fill=""black"" />
    <circle cx=1020.8 cy=540 r=15.454986078571258 stroke=""black"" stroke-width=""1.5"" fill=""none"" />
    <circle cx=1060.9829638042852 cy=540 r=15.454986078571258 stroke=""black"" stroke-width=""1.5"" fill=""none"" />
    <circle cx=1020.8 cy=580.1829638042852 r=15.454986078571258 stroke=""black"" stroke-width=""1.5"" fill=""none"" />
    <circle cx=980.6170361957147 cy=540 r=15.454986078571258 stroke=""black"" stroke-width=""1.5"" fill=""none"" />
    <circle cx=1020.8 cy=499.8170361957147 r=15.454986078571258 stroke=""black"" stroke-width=""1.5"" fill=""none"" />
    <polygon points = ""1020.8,540 1025.1474103089718,524.5450139214288 1016.4525896910283,524.5450139214288"" stroke=""white"" stroke-width=""3"" fill = ""white"" />
    
    </svg>
    </div>
        ","","","","","","","","","","","","stimulus","","","","","","","","","","","","","","","","",""
"html-keyboard-response","78","310921","0.0-78.0","253.10000002384186","arrowup","","
    <div style="" display: block;  position: relative;"">
    
    <svg width=1920 height=1080>
    <circle cx=897 cy=540 r=10.81849025499988 stroke=""black"" stroke-width=""1"" fill=""black"" />
    <circle cx=1060.9829638042852 cy=540 r=15.454986078571258 stroke=""none"" stroke-width=""1.5"" fill=""none"" />
    <circle cx=1020.8 cy=580.1829638042852 r=15.454986078571258 stroke=""none"" stroke-width=""1.5"" fill=""none"" />
    <circle cx=980.6170361957147 cy=540 r=15.454986078571258 stroke=""none"" stroke-width=""1.5"" fill=""none"" />
    <circle cx=1020.8 cy=499.8170361957147 r=15.454986078571258 stroke=""none"" stroke-width=""1.5"" fill=""none"" />
    <polygon points = ""1020.8,540 1025.1474103089718,524.5450139214288 1016.4525896910283,524.5450139214288"" stroke=""none"" stroke-width=""3"" fill = ""none"" />
    
    </svg>
    </div>
        ","","","","","","","","","","","","get_response","true","yhHDMorbvTEWkI34","","","false","true","true","123.8","4","444.12","40.18296380428527","1.3","1","0","","",""
"html-keyboard-response","79","311427","0.0-79.0","null","null","","
    <div style="" display: block;  position: relative;"">
    
    <svg width=1920 height=1080>
    <circle cx=897 cy=540 r=10.81849025499988 stroke=""black"" stroke-width=""1"" fill=""black"" />
    <circle cx=1060.9829638042852 cy=540 r=15.454986078571258 stroke=""none"" stroke-width=""1.5"" fill=""none"" />
    <circle cx=1020.8 cy=580.1829638042852 r=15.454986078571258 stroke=""none"" stroke-width=""1.5"" fill=""none"" />
    <circle cx=980.6170361957147 cy=540 r=15.454986078571258 stroke=""none"" stroke-width=""1.5"" fill=""none"" />
    <circle cx=1020.8 cy=499.8170361957147 r=15.454986078571258 stroke=""none"" stroke-width=""1.5"" fill=""none"" />
    <polygon points = ""1020.8,540 1025.1474103089718,524.5450139214288 1016.4525896910283,524.5450139214288"" stroke=""none"" stroke-width=""3"" fill = ""none"" />
    
    </svg>
    </div>
        ","","","","","","","","","","","","","","","","","","","","","","","","","","","","",""
"html-keyboard-response","80","311582","0.0-80.0","null","null","","
    <div style="" display: block;  position: relative;"">
    <svg width=1920 height=1080>
    
    <circle cx=897 cy=540 r=10.81849025499988 stroke=""black"" stroke-width=""1"" fill=""black"" />
    <circle cx=773.2 cy=540 r=15.454986078571258 stroke=""black"" stroke-width=""1.5"" fill=""none"" />
    <circle cx=813.3829638042853 cy=540 r=15.454986078571258 stroke=""black"" stroke-width=""1.5"" fill=""none"" />
    <circle cx=773.2 cy=580.1829638042852 r=15.454986078571258 stroke=""black"" stroke-width=""1.5"" fill=""none"" />
    <circle cx=733.0170361957148 cy=540 r=15.454986078571258 stroke=""black"" stroke-width=""1.5"" fill=""none"" />
    <circle cx=773.2 cy=499.8170361957147 r=15.454986078571258 stroke=""black"" stroke-width=""1.5"" fill=""none"" />
    <polygon points = ""773.2,540 777.5474103089717,555.4549860785712 768.8525896910284,555.4549860785712"" stroke=""white"" stroke-width=""3"" fill = ""white"" />
    
    </svg>
    </div>
        ","","","","","","","","","","","","stimulus","","","","","","","","","","","","","","","","",""
"html-keyboard-response","81","311897","0.0-81.0","313.6999999284744","arrowdown","","
    <div style="" display: block;  position: relative;"">
    
    <svg width=1920 height=1080>
    <circle cx=897 cy=540 r=10.81849025499988 stroke=""black"" stroke-width=""1"" fill=""black"" />
    <circle cx=813.3829638042853 cy=540 r=15.454986078571258 stroke=""none"" stroke-width=""1.5"" fill=""none"" />
    <circle cx=773.2 cy=580.1829638042852 r=15.454986078571258 stroke=""none"" stroke-width=""1.5"" fill=""none"" />
    <circle cx=733.0170361957148 cy=540 r=15.454986078571258 stroke=""none"" stroke-width=""1.5"" fill=""none"" />
    <circle cx=773.2 cy=499.8170361957147 r=15.454986078571258 stroke=""none"" stroke-width=""1.5"" fill=""none"" />
    <polygon points = ""773.2,540 777.5474103089717,555.4549860785712 768.8525896910284,555.4549860785712"" stroke=""none"" stroke-width=""3"" fill = ""none"" />
    
    </svg>
    </div>
        ","","","","","","","","","","","","get_response","true","yhHDMorbvTEWkI34","","","true","false","true","123.8","4","444.12","40.18296380428527","1.3","1","0","","",""
"html-keyboard-response","82","312401","0.0-82.0","null","null","","
    <div style="" display: block;  position: relative;"">
    
    <svg width=1920 height=1080>
    <circle cx=897 cy=540 r=10.81849025499988 stroke=""black"" stroke-width=""1"" fill=""black"" />
    <circle cx=813.3829638042853 cy=540 r=15.454986078571258 stroke=""none"" stroke-width=""1.5"" fill=""none"" />
    <circle cx=773.2 cy=580.1829638042852 r=15.454986078571258 stroke=""none"" stroke-width=""1.5"" fill=""none"" />
    <circle cx=733.0170361957148 cy=540 r=15.454986078571258 stroke=""none"" stroke-width=""1.5"" fill=""none"" />
    <circle cx=773.2 cy=499.8170361957147 r=15.454986078571258 stroke=""none"" stroke-width=""1.5"" fill=""none"" />
    <polygon points = ""773.2,540 777.5474103089717,555.4549860785712 768.8525896910284,555.4549860785712"" stroke=""none"" stroke-width=""3"" fill = ""none"" />
    
    </svg>
    </div>
        ","","","","","","","","","","","","","","","","","","","","","","","","","","","","",""
"html-keyboard-response","83","312555","0.0-83.0","null","null","","
    <div style="" display: block;  position: relative;"">
    <svg width=1920 height=1080>
    
    <circle cx=897 cy=540 r=10.81849025499988 stroke=""black"" stroke-width=""1"" fill=""black"" />
    <circle cx=773.2 cy=540 r=15.454986078571258 stroke=""black"" stroke-width=""1.5"" fill=""none"" />
    <circle cx=813.3829638042853 cy=540 r=15.454986078571258 stroke=""black"" stroke-width=""1.5"" fill=""none"" />
    <circle cx=773.2 cy=580.1829638042852 r=15.454986078571258 stroke=""black"" stroke-width=""1.5"" fill=""none"" />
    <circle cx=733.0170361957148 cy=540 r=15.454986078571258 stroke=""black"" stroke-width=""1.5"" fill=""none"" />
    <circle cx=773.2 cy=499.8170361957147 r=15.454986078571258 stroke=""black"" stroke-width=""1.5"" fill=""none"" />
    <polygon points = ""773.2,540 777.5474103089717,524.5450139214288 768.8525896910284,524.5450139214288"" stroke=""white"" stroke-width=""3"" fill = ""white"" />
    
    </svg>
    </div>
        ","","","","","","","","","","","","stimulus","","","","","","","","","","","","","","","","",""
"html-keyboard-response","84","312937","0.0-84.0","381.1999999284744","arrowup","","
    <div style="" display: block;  position: relative;"">
    
    <svg width=1920 height=1080>
    <circle cx=897 cy=540 r=10.81849025499988 stroke=""black"" stroke-width=""1"" fill=""black"" />
    <circle cx=813.3829638042853 cy=540 r=15.454986078571258 stroke=""none"" stroke-width=""1.5"" fill=""none"" />
    <circle cx=773.2 cy=580.1829638042852 r=15.454986078571258 stroke=""none"" stroke-width=""1.5"" fill=""none"" />
    <circle cx=733.0170361957148 cy=540 r=15.454986078571258 stroke=""none"" stroke-width=""1.5"" fill=""none"" />
    <circle cx=773.2 cy=499.8170361957147 r=15.454986078571258 stroke=""none"" stroke-width=""1.5"" fill=""none"" />
    <polygon points = ""773.2,540 777.5474103089717,524.5450139214288 768.8525896910284,524.5450139214288"" stroke=""none"" stroke-width=""3"" fill = ""none"" />
    
    </svg>
    </div>
        ","","","","","","","","","","","","get_response","true","yhHDMorbvTEWkI34","","","true","true","true","123.8","4","444.12","40.18296380428527","1.3","1","0","","",""
"html-keyboard-response","85","313448","0.0-85.0","null","null","","
    <div style="" display: block;  position: relative;"">
    
    <svg width=1920 height=1080>
    <circle cx=897 cy=540 r=10.81849025499988 stroke=""black"" stroke-width=""1"" fill=""black"" />
    <circle cx=813.3829638042853 cy=540 r=15.454986078571258 stroke=""none"" stroke-width=""1.5"" fill=""none"" />
    <circle cx=773.2 cy=580.1829638042852 r=15.454986078571258 stroke=""none"" stroke-width=""1.5"" fill=""none"" />
    <circle cx=733.0170361957148 cy=540 r=15.454986078571258 stroke=""none"" stroke-width=""1.5"" fill=""none"" />
    <circle cx=773.2 cy=499.8170361957147 r=15.454986078571258 stroke=""none"" stroke-width=""1.5"" fill=""none"" />
    <polygon points = ""773.2,540 777.5474103089717,524.5450139214288 768.8525896910284,524.5450139214288"" stroke=""none"" stroke-width=""3"" fill = ""none"" />
    
    </svg>
    </div>
        ","","","","","","","","","","","","","","","","","","","","","","","","","","","","",""
"html-keyboard-response","86","313603","0.0-86.0","null","null","","
    <div style="" display: block;  position: relative;"">
    <svg width=1920 height=1080>
    
    <circle cx=897 cy=540 r=10.81849025499988 stroke=""black"" stroke-width=""1"" fill=""black"" />
    <circle cx=773.2 cy=540 r=15.454986078571258 stroke=""black"" stroke-width=""1.5"" fill=""none"" />
    <circle cx=809.7299670948048 cy=540 r=15.454986078571258 stroke=""black"" stroke-width=""1.5"" fill=""none"" />
    <circle cx=773.2 cy=576.5299670948048 r=15.454986078571258 stroke=""black"" stroke-width=""1.5"" fill=""none"" />
    <circle cx=736.6700329051953 cy=540 r=15.454986078571258 stroke=""black"" stroke-width=""1.5"" fill=""none"" />
    <circle cx=773.2 cy=503.47003290519524 r=15.454986078571258 stroke=""black"" stroke-width=""1.5"" fill=""none"" />
    <polygon points = ""773.2,540 777.5474103089717,555.4549860785712 768.8525896910284,555.4549860785712"" stroke=""white"" stroke-width=""3"" fill = ""white"" />
    
    </svg>
    </div>
        ","","","","","","","","","","","","stimulus","","","","","","","","","","","","","","","","",""
"html-keyboard-response","87","313865","0.0-87.0","261.60000002384186","arrowdown","","
    <div style="" display: block;  position: relative;"">
    
    <svg width=1920 height=1080>
    <circle cx=897 cy=540 r=10.81849025499988 stroke=""black"" stroke-width=""1"" fill=""black"" />
    <circle cx=809.7299670948048 cy=540 r=15.454986078571258 stroke=""none"" stroke-width=""1.5"" fill=""none"" />
    <circle cx=773.2 cy=576.5299670948048 r=15.454986078571258 stroke=""none"" stroke-width=""1.5"" fill=""none"" />
    <circle cx=736.6700329051953 cy=540 r=15.454986078571258 stroke=""none"" stroke-width=""1.5"" fill=""none"" />
    <circle cx=773.2 cy=503.47003290519524 r=15.454986078571258 stroke=""none"" stroke-width=""1.5"" fill=""none"" />
    <polygon points = ""773.2,540 777.5474103089717,555.4549860785712 768.8525896910284,555.4549860785712"" stroke=""none"" stroke-width=""3"" fill = ""none"" />
    
    </svg>
    </div>
        ","","","","","","","","","","","","get_response","true","yhHDMorbvTEWkI34","","","true","false","true","123.8","4","444.12","36.52996709480479","1.18","1","0","","",""
"html-keyboard-response","88","314371","0.0-88.0","null","null","","
    <div style="" display: block;  position: relative;"">
    
    <svg width=1920 height=1080>
    <circle cx=897 cy=540 r=10.81849025499988 stroke=""black"" stroke-width=""1"" fill=""black"" />
    <circle cx=809.7299670948048 cy=540 r=15.454986078571258 stroke=""none"" stroke-width=""1.5"" fill=""none"" />
    <circle cx=773.2 cy=576.5299670948048 r=15.454986078571258 stroke=""none"" stroke-width=""1.5"" fill=""none"" />
    <circle cx=736.6700329051953 cy=540 r=15.454986078571258 stroke=""none"" stroke-width=""1.5"" fill=""none"" />
    <circle cx=773.2 cy=503.47003290519524 r=15.454986078571258 stroke=""none"" stroke-width=""1.5"" fill=""none"" />
    <polygon points = ""773.2,540 777.5474103089717,555.4549860785712 768.8525896910284,555.4549860785712"" stroke=""none"" stroke-width=""3"" fill = ""none"" />
    
    </svg>
    </div>
        ","","","","","","","","","","","","","","","","","","","","","","","","","","","","",""
"html-keyboard-response","89","314526","0.0-89.0","null","null","","
    <div style="" display: block;  position: relative;"">
    <svg width=1920 height=1080>
    
    <circle cx=897 cy=540 r=10.81849025499988 stroke=""black"" stroke-width=""1"" fill=""black"" />
    <circle cx=773.2 cy=540 r=15.454986078571258 stroke=""black"" stroke-width=""1.5"" fill=""none"" />
    <circle cx=806.4090609952772 cy=540 r=15.454986078571258 stroke=""black"" stroke-width=""1.5"" fill=""none"" />
    <circle cx=773.2 cy=573.2090609952771 r=15.454986078571258 stroke=""black"" stroke-width=""1.5"" fill=""none"" />
    <circle cx=739.9909390047229 cy=540 r=15.454986078571258 stroke=""black"" stroke-width=""1.5"" fill=""none"" />
    <circle cx=773.2 cy=506.79093900472293 r=15.454986078571258 stroke=""black"" stroke-width=""1.5"" fill=""none"" />
    <polygon points = ""773.2,540 777.5474103089717,555.4549860785712 768.8525896910284,555.4549860785712"" stroke=""white"" stroke-width=""3"" fill = ""white"" />
    
    </svg>
    </div>
        ","","","","","","","","","","","","stimulus","","","","","","","","","","","","","","","","",""
"html-keyboard-response","90","314857","0.0-90.0","330.7000000476837","arrowdown","","
    <div style="" display: block;  position: relative;"">
    
    <svg width=1920 height=1080>
    <circle cx=897 cy=540 r=10.81849025499988 stroke=""black"" stroke-width=""1"" fill=""black"" />
    <circle cx=806.4090609952772 cy=540 r=15.454986078571258 stroke=""none"" stroke-width=""1.5"" fill=""none"" />
    <circle cx=773.2 cy=573.2090609952771 r=15.454986078571258 stroke=""none"" stroke-width=""1.5"" fill=""none"" />
    <circle cx=739.9909390047229 cy=540 r=15.454986078571258 stroke=""none"" stroke-width=""1.5"" fill=""none"" />
    <circle cx=773.2 cy=506.79093900472293 r=15.454986078571258 stroke=""none"" stroke-width=""1.5"" fill=""none"" />
    <polygon points = ""773.2,540 777.5474103089717,555.4549860785712 768.8525896910284,555.4549860785712"" stroke=""none"" stroke-width=""3"" fill = ""none"" />
    
    </svg>
    </div>
        ","","","","","","","","","","","","get_response","true","yhHDMorbvTEWkI34","","","true","false","true","123.8","4","444.12","33.20906099527708","1.07","1","0","","",""
"html-keyboard-response","91","315363","0.0-91.0","null","null","","
    <div style="" display: block;  position: relative;"">
    
    <svg width=1920 height=1080>
    <circle cx=897 cy=540 r=10.81849025499988 stroke=""black"" stroke-width=""1"" fill=""black"" />
    <circle cx=806.4090609952772 cy=540 r=15.454986078571258 stroke=""none"" stroke-width=""1.5"" fill=""none"" />
    <circle cx=773.2 cy=573.2090609952771 r=15.454986078571258 stroke=""none"" stroke-width=""1.5"" fill=""none"" />
    <circle cx=739.9909390047229 cy=540 r=15.454986078571258 stroke=""none"" stroke-width=""1.5"" fill=""none"" />
    <circle cx=773.2 cy=506.79093900472293 r=15.454986078571258 stroke=""none"" stroke-width=""1.5"" fill=""none"" />
    <polygon points = ""773.2,540 777.5474103089717,555.4549860785712 768.8525896910284,555.4549860785712"" stroke=""none"" stroke-width=""3"" fill = ""none"" />
    
    </svg>
    </div>
        ","","","","","","","","","","","","","","","","","","","","","","","","","","","","",""
"html-keyboard-response","92","315517","0.0-92.0","null","null","","
    <div style="" display: block;  position: relative;"">
    <svg width=1920 height=1080>
    
    <circle cx=897 cy=540 r=10.81849025499988 stroke=""black"" stroke-width=""1"" fill=""black"" />
    <circle cx=773.2 cy=540 r=15.454986078571258 stroke=""black"" stroke-width=""1.5"" fill=""none"" />
    <circle cx=804.1099721571426 cy=540 r=15.454986078571258 stroke=""black"" stroke-width=""1.5"" fill=""none"" />
    <circle cx=773.2 cy=570.9099721571425 r=15.454986078571258 stroke=""black"" stroke-width=""1.5"" fill=""none"" />
    <circle cx=742.2900278428575 cy=540 r=15.454986078571258 stroke=""black"" stroke-width=""1.5"" fill=""none"" />
    <circle cx=773.2 cy=509.09002784285747 r=15.454986078571258 stroke=""black"" stroke-width=""1.5"" fill=""none"" />
    <polygon points = ""773.2,540 777.5474103089717,555.4549860785712 768.8525896910284,555.4549860785712"" stroke=""white"" stroke-width=""3"" fill = ""white"" />
    
    </svg>
    </div>
        ","","","","","","","","","","","","stimulus","","","","","","","","","","","","","","","","",""
"html-keyboard-response","93","315801","0.0-93.0","283.2999999523163","arrowdown","","
    <div style="" display: block;  position: relative;"">
    
    <svg width=1920 height=1080>
    <circle cx=897 cy=540 r=10.81849025499988 stroke=""black"" stroke-width=""1"" fill=""black"" />
    <circle cx=804.1099721571426 cy=540 r=15.454986078571258 stroke=""none"" stroke-width=""1.5"" fill=""none"" />
    <circle cx=773.2 cy=570.9099721571425 r=15.454986078571258 stroke=""none"" stroke-width=""1.5"" fill=""none"" />
    <circle cx=742.2900278428575 cy=540 r=15.454986078571258 stroke=""none"" stroke-width=""1.5"" fill=""none"" />
    <circle cx=773.2 cy=509.09002784285747 r=15.454986078571258 stroke=""none"" stroke-width=""1.5"" fill=""none"" />
    <polygon points = ""773.2,540 777.5474103089717,555.4549860785712 768.8525896910284,555.4549860785712"" stroke=""none"" stroke-width=""3"" fill = ""none"" />
    
    </svg>
    </div>
        ","","","","","","","","","","","","get_response","true","yhHDMorbvTEWkI34","","","true","false","true","123.8","4","444.12","30.909972157142516","1","1","0","","",""
"html-keyboard-response","94","316309","0.0-94.0","null","null","","
    <div style="" display: block;  position: relative;"">
    
    <svg width=1920 height=1080>
    <circle cx=897 cy=540 r=10.81849025499988 stroke=""black"" stroke-width=""1"" fill=""black"" />
    <circle cx=804.1099721571426 cy=540 r=15.454986078571258 stroke=""none"" stroke-width=""1.5"" fill=""none"" />
    <circle cx=773.2 cy=570.9099721571425 r=15.454986078571258 stroke=""none"" stroke-width=""1.5"" fill=""none"" />
    <circle cx=742.2900278428575 cy=540 r=15.454986078571258 stroke=""none"" stroke-width=""1.5"" fill=""none"" />
    <circle cx=773.2 cy=509.09002784285747 r=15.454986078571258 stroke=""none"" stroke-width=""1.5"" fill=""none"" />
    <polygon points = ""773.2,540 777.5474103089717,555.4549860785712 768.8525896910284,555.4549860785712"" stroke=""none"" stroke-width=""3"" fill = ""none"" />
    
    </svg>
    </div>
        ","","","","","","","","","","","","","","","","","","","","","","","","","","","","",""
"html-keyboard-response","95","316464","0.0-95.0","null","null","","
    <div style="" display: block;  position: relative;"">
    <svg width=1920 height=1080>
    
    <circle cx=897 cy=540 r=10.81849025499988 stroke=""black"" stroke-width=""1"" fill=""black"" />
    <circle cx=773.2 cy=540 r=15.454986078571258 stroke=""black"" stroke-width=""1.5"" fill=""none"" />
    <circle cx=804.1099721571426 cy=540 r=15.454986078571258 stroke=""black"" stroke-width=""1.5"" fill=""none"" />
    <circle cx=773.2 cy=570.9099721571425 r=15.454986078571258 stroke=""black"" stroke-width=""1.5"" fill=""none"" />
    <circle cx=742.2900278428575 cy=540 r=15.454986078571258 stroke=""black"" stroke-width=""1.5"" fill=""none"" />
    <circle cx=773.2 cy=509.09002784285747 r=15.454986078571258 stroke=""black"" stroke-width=""1.5"" fill=""none"" />
    <polygon points = ""773.2,540 777.5474103089717,555.4549860785712 768.8525896910284,555.4549860785712"" stroke=""white"" stroke-width=""3"" fill = ""white"" />
    
    </svg>
    </div>
        ","","","","","","","","","","","","stimulus","","","","","","","","","","","","","","","","",""
"html-keyboard-response","96","316761","0.0-96.0","296.39999997615814","arrowdown","","
    <div style="" display: block;  position: relative;"">
    
    <svg width=1920 height=1080>
    <circle cx=897 cy=540 r=10.81849025499988 stroke=""black"" stroke-width=""1"" fill=""black"" />
    <circle cx=804.1099721571426 cy=540 r=15.454986078571258 stroke=""none"" stroke-width=""1.5"" fill=""none"" />
    <circle cx=773.2 cy=570.9099721571425 r=15.454986078571258 stroke=""none"" stroke-width=""1.5"" fill=""none"" />
    <circle cx=742.2900278428575 cy=540 r=15.454986078571258 stroke=""none"" stroke-width=""1.5"" fill=""none"" />
    <circle cx=773.2 cy=509.09002784285747 r=15.454986078571258 stroke=""none"" stroke-width=""1.5"" fill=""none"" />
    <polygon points = ""773.2,540 777.5474103089717,555.4549860785712 768.8525896910284,555.4549860785712"" stroke=""none"" stroke-width=""3"" fill = ""none"" />
    
    </svg>
    </div>
        ","","","","","","","","","","","","get_response","true","yhHDMorbvTEWkI34","","","true","false","true","123.8","4","444.12","30.909972157142516","1","1","0","","",""
"html-keyboard-response","97","317271","0.0-97.0","null","null","","
    <div style="" display: block;  position: relative;"">
    
    <svg width=1920 height=1080>
    <circle cx=897 cy=540 r=10.81849025499988 stroke=""black"" stroke-width=""1"" fill=""black"" />
    <circle cx=804.1099721571426 cy=540 r=15.454986078571258 stroke=""none"" stroke-width=""1.5"" fill=""none"" />
