,trial_type,trial_index,time_elapsed,internal_node_id,rt,response,success,stimulus,start_time,start_time_unix,item_width_mm,item_height_mm,item_width_px,px2mm,view_dist_mm,item_width_deg,px2deg,win_width_deg,win_height_deg,trialType,correct,participantID,criticalSpacing,criticalSpacing_deg,isLeft,isUp,isEccen4,eccentricity,eccentricity_deg,viewingDistanceMean,critical_spacing,critical_spacing_deg,crowding_session,correctRate,viewDistance_1,viewDistance_2,viewDistance_3,age
0,pavlovia,0,5,0.0-0.0,,,,,,,,,,,,,,,,,,,,,,,,,,,,,,,,,,19
2,fullscreen,2,84015,0.0-2.0,,,True,,,,,,,,,,,,,,,,,,,,,,,,,,,,,,,19
3,html-keyboard-response,3,102123,0.0-3.0,18105.79999995232, ,,"<h1>Consent Form</h1>
       <p>By answering the following questions, you are participating in a study being performed by cognitive scientists in the Stanford Department of Psychology. If you have questions about this research, please contact us at stanfordpsych251@gmail.com. You must be at least 18 years old to participate. Your participation in this research is voluntary. You may decline to answer any or all of the following questions. You may decline further participation by closing the window, at any time, without adverse consequences. Your anonymity is assured; the researchers who have requested your participation will not receive any personal information about you.</p>
       <p>Press <b>any key</b> to start the experiment!</p>",,,,,,,,,,,,,,,,,,,,,,,,,,,,,,19
4,html-keyboard-response,4,109821,0.0-4.0,7697.199999928474, ,,"<h1>Welcome to the Visual Crowding Experiment!</h1>
       <p>This test will take <b>10-12</b> minutes to complete.</p>
       <p>Press any key to start the experiment!</p>","12/1/2021, 9:17:33 AM",1638343053821.0,,,,,,,,,,,,,,,,,,,,,,,,,,,,19
5,html-keyboard-response,5,129083,0.0-5.0,19258.5,arrowdown,,"<div> 
<p> Before you begin this study, let&#39;s quickly test how far away you are sitting. You might know that vision tests at a doctor&#39;s practice often involve chinrests, the doctor basically asks you to sit away from a screen in a specific distance. We do this here with a <b>virtual chinrest</b>. </p>
<p> Please press the <b>down</b> arrow to continue.
</p>
</div>",,,,,,,,,,,,,,,,,,,,,,,,,,,,,,19
6,virtual-chinrest,6,276453,0.0-6.0,147364.39999997616,,,,,,85.6,53.98,382.0,4.46,591.44,8.278074184003563,46.14599863554878,29.6016998307562,16.642829773075228,,,,,,,,,,,,,,,,,,,19
7,html-keyboard-response,7,336338,0.0-7.0,59876.59999990463,arrowdown,,"
	<h2 class=""bolded-blue"">Now, you will take a peripheral vision test!</h2>
<p> 
	<b>
		<font size=""140%"">1. </font>
	</b>
	<em><b>Please use both eyes for the following task.</b></em> First, you will see a screen (like the one in the image below) showing a <b>black dot</b> in the middle of the screen, with a group of circles displayed on either the <span class=""bolded-blue"">left</span> or <span class=""bolded-blue"">right</span> of the black dot for 150 ms. <span class=""bolded-blue"">Please make sure to focus on the black dot all the time!</span>

	<div>
		<img src=""example.png"" alt=""example"" style=""border: 2px solid black"" width=""600""/> 
	</div>
	
	<b>
		<font size=""140%"">2. </font>
	</b>
	Your task is to identify whether the opening of the <b class=""bolded-blue"">center circle</b> is upward by pressing UP or downward by pressing DOWN on your keyboard. The opening of the circle will only be upward or downward, not towards left or right.

	<div>
		<img src=""arrow_keys+.png"" alt=""arrows"" style=""border: 2px solid black"" width=""600""/>
	</div>
	<br>

<p>Please press the <b>down</b> arrow key to start the <span class=""bolded-blue"">practice task</span> (this first practice task will not count toward your final results).</p>
</p>
",,,,,,,,,,,,,,,,,,,,,,,,,,,,,,19
8,html-keyboard-response,8,336859,0.0-8.0,,,,"
    <div style="" display: block;  position: relative;"">
    
    <svg width=1366 height=768>
    <circle cx=620 cy=384 r=16.344937885940343 stroke=""black"" stroke-width=""1"" fill=""black"" />
    <circle cx=NaN cy=384 r=23.34991126562906 stroke=""none"" stroke-width=""1.5"" fill=""none"" />
    <circle cx=432.96000000000004 cy=NaN r=23.34991126562906 stroke=""none"" stroke-width=""1.5"" fill=""none"" />
    <circle cx=NaN cy=384 r=23.34991126562906 stroke=""none"" stroke-width=""1.5"" fill=""none"" />
    <circle cx=432.96000000000004 cy=NaN r=23.34991126562906 stroke=""none"" stroke-width=""1.5"" fill=""none"" />
    <polygon points = ""432.96000000000004,384 439.52821328946516,407.3499112656291 426.3917867105349,407.3499112656291"" stroke=""none"" stroke-width=""3"" fill = ""none"" />
    
    </svg>
    </div>
        ",,,,,,,,,,,,,,,,,,,,,,,,,,,,,,19
9,html-keyboard-response,9,337029,0.0-9.0,,,,"
    <div style="" display: block;  position: relative;"">
    <svg width=1366 height=768>
    
    <circle cx=620 cy=384 r=16.344937885940343 stroke=""black"" stroke-width=""1"" fill=""black"" />
    <circle cx=432.96000000000004 cy=384 r=23.34991126562906 stroke=""black"" stroke-width=""1.5"" fill=""none"" />
    <circle cx=554.5360000000001 cy=384 r=23.34991126562906 stroke=""black"" stroke-width=""1.5"" fill=""none"" />
    <circle cx=432.96000000000004 cy=505.576 r=23.34991126562906 stroke=""black"" stroke-width=""1.5"" fill=""none"" />
    <circle cx=311.384 cy=384 r=23.34991126562906 stroke=""black"" stroke-width=""1.5"" fill=""none"" />
    <circle cx=432.96000000000004 cy=262.424 r=23.34991126562906 stroke=""black"" stroke-width=""1.5"" fill=""none"" />
    <polygon points = ""432.96000000000004,384 439.52821328946516,360.6500887343709 426.3917867105349,360.6500887343709"" stroke=""white"" stroke-width=""3"" fill = ""white"" />
    
    </svg>
    </div>
        ",,,,,,,,,,,,stimulus,,,,,,,,,,,,,,,,,,19
10,html-keyboard-response,10,339677,0.0-10.0,2644.8000000715256,arrowup,,"
    <div style="" display: block;  position: relative;"">
    
    <svg width=1366 height=768>
    <circle cx=620 cy=384 r=16.344937885940343 stroke=""black"" stroke-width=""1"" fill=""black"" />
    <circle cx=554.5360000000001 cy=384 r=23.34991126562906 stroke=""none"" stroke-width=""1.5"" fill=""none"" />
    <circle cx=432.96000000000004 cy=505.576 r=23.34991126562906 stroke=""none"" stroke-width=""1.5"" fill=""none"" />
    <circle cx=311.384 cy=384 r=23.34991126562906 stroke=""none"" stroke-width=""1.5"" fill=""none"" />
    <circle cx=432.96000000000004 cy=262.424 r=23.34991126562906 stroke=""none"" stroke-width=""1.5"" fill=""none"" />
    <polygon points = ""432.96000000000004,384 439.52821328946516,360.6500887343709 426.3917867105349,360.6500887343709"" stroke=""none"" stroke-width=""3"" fill = ""none"" />
    
    </svg>
    </div>
        ",,,,,,,,,,,,practice_get_response,True,camCLejcQHRkqCBz,121.576,2.6,True,True,False,187.04,4.0,601.7860000000001,,,,,,,,19
11,html-keyboard-response,11,340193,0.0-11.0,,,,"
    <div style="" display: block;  position: relative;"">
    
    <svg width=1366 height=768>
    <circle cx=620 cy=384 r=16.344937885940343 stroke=""black"" stroke-width=""1"" fill=""black"" />
    <circle cx=554.5360000000001 cy=384 r=23.34991126562906 stroke=""none"" stroke-width=""1.5"" fill=""none"" />
    <circle cx=432.96000000000004 cy=505.576 r=23.34991126562906 stroke=""none"" stroke-width=""1.5"" fill=""none"" />
    <circle cx=311.384 cy=384 r=23.34991126562906 stroke=""none"" stroke-width=""1.5"" fill=""none"" />
    <circle cx=432.96000000000004 cy=262.424 r=23.34991126562906 stroke=""none"" stroke-width=""1.5"" fill=""none"" />
    <polygon points = ""432.96000000000004,384 439.52821328946516,360.6500887343709 426.3917867105349,360.6500887343709"" stroke=""none"" stroke-width=""3"" fill = ""none"" />
    
    </svg>
    </div>
        ",,,,,,,,,,,,,,,,,,,,,,,,,,,,,,19
12,html-keyboard-response,12,340348,0.0-12.0,,,,"
    <div style="" display: block;  position: relative;"">
    <svg width=1366 height=768>
    
    <circle cx=620 cy=384 r=16.344937885940343 stroke=""black"" stroke-width=""1"" fill=""black"" />
    <circle cx=807.04 cy=384 r=23.34991126562906 stroke=""black"" stroke-width=""1.5"" fill=""none"" />
    <circle cx=928.616 cy=384 r=23.34991126562906 stroke=""black"" stroke-width=""1.5"" fill=""none"" />
    <circle cx=807.04 cy=505.576 r=23.34991126562906 stroke=""black"" stroke-width=""1.5"" fill=""none"" />
    <circle cx=685.4639999999999 cy=384 r=23.34991126562906 stroke=""black"" stroke-width=""1.5"" fill=""none"" />
    <circle cx=807.04 cy=262.424 r=23.34991126562906 stroke=""black"" stroke-width=""1.5"" fill=""none"" />
    <polygon points = ""807.04,384 813.6082132894651,360.6500887343709 800.4717867105348,360.6500887343709"" stroke=""white"" stroke-width=""3"" fill = ""white"" />
    
    </svg>
    </div>
        ",,,,,,,,,,,,stimulus,,,,,,,,,,,,,,,,,,19
13,html-keyboard-response,13,340706,0.0-13.0,353.7000000476837,arrowdown,,"
    <div style="" display: block;  position: relative;"">
    
    <svg width=1366 height=768>
    <circle cx=620 cy=384 r=16.344937885940343 stroke=""black"" stroke-width=""1"" fill=""black"" />
    <circle cx=928.616 cy=384 r=23.34991126562906 stroke=""none"" stroke-width=""1.5"" fill=""none"" />
    <circle cx=807.04 cy=505.576 r=23.34991126562906 stroke=""none"" stroke-width=""1.5"" fill=""none"" />
    <circle cx=685.4639999999999 cy=384 r=23.34991126562906 stroke=""none"" stroke-width=""1.5"" fill=""none"" />
    <circle cx=807.04 cy=262.424 r=23.34991126562906 stroke=""none"" stroke-width=""1.5"" fill=""none"" />
    <polygon points = ""807.04,384 813.6082132894651,360.6500887343709 800.4717867105348,360.6500887343709"" stroke=""none"" stroke-width=""3"" fill = ""none"" />
    
    </svg>
    </div>
        ",,,,,,,,,,,,practice_get_response,False,camCLejcQHRkqCBz,121.576,2.6,False,True,False,187.04,4.0,601.7860000000001,,,,,,,,19
14,html-keyboard-response,14,341226,0.0-14.0,,,,"
    <div style="" display: block;  position: relative;"">
    
    <svg width=1366 height=768>
    <circle cx=620 cy=384 r=16.344937885940343 stroke=""black"" stroke-width=""1"" fill=""black"" />
    <circle cx=928.616 cy=384 r=23.34991126562906 stroke=""none"" stroke-width=""1.5"" fill=""none"" />
    <circle cx=807.04 cy=505.576 r=23.34991126562906 stroke=""none"" stroke-width=""1.5"" fill=""none"" />
    <circle cx=685.4639999999999 cy=384 r=23.34991126562906 stroke=""none"" stroke-width=""1.5"" fill=""none"" />
    <circle cx=807.04 cy=262.424 r=23.34991126562906 stroke=""none"" stroke-width=""1.5"" fill=""none"" />
    <polygon points = ""807.04,384 813.6082132894651,360.6500887343709 800.4717867105348,360.6500887343709"" stroke=""none"" stroke-width=""3"" fill = ""none"" />
    
    </svg>
    </div>
        ",,,,,,,,,,,,,,,,,,,,,,,,,,,,,,19
15,html-keyboard-response,15,341396,0.0-15.0,,,,"
    <div style="" display: block;  position: relative;"">
    <svg width=1366 height=768>
    
    <circle cx=620 cy=384 r=16.344937885940343 stroke=""black"" stroke-width=""1"" fill=""black"" />
    <circle cx=807.04 cy=384 r=23.34991126562906 stroke=""black"" stroke-width=""1.5"" fill=""none"" />
    <circle cx=938.6403549374837 cy=384 r=23.34991126562906 stroke=""black"" stroke-width=""1.5"" fill=""none"" />
    <circle cx=807.04 cy=515.6003549374838 r=23.34991126562906 stroke=""black"" stroke-width=""1.5"" fill=""none"" />
    <circle cx=675.4396450625162 cy=384 r=23.34991126562906 stroke=""black"" stroke-width=""1.5"" fill=""none"" />
    <circle cx=807.04 cy=252.39964506251624 r=23.34991126562906 stroke=""black"" stroke-width=""1.5"" fill=""none"" />
    <polygon points = ""807.04,384 813.6082132894651,360.6500887343709 800.4717867105348,360.6500887343709"" stroke=""white"" stroke-width=""3"" fill = ""white"" />
    
    </svg>
    </div>
        ",,,,,,,,,,,,stimulus,,,,,,,,,,,,,,,,,,19
16,html-keyboard-response,16,341938,0.0-16.0,538.0,arrowdown,,"
    <div style="" display: block;  position: relative;"">
    
    <svg width=1366 height=768>
    <circle cx=620 cy=384 r=16.344937885940343 stroke=""black"" stroke-width=""1"" fill=""black"" />
    <circle cx=938.6403549374837 cy=384 r=23.34991126562906 stroke=""none"" stroke-width=""1.5"" fill=""none"" />
    <circle cx=807.04 cy=515.6003549374838 r=23.34991126562906 stroke=""none"" stroke-width=""1.5"" fill=""none"" />
    <circle cx=675.4396450625162 cy=384 r=23.34991126562906 stroke=""none"" stroke-width=""1.5"" fill=""none"" />
    <circle cx=807.04 cy=252.39964506251624 r=23.34991126562906 stroke=""none"" stroke-width=""1.5"" fill=""none"" />
    <polygon points = ""807.04,384 813.6082132894651,360.6500887343709 800.4717867105348,360.6500887343709"" stroke=""none"" stroke-width=""3"" fill = ""none"" />
    
    </svg>
    </div>
        ",,,,,,,,,,,,practice_get_response,False,camCLejcQHRkqCBz,131.60035493748376,2.81,False,True,False,187.04,4.0,601.7860000000001,,,,,,,,19
17,html-keyboard-response,17,342443,0.0-17.0,,,,"
    <div style="" display: block;  position: relative;"">
    
    <svg width=1366 height=768>
    <circle cx=620 cy=384 r=16.344937885940343 stroke=""black"" stroke-width=""1"" fill=""black"" />
    <circle cx=938.6403549374837 cy=384 r=23.34991126562906 stroke=""none"" stroke-width=""1.5"" fill=""none"" />
    <circle cx=807.04 cy=515.6003549374838 r=23.34991126562906 stroke=""none"" stroke-width=""1.5"" fill=""none"" />
    <circle cx=675.4396450625162 cy=384 r=23.34991126562906 stroke=""none"" stroke-width=""1.5"" fill=""none"" />
    <circle cx=807.04 cy=252.39964506251624 r=23.34991126562906 stroke=""none"" stroke-width=""1.5"" fill=""none"" />
    <polygon points = ""807.04,384 813.6082132894651,360.6500887343709 800.4717867105348,360.6500887343709"" stroke=""none"" stroke-width=""3"" fill = ""none"" />
    
    </svg>
    </div>
        ",,,,,,,,,,,,,,,,,,,,,,,,,,,,,,19
18,html-keyboard-response,18,342612,0.0-18.0,,,,"
    <div style="" display: block;  position: relative;"">
    <svg width=1366 height=768>
    
    <circle cx=620 cy=384 r=16.344937885940343 stroke=""black"" stroke-width=""1"" fill=""black"" />
    <circle cx=807.04 cy=384 r=23.34991126562906 stroke=""black"" stroke-width=""1.5"" fill=""none"" />
    <circle cx=938.6403549374837 cy=384 r=23.34991126562906 stroke=""black"" stroke-width=""1.5"" fill=""none"" />
    <circle cx=807.04 cy=515.6003549374838 r=23.34991126562906 stroke=""black"" stroke-width=""1.5"" fill=""none"" />
    <circle cx=675.4396450625162 cy=384 r=23.34991126562906 stroke=""black"" stroke-width=""1.5"" fill=""none"" />
    <circle cx=807.04 cy=252.39964506251624 r=23.34991126562906 stroke=""black"" stroke-width=""1.5"" fill=""none"" />
    <polygon points = ""807.04,384 813.6082132894651,407.3499112656291 800.4717867105348,407.3499112656291"" stroke=""white"" stroke-width=""3"" fill = ""white"" />
    
    </svg>
    </div>
        ",,,,,,,,,,,,stimulus,,,,,,,,,,,,,,,,,,19
19,html-keyboard-response,19,342970,0.0-19.0,354.5,arrowdown,,"
    <div style="" display: block;  position: relative;"">
    
    <svg width=1366 height=768>
    <circle cx=620 cy=384 r=16.344937885940343 stroke=""black"" stroke-width=""1"" fill=""black"" />
    <circle cx=938.6403549374837 cy=384 r=23.34991126562906 stroke=""none"" stroke-width=""1.5"" fill=""none"" />
    <circle cx=807.04 cy=515.6003549374838 r=23.34991126562906 stroke=""none"" stroke-width=""1.5"" fill=""none"" />
    <circle cx=675.4396450625162 cy=384 r=23.34991126562906 stroke=""none"" stroke-width=""1.5"" fill=""none"" />
    <circle cx=807.04 cy=252.39964506251624 r=23.34991126562906 stroke=""none"" stroke-width=""1.5"" fill=""none"" />
    <polygon points = ""807.04,384 813.6082132894651,407.3499112656291 800.4717867105348,407.3499112656291"" stroke=""none"" stroke-width=""3"" fill = ""none"" />
    
    </svg>
    </div>
        ",,,,,,,,,,,,practice_get_response,True,camCLejcQHRkqCBz,131.60035493748376,2.81,False,False,False,187.04,4.0,601.7860000000001,,,,,,,,19
20,html-keyboard-response,20,343490,0.0-20.0,,,,"
    <div style="" display: block;  position: relative;"">
    
    <svg width=1366 height=768>
    <circle cx=620 cy=384 r=16.344937885940343 stroke=""black"" stroke-width=""1"" fill=""black"" />
    <circle cx=938.6403549374837 cy=384 r=23.34991126562906 stroke=""none"" stroke-width=""1.5"" fill=""none"" />
    <circle cx=807.04 cy=515.6003549374838 r=23.34991126562906 stroke=""none"" stroke-width=""1.5"" fill=""none"" />
    <circle cx=675.4396450625162 cy=384 r=23.34991126562906 stroke=""none"" stroke-width=""1.5"" fill=""none"" />
    <circle cx=807.04 cy=252.39964506251624 r=23.34991126562906 stroke=""none"" stroke-width=""1.5"" fill=""none"" />
    <polygon points = ""807.04,384 813.6082132894651,407.3499112656291 800.4717867105348,407.3499112656291"" stroke=""none"" stroke-width=""3"" fill = ""none"" />
    
    </svg>
    </div>
        ",,,,,,,,,,,,,,,,,,,,,,,,,,,,,,19
21,html-keyboard-response,21,343647,0.0-21.0,,,,"
    <div style="" display: block;  position: relative;"">
    <svg width=1366 height=768>
    
    <circle cx=620 cy=384 r=16.344937885940343 stroke=""black"" stroke-width=""1"" fill=""black"" />
    <circle cx=807.04 cy=384 r=23.34991126562906 stroke=""black"" stroke-width=""1.5"" fill=""none"" />
    <circle cx=938.6403549374837 cy=384 r=23.34991126562906 stroke=""black"" stroke-width=""1.5"" fill=""none"" />
    <circle cx=807.04 cy=515.6003549374838 r=23.34991126562906 stroke=""black"" stroke-width=""1.5"" fill=""none"" />
    <circle cx=675.4396450625162 cy=384 r=23.34991126562906 stroke=""black"" stroke-width=""1.5"" fill=""none"" />
    <circle cx=807.04 cy=252.39964506251624 r=23.34991126562906 stroke=""black"" stroke-width=""1.5"" fill=""none"" />
    <polygon points = ""807.04,384 813.6082132894651,360.6500887343709 800.4717867105348,360.6500887343709"" stroke=""white"" stroke-width=""3"" fill = ""white"" />
    
    </svg>
    </div>
        ",,,,,,,,,,,,stimulus,,,,,,,,,,,,,,,,,,19
22,html-keyboard-response,22,343975,0.0-22.0,324.2000000476837,arrowdown,,"
    <div style="" display: block;  position: relative;"">
    
    <svg width=1366 height=768>
    <circle cx=620 cy=384 r=16.344937885940343 stroke=""black"" stroke-width=""1"" fill=""black"" />
    <circle cx=938.6403549374837 cy=384 r=23.34991126562906 stroke=""none"" stroke-width=""1.5"" fill=""none"" />
    <circle cx=807.04 cy=515.6003549374838 r=23.34991126562906 stroke=""none"" stroke-width=""1.5"" fill=""none"" />
    <circle cx=675.4396450625162 cy=384 r=23.34991126562906 stroke=""none"" stroke-width=""1.5"" fill=""none"" />
    <circle cx=807.04 cy=252.39964506251624 r=23.34991126562906 stroke=""none"" stroke-width=""1.5"" fill=""none"" />
    <polygon points = ""807.04,384 813.6082132894651,360.6500887343709 800.4717867105348,360.6500887343709"" stroke=""none"" stroke-width=""3"" fill = ""none"" />
    
    </svg>
    </div>
        ",,,,,,,,,,,,practice_get_response,False,camCLejcQHRkqCBz,131.60035493748376,2.81,False,True,False,187.04,4.0,601.7860000000001,,,,,,,,19
23,html-keyboard-response,23,351141,0.0-23.0,7162.199999928474,arrowdown,,"<div> 
<h2 class=""bolded-blue"">Well done!</h2>
<p> Now that you have the hang of it, we&#39;ll start the study. This session has 25 trials and takes about 2 minute to complete. </p> 
<p>If you are ready for the real deal, please press the <b>down</b> arrow to continue.
</p>
</div>",,,,,,,,,,,,,,,,,,,,,,,,,,,,,,19
24,html-keyboard-response,24,367018,0.0-24.0,15871.200000047684,arrowdown,,"<div id=""continue""> 
<p>Again, please keep the <b>full screen</b> mode for the best experience.</p>
<p>Please do not move around and keep your eye on the black dot. Click <b>up</b> or <b>down</b> key on your keyboard to indicate the opening of the center circle. Make your best guess!</p>
<p>Please press the <b>down</b> arrow key to start the session 1. </p>
</div>",,,,,,,,,,,,,,,,,,,,,,,,,,,,,,19
25,html-keyboard-response,25,367526,0.0-25.0,,,,"
    <div style="" display: block;  position: relative;"">
    
    <svg width=1366 height=768>
    <circle cx=620 cy=384 r=16.344937885940343 stroke=""black"" stroke-width=""1"" fill=""black"" />
    <circle cx=564.5603549374838 cy=384 r=23.34991126562906 stroke=""none"" stroke-width=""1.5"" fill=""none"" />
    <circle cx=432.96000000000004 cy=515.6003549374838 r=23.34991126562906 stroke=""none"" stroke-width=""1.5"" fill=""none"" />
    <circle cx=301.3596450625163 cy=384 r=23.34991126562906 stroke=""none"" stroke-width=""1.5"" fill=""none"" />
    <circle cx=432.96000000000004 cy=252.39964506251624 r=23.34991126562906 stroke=""none"" stroke-width=""1.5"" fill=""none"" />
    <polygon points = ""432.96000000000004,384 439.52821328946516,407.3499112656291 426.3917867105349,407.3499112656291"" stroke=""none"" stroke-width=""3"" fill = ""none"" />
    
    </svg>
    </div>
        ",,,,,,,,,,,,,,,,,,,,,,,,,,,,,,19
26,html-keyboard-response,26,367680,0.0-26.0,,,,"
    <div style="" display: block;  position: relative;"">
    <svg width=1366 height=768>
    
    <circle cx=620 cy=384 r=16.344937885940343 stroke=""black"" stroke-width=""1"" fill=""black"" />
    <circle cx=432.96000000000004 cy=384 r=23.34991126562906 stroke=""black"" stroke-width=""1.5"" fill=""none"" />
    <circle cx=554.5360000000001 cy=384 r=23.34991126562906 stroke=""black"" stroke-width=""1.5"" fill=""none"" />
    <circle cx=432.96000000000004 cy=505.576 r=23.34991126562906 stroke=""black"" stroke-width=""1.5"" fill=""none"" />
    <circle cx=311.384 cy=384 r=23.34991126562906 stroke=""black"" stroke-width=""1.5"" fill=""none"" />
    <circle cx=432.96000000000004 cy=262.424 r=23.34991126562906 stroke=""black"" stroke-width=""1.5"" fill=""none"" />
    <polygon points = ""432.96000000000004,384 439.52821328946516,360.6500887343709 426.3917867105349,360.6500887343709"" stroke=""white"" stroke-width=""3"" fill = ""white"" />
    
    </svg>
    </div>
        ",,,,,,,,,,,,stimulus,,,,,,,,,,,,,,,,,,19
27,html-keyboard-response,27,368435,0.0-27.0,749.7000000476837,arrowup,,"
    <div style="" display: block;  position: relative;"">
    
    <svg width=1366 height=768>
    <circle cx=620 cy=384 r=16.344937885940343 stroke=""black"" stroke-width=""1"" fill=""black"" />
    <circle cx=554.5360000000001 cy=384 r=23.34991126562906 stroke=""none"" stroke-width=""1.5"" fill=""none"" />
    <circle cx=432.96000000000004 cy=505.576 r=23.34991126562906 stroke=""none"" stroke-width=""1.5"" fill=""none"" />
    <circle cx=311.384 cy=384 r=23.34991126562906 stroke=""none"" stroke-width=""1.5"" fill=""none"" />
    <circle cx=432.96000000000004 cy=262.424 r=23.34991126562906 stroke=""none"" stroke-width=""1.5"" fill=""none"" />
    <polygon points = ""432.96000000000004,384 439.52821328946516,360.6500887343709 426.3917867105349,360.6500887343709"" stroke=""none"" stroke-width=""3"" fill = ""none"" />
    
    </svg>
    </div>
        ",,,,,,,,,,,,get_response,True,camCLejcQHRkqCBz,,,True,True,False,187.04,4.0,601.7860000000001,121.576,2.6,1.0,0.0,,,,19
28,html-keyboard-response,28,368940,0.0-28.0,,,,"
    <div style="" display: block;  position: relative;"">
    
    <svg width=1366 height=768>
    <circle cx=620 cy=384 r=16.344937885940343 stroke=""black"" stroke-width=""1"" fill=""black"" />
    <circle cx=554.5360000000001 cy=384 r=23.34991126562906 stroke=""none"" stroke-width=""1.5"" fill=""none"" />
    <circle cx=432.96000000000004 cy=505.576 r=23.34991126562906 stroke=""none"" stroke-width=""1.5"" fill=""none"" />
    <circle cx=311.384 cy=384 r=23.34991126562906 stroke=""none"" stroke-width=""1.5"" fill=""none"" />
    <circle cx=432.96000000000004 cy=262.424 r=23.34991126562906 stroke=""none"" stroke-width=""1.5"" fill=""none"" />
    <polygon points = ""432.96000000000004,384 439.52821328946516,360.6500887343709 426.3917867105349,360.6500887343709"" stroke=""none"" stroke-width=""3"" fill = ""none"" />
    
    </svg>
    </div>
        ",,,,,,,,,,,,,,,,,,,,,,,,,,,,,,19
29,html-keyboard-response,29,369097,0.0-29.0,,,,"
    <div style="" display: block;  position: relative;"">
    <svg width=1366 height=768>
    
    <circle cx=620 cy=384 r=16.344937885940343 stroke=""black"" stroke-width=""1"" fill=""black"" />
    <circle cx=432.96000000000004 cy=384 r=23.34991126562906 stroke=""black"" stroke-width=""1.5"" fill=""none"" />
    <circle cx=554.5360000000001 cy=384 r=23.34991126562906 stroke=""black"" stroke-width=""1.5"" fill=""none"" />
    <circle cx=432.96000000000004 cy=505.576 r=23.34991126562906 stroke=""black"" stroke-width=""1.5"" fill=""none"" />
    <circle cx=311.384 cy=384 r=23.34991126562906 stroke=""black"" stroke-width=""1.5"" fill=""none"" />
    <circle cx=432.96000000000004 cy=262.424 r=23.34991126562906 stroke=""black"" stroke-width=""1.5"" fill=""none"" />
    <polygon points = ""432.96000000000004,384 439.52821328946516,407.3499112656291 426.3917867105349,407.3499112656291"" stroke=""white"" stroke-width=""3"" fill = ""white"" />
    
    </svg>
    </div>
        ",,,,,,,,,,,,stimulus,,,,,,,,,,,,,,,,,,19
30,html-keyboard-response,30,369502,0.0-30.0,399.7000000476837,arrowup,,"
    <div style="" display: block;  position: relative;"">
    
    <svg width=1366 height=768>
    <circle cx=620 cy=384 r=16.344937885940343 stroke=""black"" stroke-width=""1"" fill=""black"" />
    <circle cx=554.5360000000001 cy=384 r=23.34991126562906 stroke=""none"" stroke-width=""1.5"" fill=""none"" />
    <circle cx=432.96000000000004 cy=505.576 r=23.34991126562906 stroke=""none"" stroke-width=""1.5"" fill=""none"" />
    <circle cx=311.384 cy=384 r=23.34991126562906 stroke=""none"" stroke-width=""1.5"" fill=""none"" />
    <circle cx=432.96000000000004 cy=262.424 r=23.34991126562906 stroke=""none"" stroke-width=""1.5"" fill=""none"" />
    <polygon points = ""432.96000000000004,384 439.52821328946516,407.3499112656291 426.3917867105349,407.3499112656291"" stroke=""none"" stroke-width=""3"" fill = ""none"" />
    
    </svg>
    </div>
        ",,,,,,,,,,,,get_response,False,camCLejcQHRkqCBz,,,True,False,False,187.04,4.0,601.7860000000001,121.576,2.6,1.0,0.0,,,,19
31,html-keyboard-response,31,370010,0.0-31.0,,,,"
    <div style="" display: block;  position: relative;"">
    
    <svg width=1366 height=768>
    <circle cx=620 cy=384 r=16.344937885940343 stroke=""black"" stroke-width=""1"" fill=""black"" />
    <circle cx=554.5360000000001 cy=384 r=23.34991126562906 stroke=""none"" stroke-width=""1.5"" fill=""none"" />
    <circle cx=432.96000000000004 cy=505.576 r=23.34991126562906 stroke=""none"" stroke-width=""1.5"" fill=""none"" />
    <circle cx=311.384 cy=384 r=23.34991126562906 stroke=""none"" stroke-width=""1.5"" fill=""none"" />
    <circle cx=432.96000000000004 cy=262.424 r=23.34991126562906 stroke=""none"" stroke-width=""1.5"" fill=""none"" />
    <polygon points = ""432.96000000000004,384 439.52821328946516,407.3499112656291 426.3917867105349,407.3499112656291"" stroke=""none"" stroke-width=""3"" fill = ""none"" />
    
    </svg>
    </div>
        ",,,,,,,,,,,,,,,,,,,,,,,,,,,,,,19
32,html-keyboard-response,32,370178,0.0-32.0,,,,"
    <div style="" display: block;  position: relative;"">
    <svg width=1366 height=768>
    
    <circle cx=620 cy=384 r=16.344937885940343 stroke=""black"" stroke-width=""1"" fill=""black"" />
    <circle cx=432.96000000000004 cy=384 r=23.34991126562906 stroke=""black"" stroke-width=""1.5"" fill=""none"" />
    <circle cx=564.5603549374838 cy=384 r=23.34991126562906 stroke=""black"" stroke-width=""1.5"" fill=""none"" />
    <circle cx=432.96000000000004 cy=515.6003549374838 r=23.34991126562906 stroke=""black"" stroke-width=""1.5"" fill=""none"" />
    <circle cx=301.3596450625163 cy=384 r=23.34991126562906 stroke=""black"" stroke-width=""1.5"" fill=""none"" />
    <circle cx=432.96000000000004 cy=252.39964506251624 r=23.34991126562906 stroke=""black"" stroke-width=""1.5"" fill=""none"" />
    <polygon points = ""432.96000000000004,384 439.52821328946516,407.3499112656291 426.3917867105349,407.3499112656291"" stroke=""white"" stroke-width=""3"" fill = ""white"" />
    
    </svg>
    </div>
        ",,,,,,,,,,,,stimulus,,,,,,,,,,,,,,,,,,19
33,html-keyboard-response,33,375036,0.0-33.0,4856.100000023842,arrowdown,,"
    <div style="" display: block;  position: relative;"">
    
    <svg width=1366 height=768>
    <circle cx=620 cy=384 r=16.344937885940343 stroke=""black"" stroke-width=""1"" fill=""black"" />
    <circle cx=564.5603549374838 cy=384 r=23.34991126562906 stroke=""none"" stroke-width=""1.5"" fill=""none"" />
    <circle cx=432.96000000000004 cy=515.6003549374838 r=23.34991126562906 stroke=""none"" stroke-width=""1.5"" fill=""none"" />
    <circle cx=301.3596450625163 cy=384 r=23.34991126562906 stroke=""none"" stroke-width=""1.5"" fill=""none"" />
    <circle cx=432.96000000000004 cy=252.39964506251624 r=23.34991126562906 stroke=""none"" stroke-width=""1.5"" fill=""none"" />
    <polygon points = ""432.96000000000004,384 439.52821328946516,407.3499112656291 426.3917867105349,407.3499112656291"" stroke=""none"" stroke-width=""3"" fill = ""none"" />
    
    </svg>
    </div>
        ",,,,,,,,,,,,get_response,True,camCLejcQHRkqCBz,,,True,False,False,187.04,4.0,601.7860000000001,131.60035493748376,2.81,1.0,0.0,,,,19
34,html-keyboard-response,34,375542,0.0-34.0,,,,"
    <div style="" display: block;  position: relative;"">
    
    <svg width=1366 height=768>
    <circle cx=620 cy=384 r=16.344937885940343 stroke=""black"" stroke-width=""1"" fill=""black"" />
    <circle cx=564.5603549374838 cy=384 r=23.34991126562906 stroke=""none"" stroke-width=""1.5"" fill=""none"" />
    <circle cx=432.96000000000004 cy=515.6003549374838 r=23.34991126562906 stroke=""none"" stroke-width=""1.5"" fill=""none"" />
    <circle cx=301.3596450625163 cy=384 r=23.34991126562906 stroke=""none"" stroke-width=""1.5"" fill=""none"" />
    <circle cx=432.96000000000004 cy=252.39964506251624 r=23.34991126562906 stroke=""none"" stroke-width=""1.5"" fill=""none"" />
    <polygon points = ""432.96000000000004,384 439.52821328946516,407.3499112656291 426.3917867105349,407.3499112656291"" stroke=""none"" stroke-width=""3"" fill = ""none"" />
    
    </svg>
    </div>
        ",,,,,,,,,,,,,,,,,,,,,,,,,,,,,,19
35,html-keyboard-response,35,375713,0.0-35.0,,,,"
    <div style="" display: block;  position: relative;"">
    <svg width=1366 height=768>
    
    <circle cx=620 cy=384 r=16.344937885940343 stroke=""black"" stroke-width=""1"" fill=""black"" />
    <circle cx=807.04 cy=384 r=23.34991126562906 stroke=""black"" stroke-width=""1.5"" fill=""none"" />
    <circle cx=938.6403549374837 cy=384 r=23.34991126562906 stroke=""black"" stroke-width=""1.5"" fill=""none"" />
    <circle cx=807.04 cy=515.6003549374838 r=23.34991126562906 stroke=""black"" stroke-width=""1.5"" fill=""none"" />
    <circle cx=675.4396450625162 cy=384 r=23.34991126562906 stroke=""black"" stroke-width=""1.5"" fill=""none"" />
    <circle cx=807.04 cy=252.39964506251624 r=23.34991126562906 stroke=""black"" stroke-width=""1.5"" fill=""none"" />
    <polygon points = ""807.04,384 813.6082132894651,407.3499112656291 800.4717867105348,407.3499112656291"" stroke=""white"" stroke-width=""3"" fill = ""white"" />
    
    </svg>
    </div>
        ",,,,,,,,,,,,stimulus,,,,,,,,,,,,,,,,,,19
36,html-keyboard-response,36,378257,0.0-36.0,2538.100000023842,arrowdown,,"
    <div style="" display: block;  position: relative;"">
    
    <svg width=1366 height=768>
    <circle cx=620 cy=384 r=16.344937885940343 stroke=""black"" stroke-width=""1"" fill=""black"" />
    <circle cx=938.6403549374837 cy=384 r=23.34991126562906 stroke=""none"" stroke-width=""1.5"" fill=""none"" />
    <circle cx=807.04 cy=515.6003549374838 r=23.34991126562906 stroke=""none"" stroke-width=""1.5"" fill=""none"" />
    <circle cx=675.4396450625162 cy=384 r=23.34991126562906 stroke=""none"" stroke-width=""1.5"" fill=""none"" />
    <circle cx=807.04 cy=252.39964506251624 r=23.34991126562906 stroke=""none"" stroke-width=""1.5"" fill=""none"" />
    <polygon points = ""807.04,384 813.6082132894651,407.3499112656291 800.4717867105348,407.3499112656291"" stroke=""none"" stroke-width=""3"" fill = ""none"" />
    
    </svg>
    </div>
        ",,,,,,,,,,,,get_response,True,camCLejcQHRkqCBz,,,False,False,False,187.04,4.0,601.7860000000001,131.60035493748376,2.81,1.0,0.0,,,,19
37,html-keyboard-response,37,378775,0.0-37.0,,,,"
    <div style="" display: block;  position: relative;"">
    
    <svg width=1366 height=768>
    <circle cx=620 cy=384 r=16.344937885940343 stroke=""black"" stroke-width=""1"" fill=""black"" />
    <circle cx=938.6403549374837 cy=384 r=23.34991126562906 stroke=""none"" stroke-width=""1.5"" fill=""none"" />
    <circle cx=807.04 cy=515.6003549374838 r=23.34991126562906 stroke=""none"" stroke-width=""1.5"" fill=""none"" />
    <circle cx=675.4396450625162 cy=384 r=23.34991126562906 stroke=""none"" stroke-width=""1.5"" fill=""none"" />
    <circle cx=807.04 cy=252.39964506251624 r=23.34991126562906 stroke=""none"" stroke-width=""1.5"" fill=""none"" />
    <polygon points = ""807.04,384 813.6082132894651,407.3499112656291 800.4717867105348,407.3499112656291"" stroke=""none"" stroke-width=""3"" fill = ""none"" />
    
    </svg>
    </div>
        ",,,,,,,,,,,,,,,,,,,,,,,,,,,,,,19
38,html-keyboard-response,38,378930,0.0-38.0,,,,"
    <div style="" display: block;  position: relative;"">
    <svg width=1366 height=768>
    
    <circle cx=620 cy=384 r=16.344937885940343 stroke=""black"" stroke-width=""1"" fill=""black"" />
    <circle cx=807.04 cy=384 r=23.34991126562906 stroke=""black"" stroke-width=""1.5"" fill=""none"" />
    <circle cx=938.6403549374837 cy=384 r=23.34991126562906 stroke=""black"" stroke-width=""1.5"" fill=""none"" />
    <circle cx=807.04 cy=515.6003549374838 r=23.34991126562906 stroke=""black"" stroke-width=""1.5"" fill=""none"" />
    <circle cx=675.4396450625162 cy=384 r=23.34991126562906 stroke=""black"" stroke-width=""1.5"" fill=""none"" />
    <circle cx=807.04 cy=252.39964506251624 r=23.34991126562906 stroke=""black"" stroke-width=""1.5"" fill=""none"" />
    <polygon points = ""807.04,384 813.6082132894651,407.3499112656291 800.4717867105348,407.3499112656291"" stroke=""white"" stroke-width=""3"" fill = ""white"" />
    
    </svg>
    </div>
        ",,,,,,,,,,,,stimulus,,,,,,,,,,,,,,,,,,19
39,html-keyboard-response,39,379342,0.0-39.0,408.0,arrowdown,,"
    <div style="" display: block;  position: relative;"">
    
    <svg width=1366 height=768>
    <circle cx=620 cy=384 r=16.344937885940343 stroke=""black"" stroke-width=""1"" fill=""black"" />
    <circle cx=938.6403549374837 cy=384 r=23.34991126562906 stroke=""none"" stroke-width=""1.5"" fill=""none"" />
    <circle cx=807.04 cy=515.6003549374838 r=23.34991126562906 stroke=""none"" stroke-width=""1.5"" fill=""none"" />
    <circle cx=675.4396450625162 cy=384 r=23.34991126562906 stroke=""none"" stroke-width=""1.5"" fill=""none"" />
    <circle cx=807.04 cy=252.39964506251624 r=23.34991126562906 stroke=""none"" stroke-width=""1.5"" fill=""none"" />
    <polygon points = ""807.04,384 813.6082132894651,407.3499112656291 800.4717867105348,407.3499112656291"" stroke=""none"" stroke-width=""3"" fill = ""none"" />
    
    </svg>
    </div>
        ",,,,,,,,,,,,get_response,True,camCLejcQHRkqCBz,,,False,False,False,187.04,4.0,601.7860000000001,131.60035493748376,2.81,1.0,0.0,,,,19
40,html-keyboard-response,40,379848,0.0-40.0,,,,"
    <div style="" display: block;  position: relative;"">
    
    <svg width=1366 height=768>
    <circle cx=620 cy=384 r=16.344937885940343 stroke=""black"" stroke-width=""1"" fill=""black"" />
    <circle cx=938.6403549374837 cy=384 r=23.34991126562906 stroke=""none"" stroke-width=""1.5"" fill=""none"" />
    <circle cx=807.04 cy=515.6003549374838 r=23.34991126562906 stroke=""none"" stroke-width=""1.5"" fill=""none"" />
    <circle cx=675.4396450625162 cy=384 r=23.34991126562906 stroke=""none"" stroke-width=""1.5"" fill=""none"" />
    <circle cx=807.04 cy=252.39964506251624 r=23.34991126562906 stroke=""none"" stroke-width=""1.5"" fill=""none"" />
    <polygon points = ""807.04,384 813.6082132894651,407.3499112656291 800.4717867105348,407.3499112656291"" stroke=""none"" stroke-width=""3"" fill = ""none"" />
    
    </svg>
    </div>
        ",,,,,,,,,,,,,,,,,,,,,,,,,,,,,,19
41,html-keyboard-response,41,380013,0.0-41.0,,,,"
    <div style="" display: block;  position: relative;"">
    <svg width=1366 height=768>
    
    <circle cx=620 cy=384 r=16.344937885940343 stroke=""black"" stroke-width=""1"" fill=""black"" />
    <circle cx=432.96000000000004 cy=384 r=23.34991126562906 stroke=""black"" stroke-width=""1.5"" fill=""none"" />
    <circle cx=552.5966863068035 cy=384 r=23.34991126562906 stroke=""black"" stroke-width=""1.5"" fill=""none"" />
    <circle cx=432.96000000000004 cy=503.6366863068034 r=23.34991126562906 stroke=""black"" stroke-width=""1.5"" fill=""none"" />
    <circle cx=313.3233136931966 cy=384 r=23.34991126562906 stroke=""black"" stroke-width=""1.5"" fill=""none"" />
    <circle cx=432.96000000000004 cy=264.3633136931966 r=23.34991126562906 stroke=""black"" stroke-width=""1.5"" fill=""none"" />
    <polygon points = ""432.96000000000004,384 439.52821328946516,360.6500887343709 426.3917867105349,360.6500887343709"" stroke=""white"" stroke-width=""3"" fill = ""white"" />
    
    </svg>
    </div>
        ",,,,,,,,,,,,stimulus,,,,,,,,,,,,,,,,,,19
42,html-keyboard-response,42,380512,0.0-42.0,496.5,arrowup,,"
    <div style="" display: block;  position: relative;"">
    
    <svg width=1366 height=768>
    <circle cx=620 cy=384 r=16.344937885940343 stroke=""black"" stroke-width=""1"" fill=""black"" />
    <circle cx=552.5966863068035 cy=384 r=23.34991126562906 stroke=""none"" stroke-width=""1.5"" fill=""none"" />
    <circle cx=432.96000000000004 cy=503.6366863068034 r=23.34991126562906 stroke=""none"" stroke-width=""1.5"" fill=""none"" />
    <circle cx=313.3233136931966 cy=384 r=23.34991126562906 stroke=""none"" stroke-width=""1.5"" fill=""none"" />
    <circle cx=432.96000000000004 cy=264.3633136931966 r=23.34991126562906 stroke=""none"" stroke-width=""1.5"" fill=""none"" />
    <polygon points = ""432.96000000000004,384 439.52821328946516,360.6500887343709 426.3917867105349,360.6500887343709"" stroke=""none"" stroke-width=""3"" fill = ""none"" />
    
    </svg>
    </div>
        ",,,,,,,,,,,,get_response,True,camCLejcQHRkqCBz,,,True,True,False,187.04,4.0,601.7860000000001,119.6366863068034,2.56,1.0,0.0,,,,19
43,html-keyboard-response,43,381023,0.0-43.0,,,,"
    <div style="" display: block;  position: relative;"">
    
    <svg width=1366 height=768>
    <circle cx=620 cy=384 r=16.344937885940343 stroke=""black"" stroke-width=""1"" fill=""black"" />
    <circle cx=552.5966863068035 cy=384 r=23.34991126562906 stroke=""none"" stroke-width=""1.5"" fill=""none"" />
    <circle cx=432.96000000000004 cy=503.6366863068034 r=23.34991126562906 stroke=""none"" stroke-width=""1.5"" fill=""none"" />
    <circle cx=313.3233136931966 cy=384 r=23.34991126562906 stroke=""none"" stroke-width=""1.5"" fill=""none"" />
    <circle cx=432.96000000000004 cy=264.3633136931966 r=23.34991126562906 stroke=""none"" stroke-width=""1.5"" fill=""none"" />
    <polygon points = ""432.96000000000004,384 439.52821328946516,360.6500887343709 426.3917867105349,360.6500887343709"" stroke=""none"" stroke-width=""3"" fill = ""none"" />
    
    </svg>
    </div>
        ",,,,,,,,,,,,,,,,,,,,,,,,,,,,,,19
44,html-keyboard-response,44,381179,0.0-44.0,,,,"
    <div style="" display: block;  position: relative;"">
    <svg width=1366 height=768>
    
    <circle cx=620 cy=384 r=16.344937885940343 stroke=""black"" stroke-width=""1"" fill=""black"" />
    <circle cx=432.96000000000004 cy=384 r=23.34991126562906 stroke=""black"" stroke-width=""1.5"" fill=""none"" />
    <circle cx=541.7206239152758 cy=384 r=23.34991126562906 stroke=""black"" stroke-width=""1.5"" fill=""none"" />
    <circle cx=432.96000000000004 cy=492.7606239152758 r=23.34991126562906 stroke=""black"" stroke-width=""1.5"" fill=""none"" />
    <circle cx=324.19937608472424 cy=384 r=23.34991126562906 stroke=""black"" stroke-width=""1.5"" fill=""none"" />
    <circle cx=432.96000000000004 cy=275.2393760847242 r=23.34991126562906 stroke=""black"" stroke-width=""1.5"" fill=""none"" />
    <polygon points = ""432.96000000000004,384 439.52821328946516,407.3499112656291 426.3917867105349,407.3499112656291"" stroke=""white"" stroke-width=""3"" fill = ""white"" />
    
    </svg>
    </div>
        ",,,,,,,,,,,,stimulus,,,,,,,,,,,,,,,,,,19
45,html-keyboard-response,45,381733,0.0-45.0,550.3999999761581,arrowdown,,"
    <div style="" display: block;  position: relative;"">
    
    <svg width=1366 height=768>
    <circle cx=620 cy=384 r=16.344937885940343 stroke=""black"" stroke-width=""1"" fill=""black"" />
    <circle cx=541.7206239152758 cy=384 r=23.34991126562906 stroke=""none"" stroke-width=""1.5"" fill=""none"" />
    <circle cx=432.96000000000004 cy=492.7606239152758 r=23.34991126562906 stroke=""none"" stroke-width=""1.5"" fill=""none"" />
    <circle cx=324.19937608472424 cy=384 r=23.34991126562906 stroke=""none"" stroke-width=""1.5"" fill=""none"" />
    <circle cx=432.96000000000004 cy=275.2393760847242 r=23.34991126562906 stroke=""none"" stroke-width=""1.5"" fill=""none"" />
    <polygon points = ""432.96000000000004,384 439.52821328946516,407.3499112656291 426.3917867105349,407.3499112656291"" stroke=""none"" stroke-width=""3"" fill = ""none"" />
    
    </svg>
    </div>
        ",,,,,,,,,,,,get_response,True,camCLejcQHRkqCBz,,,True,False,False,187.04,4.0,601.7860000000001,108.7606239152758,2.32,1.0,0.0,,,,19
46,html-keyboard-response,46,382242,0.0-46.0,,,,"
    <div style="" display: block;  position: relative;"">
    
    <svg width=1366 height=768>
    <circle cx=620 cy=384 r=16.344937885940343 stroke=""black"" stroke-width=""1"" fill=""black"" />
    <circle cx=541.7206239152758 cy=384 r=23.34991126562906 stroke=""none"" stroke-width=""1.5"" fill=""none"" />
    <circle cx=432.96000000000004 cy=492.7606239152758 r=23.34991126562906 stroke=""none"" stroke-width=""1.5"" fill=""none"" />
    <circle cx=324.19937608472424 cy=384 r=23.34991126562906 stroke=""none"" stroke-width=""1.5"" fill=""none"" />
    <circle cx=432.96000000000004 cy=275.2393760847242 r=23.34991126562906 stroke=""none"" stroke-width=""1.5"" fill=""none"" />
    <polygon points = ""432.96000000000004,384 439.52821328946516,407.3499112656291 426.3917867105349,407.3499112656291"" stroke=""none"" stroke-width=""3"" fill = ""none"" />
    
    </svg>
    </div>
        ",,,,,,,,,,,,,,,,,,,,,,,,,,,,,,19
47,html-keyboard-response,47,382411,0.0-47.0,,,,"
    <div style="" display: block;  position: relative;"">
    <svg width=1366 height=768>
    
    <circle cx=620 cy=384 r=16.344937885940343 stroke=""black"" stroke-width=""1"" fill=""black"" />
    <circle cx=807.04 cy=384 r=23.34991126562906 stroke=""black"" stroke-width=""1.5"" fill=""none"" />
    <circle cx=905.9132944684325 cy=384 r=23.34991126562906 stroke=""black"" stroke-width=""1.5"" fill=""none"" />
    <circle cx=807.04 cy=482.87329446843256 r=23.34991126562906 stroke=""black"" stroke-width=""1.5"" fill=""none"" />
    <circle cx=708.1667055315675 cy=384 r=23.34991126562906 stroke=""black"" stroke-width=""1.5"" fill=""none"" />
    <circle cx=807.04 cy=285.12670553156744 r=23.34991126562906 stroke=""black"" stroke-width=""1.5"" fill=""none"" />
    <polygon points = ""807.04,384 813.6082132894651,407.3499112656291 800.4717867105348,407.3499112656291"" stroke=""white"" stroke-width=""3"" fill = ""white"" />
    
    </svg>
    </div>
        ",,,,,,,,,,,,stimulus,,,,,,,,,,,,,,,,,,19
48,html-keyboard-response,48,382989,0.0-48.0,573.9000000953674,arrowdown,,"
    <div style="" display: block;  position: relative;"">
    
    <svg width=1366 height=768>
    <circle cx=620 cy=384 r=16.344937885940343 stroke=""black"" stroke-width=""1"" fill=""black"" />
    <circle cx=905.9132944684325 cy=384 r=23.34991126562906 stroke=""none"" stroke-width=""1.5"" fill=""none"" />
    <circle cx=807.04 cy=482.87329446843256 r=23.34991126562906 stroke=""none"" stroke-width=""1.5"" fill=""none"" />
    <circle cx=708.1667055315675 cy=384 r=23.34991126562906 stroke=""none"" stroke-width=""1.5"" fill=""none"" />
    <circle cx=807.04 cy=285.12670553156744 r=23.34991126562906 stroke=""none"" stroke-width=""1.5"" fill=""none"" />
    <polygon points = ""807.04,384 813.6082132894651,407.3499112656291 800.4717867105348,407.3499112656291"" stroke=""none"" stroke-width=""3"" fill = ""none"" />
    
    </svg>
    </div>
        ",,,,,,,,,,,,get_response,True,camCLejcQHRkqCBz,,,False,False,False,187.04,4.0,601.7860000000001,98.87329446843256,2.11,1.0,0.0,,,,19
49,html-keyboard-response,49,383351,0.0-49.0,359.0,arrowup,,"
    <div style="" display: block;  position: relative;"">
    
    <svg width=1366 height=768>
    <circle cx=620 cy=384 r=16.344937885940343 stroke=""black"" stroke-width=""1"" fill=""black"" />
    <circle cx=905.9132944684325 cy=384 r=23.34991126562906 stroke=""none"" stroke-width=""1.5"" fill=""none"" />
    <circle cx=807.04 cy=482.87329446843256 r=23.34991126562906 stroke=""none"" stroke-width=""1.5"" fill=""none"" />
    <circle cx=708.1667055315675 cy=384 r=23.34991126562906 stroke=""none"" stroke-width=""1.5"" fill=""none"" />
    <circle cx=807.04 cy=285.12670553156744 r=23.34991126562906 stroke=""none"" stroke-width=""1.5"" fill=""none"" />
    <polygon points = ""807.04,384 813.6082132894651,407.3499112656291 800.4717867105348,407.3499112656291"" stroke=""none"" stroke-width=""3"" fill = ""none"" />
    
    </svg>
    </div>
        ",,,,,,,,,,,,,,,,,,,,,,,,,,,,,,19
50,html-keyboard-response,50,383511,0.0-50.0,,,,"
    <div style="" display: block;  position: relative;"">
    <svg width=1366 height=768>
    
    <circle cx=620 cy=384 r=16.344937885940343 stroke=""black"" stroke-width=""1"" fill=""black"" />
    <circle cx=432.96000000000004 cy=384 r=23.34991126562906 stroke=""black"" stroke-width=""1.5"" fill=""none"" />
    <circle cx=522.8448131531205 cy=384 r=23.34991126562906 stroke=""black"" stroke-width=""1.5"" fill=""none"" />
    <circle cx=432.96000000000004 cy=473.8848131531205 r=23.34991126562906 stroke=""black"" stroke-width=""1.5"" fill=""none"" />
    <circle cx=343.07518684687955 cy=384 r=23.34991126562906 stroke=""black"" stroke-width=""1.5"" fill=""none"" />
    <circle cx=432.96000000000004 cy=294.1151868468795 r=23.34991126562906 stroke=""black"" stroke-width=""1.5"" fill=""none"" />
    <polygon points = ""432.96000000000004,384 439.52821328946516,360.6500887343709 426.3917867105349,360.6500887343709"" stroke=""white"" stroke-width=""3"" fill = ""white"" />
    
    </svg>
    </div>
        ",,,,,,,,,,,,stimulus,,,,,,,,,,,,,,,,,,19
51,html-keyboard-response,51,386575,0.0-51.0,3060.7999999523163,arrowup,,"
    <div style="" display: block;  position: relative;"">
    
    <svg width=1366 height=768>
    <circle cx=620 cy=384 r=16.344937885940343 stroke=""black"" stroke-width=""1"" fill=""black"" />
    <circle cx=522.8448131531205 cy=384 r=23.34991126562906 stroke=""none"" stroke-width=""1.5"" fill=""none"" />
    <circle cx=432.96000000000004 cy=473.8848131531205 r=23.34991126562906 stroke=""none"" stroke-width=""1.5"" fill=""none"" />
    <circle cx=343.07518684687955 cy=384 r=23.34991126562906 stroke=""none"" stroke-width=""1.5"" fill=""none"" />
    <circle cx=432.96000000000004 cy=294.1151868468795 r=23.34991126562906 stroke=""none"" stroke-width=""1.5"" fill=""none"" />
    <polygon points = ""432.96000000000004,384 439.52821328946516,360.6500887343709 426.3917867105349,360.6500887343709"" stroke=""none"" stroke-width=""3"" fill = ""none"" />
    
    </svg>
    </div>
        ",,,,,,,,,,,,get_response,True,camCLejcQHRkqCBz,,,True,True,False,187.04,4.0,601.7860000000001,89.88481315312049,1.92,1.0,0.0,,,,19
52,html-keyboard-response,52,387088,0.0-52.0,,,,"
    <div style="" display: block;  position: relative;"">
    
    <svg width=1366 height=768>
    <circle cx=620 cy=384 r=16.344937885940343 stroke=""black"" stroke-width=""1"" fill=""black"" />
    <circle cx=522.8448131531205 cy=384 r=23.34991126562906 stroke=""none"" stroke-width=""1.5"" fill=""none"" />
    <circle cx=432.96000000000004 cy=473.8848131531205 r=23.34991126562906 stroke=""none"" stroke-width=""1.5"" fill=""none"" />
    <circle cx=343.07518684687955 cy=384 r=23.34991126562906 stroke=""none"" stroke-width=""1.5"" fill=""none"" />
    <circle cx=432.96000000000004 cy=294.1151868468795 r=23.34991126562906 stroke=""none"" stroke-width=""1.5"" fill=""none"" />
    <polygon points = ""432.96000000000004,384 439.52821328946516,360.6500887343709 426.3917867105349,360.6500887343709"" stroke=""none"" stroke-width=""3"" fill = ""none"" />
    
    </svg>
    </div>
        ",,,,,,,,,,,,,,,,,,,,,,,,,,,,,,19
53,html-keyboard-response,53,387245,0.0-53.0,,,,"
    <div style="" display: block;  position: relative;"">
    <svg width=1366 height=768>
    
    <circle cx=620 cy=384 r=16.344937885940343 stroke=""black"" stroke-width=""1"" fill=""black"" />
    <circle cx=807.04 cy=384 r=23.34991126562906 stroke=""black"" stroke-width=""1.5"" fill=""none"" />
    <circle cx=888.7534665028368 cy=384 r=23.34991126562906 stroke=""black"" stroke-width=""1.5"" fill=""none"" />
    <circle cx=807.04 cy=465.7134665028368 r=23.34991126562906 stroke=""black"" stroke-width=""1.5"" fill=""none"" />
    <circle cx=725.3265334971632 cy=384 r=23.34991126562906 stroke=""black"" stroke-width=""1.5"" fill=""none"" />
    <circle cx=807.04 cy=302.2865334971632 r=23.34991126562906 stroke=""black"" stroke-width=""1.5"" fill=""none"" />
    <polygon points = ""807.04,384 813.6082132894651,407.3499112656291 800.4717867105348,407.3499112656291"" stroke=""white"" stroke-width=""3"" fill = ""white"" />
    
    </svg>
    </div>
        ",,,,,,,,,,,,stimulus,,,,,,,,,,,,,,,,,,19
54,html-keyboard-response,54,387819,0.0-54.0,569.7000000476837,arrowdown,,"
    <div style="" display: block;  position: relative;"">
    
    <svg width=1366 height=768>
    <circle cx=620 cy=384 r=16.344937885940343 stroke=""black"" stroke-width=""1"" fill=""black"" />
    <circle cx=888.7534665028368 cy=384 r=23.34991126562906 stroke=""none"" stroke-width=""1.5"" fill=""none"" />
    <circle cx=807.04 cy=465.7134665028368 r=23.34991126562906 stroke=""none"" stroke-width=""1.5"" fill=""none"" />
    <circle cx=725.3265334971632 cy=384 r=23.34991126562906 stroke=""none"" stroke-width=""1.5"" fill=""none"" />
    <circle cx=807.04 cy=302.2865334971632 r=23.34991126562906 stroke=""none"" stroke-width=""1.5"" fill=""none"" />
    <polygon points = ""807.04,384 813.6082132894651,407.3499112656291 800.4717867105348,407.3499112656291"" stroke=""none"" stroke-width=""3"" fill = ""none"" />
    
    </svg>
    </div>
        ",,,,,,,,,,,,get_response,True,camCLejcQHRkqCBz,,,False,False,False,187.04,4.0,601.7860000000001,81.71346650283681,1.74,1.0,0.0,,,,19
55,html-keyboard-response,55,388325,0.0-55.0,,,,"
    <div style="" display: block;  position: relative;"">
    
    <svg width=1366 height=768>
    <circle cx=620 cy=384 r=16.344937885940343 stroke=""black"" stroke-width=""1"" fill=""black"" />
    <circle cx=888.7534665028368 cy=384 r=23.34991126562906 stroke=""none"" stroke-width=""1.5"" fill=""none"" />
    <circle cx=807.04 cy=465.7134665028368 r=23.34991126562906 stroke=""none"" stroke-width=""1.5"" fill=""none"" />
    <circle cx=725.3265334971632 cy=384 r=23.34991126562906 stroke=""none"" stroke-width=""1.5"" fill=""none"" />
    <circle cx=807.04 cy=302.2865334971632 r=23.34991126562906 stroke=""none"" stroke-width=""1.5"" fill=""none"" />
    <polygon points = ""807.04,384 813.6082132894651,407.3499112656291 800.4717867105348,407.3499112656291"" stroke=""none"" stroke-width=""3"" fill = ""none"" />
    
    </svg>
    </div>
        ",,,,,,,,,,,,,,,,,,,,,,,,,,,,,,19
56,html-keyboard-response,56,388494,0.0-56.0,,,,"
    <div style="" display: block;  position: relative;"">
    <svg width=1366 height=768>
    
    <circle cx=620 cy=384 r=16.344937885940343 stroke=""black"" stroke-width=""1"" fill=""black"" />
    <circle cx=432.96000000000004 cy=384 r=23.34991126562906 stroke=""black"" stroke-width=""1.5"" fill=""none"" />
    <circle cx=507.2449695480335 cy=384 r=23.34991126562906 stroke=""black"" stroke-width=""1.5"" fill=""none"" />
    <circle cx=432.96000000000004 cy=458.2849695480335 r=23.34991126562906 stroke=""black"" stroke-width=""1.5"" fill=""none"" />
    <circle cx=358.67503045196656 cy=384 r=23.34991126562906 stroke=""black"" stroke-width=""1.5"" fill=""none"" />
    <circle cx=432.96000000000004 cy=309.7150304519665 r=23.34991126562906 stroke=""black"" stroke-width=""1.5"" fill=""none"" />
    <polygon points = ""432.96000000000004,384 439.52821328946516,360.6500887343709 426.3917867105349,360.6500887343709"" stroke=""white"" stroke-width=""3"" fill = ""white"" />
    
    </svg>
    </div>
        ",,,,,,,,,,,,stimulus,,,,,,,,,,,,,,,,,,19
57,html-keyboard-response,57,388939,0.0-57.0,442.3999999761581,arrowup,,"
    <div style="" display: block;  position: relative;"">
    
    <svg width=1366 height=768>
    <circle cx=620 cy=384 r=16.344937885940343 stroke=""black"" stroke-width=""1"" fill=""black"" />
    <circle cx=507.2449695480335 cy=384 r=23.34991126562906 stroke=""none"" stroke-width=""1.5"" fill=""none"" />
    <circle cx=432.96000000000004 cy=458.2849695480335 r=23.34991126562906 stroke=""none"" stroke-width=""1.5"" fill=""none"" />
    <circle cx=358.67503045196656 cy=384 r=23.34991126562906 stroke=""none"" stroke-width=""1.5"" fill=""none"" />
    <circle cx=432.96000000000004 cy=309.7150304519665 r=23.34991126562906 stroke=""none"" stroke-width=""1.5"" fill=""none"" />
    <polygon points = ""432.96000000000004,384 439.52821328946516,360.6500887343709 426.3917867105349,360.6500887343709"" stroke=""none"" stroke-width=""3"" fill = ""none"" />
    
    </svg>
    </div>
        ",,,,,,,,,,,,get_response,True,camCLejcQHRkqCBz,,,True,True,False,187.04,4.0,601.7860000000001,74.28496954803346,1.59,1.0,0.0,,,,19
58,html-keyboard-response,58,389466,0.0-58.0,,,,"
    <div style="" display: block;  position: relative;"">
    
    <svg width=1366 height=768>
    <circle cx=620 cy=384 r=16.344937885940343 stroke=""black"" stroke-width=""1"" fill=""black"" />
    <circle cx=507.2449695480335 cy=384 r=23.34991126562906 stroke=""none"" stroke-width=""1.5"" fill=""none"" />
    <circle cx=432.96000000000004 cy=458.2849695480335 r=23.34991126562906 stroke=""none"" stroke-width=""1.5"" fill=""none"" />
    <circle cx=358.67503045196656 cy=384 r=23.34991126562906 stroke=""none"" stroke-width=""1.5"" fill=""none"" />
    <circle cx=432.96000000000004 cy=309.7150304519665 r=23.34991126562906 stroke=""none"" stroke-width=""1.5"" fill=""none"" />
    <polygon points = ""432.96000000000004,384 439.52821328946516,360.6500887343709 426.3917867105349,360.6500887343709"" stroke=""none"" stroke-width=""3"" fill = ""none"" />
    
    </svg>
    </div>
        ",,,,,,,,,,,,,,,,,,,,,,,,,,,,,,19
59,html-keyboard-response,59,389629,0.0-59.0,,,,"
    <div style="" display: block;  position: relative;"">
    <svg width=1366 height=768>
    
    <circle cx=620 cy=384 r=16.344937885940343 stroke=""black"" stroke-width=""1"" fill=""black"" />
    <circle cx=807.04 cy=384 r=23.34991126562906 stroke=""black"" stroke-width=""1.5"" fill=""none"" />
    <circle cx=874.5717904982122 cy=384 r=23.34991126562906 stroke=""black"" stroke-width=""1.5"" fill=""none"" />
    <circle cx=807.04 cy=451.5317904982122 r=23.34991126562906 stroke=""black"" stroke-width=""1.5"" fill=""none"" />
    <circle cx=739.5082095017877 cy=384 r=23.34991126562906 stroke=""black"" stroke-width=""1.5"" fill=""none"" />
    <circle cx=807.04 cy=316.4682095017878 r=23.34991126562906 stroke=""black"" stroke-width=""1.5"" fill=""none"" />
    <polygon points = ""807.04,384 813.6082132894651,407.3499112656291 800.4717867105348,407.3499112656291"" stroke=""white"" stroke-width=""3"" fill = ""white"" />
    
    </svg>
    </div>
        ",,,,,,,,,,,,stimulus,,,,,,,,,,,,,,,,,,19
60,html-keyboard-response,60,389985,0.0-60.0,350.6999999284744,arrowdown,,"
    <div style="" display: block;  position: relative;"">
    
    <svg width=1366 height=768>
    <circle cx=620 cy=384 r=16.344937885940343 stroke=""black"" stroke-width=""1"" fill=""black"" />
    <circle cx=874.5717904982122 cy=384 r=23.34991126562906 stroke=""none"" stroke-width=""1.5"" fill=""none"" />
    <circle cx=807.04 cy=451.5317904982122 r=23.34991126562906 stroke=""none"" stroke-width=""1.5"" fill=""none"" />
    <circle cx=739.5082095017877 cy=384 r=23.34991126562906 stroke=""none"" stroke-width=""1.5"" fill=""none"" />
    <circle cx=807.04 cy=316.4682095017878 r=23.34991126562906 stroke=""none"" stroke-width=""1.5"" fill=""none"" />
    <polygon points = ""807.04,384 813.6082132894651,407.3499112656291 800.4717867105348,407.3499112656291"" stroke=""none"" stroke-width=""3"" fill = ""none"" />
    
    </svg>
    </div>
        ",,,,,,,,,,,,get_response,True,camCLejcQHRkqCBz,,,False,False,False,187.04,4.0,601.7860000000001,67.53179049821223,1.44,1.0,0.0,,,,19
61,html-keyboard-response,61,390489,0.0-61.0,,,,"
    <div style="" display: block;  position: relative;"">
    
    <svg width=1366 height=768>
    <circle cx=620 cy=384 r=16.344937885940343 stroke=""black"" stroke-width=""1"" fill=""black"" />
    <circle cx=874.5717904982122 cy=384 r=23.34991126562906 stroke=""none"" stroke-width=""1.5"" fill=""none"" />
    <circle cx=807.04 cy=451.5317904982122 r=23.34991126562906 stroke=""none"" stroke-width=""1.5"" fill=""none"" />
    <circle cx=739.5082095017877 cy=384 r=23.34991126562906 stroke=""none"" stroke-width=""1.5"" fill=""none"" />
    <circle cx=807.04 cy=316.4682095017878 r=23.34991126562906 stroke=""none"" stroke-width=""1.5"" fill=""none"" />
    <polygon points = ""807.04,384 813.6082132894651,407.3499112656291 800.4717867105348,407.3499112656291"" stroke=""none"" stroke-width=""3"" fill = ""none"" />
    
    </svg>
    </div>
        ",,,,,,,,,,,,,,,,,,,,,,,,,,,,,,19
62,html-keyboard-response,62,390644,0.0-62.0,,,,"
    <div style="" display: block;  position: relative;"">
    <svg width=1366 height=768>
    
    <circle cx=620 cy=384 r=16.344937885940343 stroke=""black"" stroke-width=""1"" fill=""black"" />
    <circle cx=432.96000000000004 cy=384 r=23.34991126562906 stroke=""black"" stroke-width=""1.5"" fill=""none"" />
    <circle cx=494.3525368165566 cy=384 r=23.34991126562906 stroke=""black"" stroke-width=""1.5"" fill=""none"" />
    <circle cx=432.96000000000004 cy=445.39253681655657 r=23.34991126562906 stroke=""black"" stroke-width=""1.5"" fill=""none"" />
    <circle cx=371.56746318344346 cy=384 r=23.34991126562906 stroke=""black"" stroke-width=""1.5"" fill=""none"" />
    <circle cx=432.96000000000004 cy=322.60746318344343 r=23.34991126562906 stroke=""black"" stroke-width=""1.5"" fill=""none"" />
    <polygon points = ""432.96000000000004,384 439.52821328946516,360.6500887343709 426.3917867105349,360.6500887343709"" stroke=""white"" stroke-width=""3"" fill = ""white"" />
    
    </svg>
    </div>
        ",,,,,,,,,,,,stimulus,,,,,,,,,,,,,,,,,,19
63,html-keyboard-response,63,391008,0.0-63.0,361.5,arrowup,,"
    <div style="" display: block;  position: relative;"">
    
    <svg width=1366 height=768>
    <circle cx=620 cy=384 r=16.344937885940343 stroke=""black"" stroke-width=""1"" fill=""black"" />
    <circle cx=494.3525368165566 cy=384 r=23.34991126562906 stroke=""none"" stroke-width=""1.5"" fill=""none"" />
    <circle cx=432.96000000000004 cy=445.39253681655657 r=23.34991126562906 stroke=""none"" stroke-width=""1.5"" fill=""none"" />
    <circle cx=371.56746318344346 cy=384 r=23.34991126562906 stroke=""none"" stroke-width=""1.5"" fill=""none"" />
    <circle cx=432.96000000000004 cy=322.60746318344343 r=23.34991126562906 stroke=""none"" stroke-width=""1.5"" fill=""none"" />
    <polygon points = ""432.96000000000004,384 439.52821328946516,360.6500887343709 426.3917867105349,360.6500887343709"" stroke=""none"" stroke-width=""3"" fill = ""none"" />
    
    </svg>
    </div>
        ",,,,,,,,,,,,get_response,True,camCLejcQHRkqCBz,,,True,True,False,187.04,4.0,601.7860000000001,61.39253681655657,1.31,1.0,0.0,,,,19
64,html-keyboard-response,64,391480,0.0-64.0,470.0,arrowdown,,"
    <div style="" display: block;  position: relative;"">
    
    <svg width=1366 height=768>
    <circle cx=620 cy=384 r=16.344937885940343 stroke=""black"" stroke-width=""1"" fill=""black"" />
    <circle cx=494.3525368165566 cy=384 r=23.34991126562906 stroke=""none"" stroke-width=""1.5"" fill=""none"" />
    <circle cx=432.96000000000004 cy=445.39253681655657 r=23.34991126562906 stroke=""none"" stroke-width=""1.5"" fill=""none"" />
    <circle cx=371.56746318344346 cy=384 r=23.34991126562906 stroke=""none"" stroke-width=""1.5"" fill=""none"" />
    <circle cx=432.96000000000004 cy=322.60746318344343 r=23.34991126562906 stroke=""none"" stroke-width=""1.5"" fill=""none"" />
    <polygon points = ""432.96000000000004,384 439.52821328946516,360.6500887343709 426.3917867105349,360.6500887343709"" stroke=""none"" stroke-width=""3"" fill = ""none"" />
    
    </svg>
    </div>
        ",,,,,,,,,,,,,,,,,,,,,,,,,,,,,,19
65,html-keyboard-response,65,391645,0.0-65.0,,,,"
    <div style="" display: block;  position: relative;"">
    <svg width=1366 height=768>
    
    <circle cx=620 cy=384 r=16.344937885940343 stroke=""black"" stroke-width=""1"" fill=""black"" />
    <circle cx=432.96000000000004 cy=384 r=23.34991126562906 stroke=""black"" stroke-width=""1.5"" fill=""none"" />
    <circle cx=488.77139710596055 cy=384 r=23.34991126562906 stroke=""black"" stroke-width=""1.5"" fill=""none"" />
    <circle cx=432.96000000000004 cy=439.8113971059605 r=23.34991126562906 stroke=""black"" stroke-width=""1.5"" fill=""none"" />
    <circle cx=377.1486028940395 cy=384 r=23.34991126562906 stroke=""black"" stroke-width=""1.5"" fill=""none"" />
    <circle cx=432.96000000000004 cy=328.1886028940395 r=23.34991126562906 stroke=""black"" stroke-width=""1.5"" fill=""none"" />
    <polygon points = ""432.96000000000004,384 439.52821328946516,360.6500887343709 426.3917867105349,360.6500887343709"" stroke=""white"" stroke-width=""3"" fill = ""white"" />
    
    </svg>
    </div>
        ",,,,,,,,,,,,stimulus,,,,,,,,,,,,,,,,,,19
66,html-keyboard-response,66,394030,0.0-66.0,2382.200000047684,arrowup,,"
    <div style="" display: block;  position: relative;"">
    
    <svg width=1366 height=768>
    <circle cx=620 cy=384 r=16.344937885940343 stroke=""black"" stroke-width=""1"" fill=""black"" />
    <circle cx=488.77139710596055 cy=384 r=23.34991126562906 stroke=""none"" stroke-width=""1.5"" fill=""none"" />
    <circle cx=432.96000000000004 cy=439.8113971059605 r=23.34991126562906 stroke=""none"" stroke-width=""1.5"" fill=""none"" />
    <circle cx=377.1486028940395 cy=384 r=23.34991126562906 stroke=""none"" stroke-width=""1.5"" fill=""none"" />
    <circle cx=432.96000000000004 cy=328.1886028940395 r=23.34991126562906 stroke=""none"" stroke-width=""1.5"" fill=""none"" />
    <polygon points = ""432.96000000000004,384 439.52821328946516,360.6500887343709 426.3917867105349,360.6500887343709"" stroke=""none"" stroke-width=""3"" fill = ""none"" />
    
    </svg>
    </div>
        ",,,,,,,,,,,,get_response,True,camCLejcQHRkqCBz,,,True,True,False,187.04,4.0,601.7860000000001,55.81139710596052,1.19,1.0,0.0,,,,19
67,html-keyboard-response,67,394537,0.0-67.0,,,,"
    <div style="" display: block;  position: relative;"">
    
    <svg width=1366 height=768>
    <circle cx=620 cy=384 r=16.344937885940343 stroke=""black"" stroke-width=""1"" fill=""black"" />
    <circle cx=488.77139710596055 cy=384 r=23.34991126562906 stroke=""none"" stroke-width=""1.5"" fill=""none"" />
    <circle cx=432.96000000000004 cy=439.8113971059605 r=23.34991126562906 stroke=""none"" stroke-width=""1.5"" fill=""none"" />
    <circle cx=377.1486028940395 cy=384 r=23.34991126562906 stroke=""none"" stroke-width=""1.5"" fill=""none"" />
    <circle cx=432.96000000000004 cy=328.1886028940395 r=23.34991126562906 stroke=""none"" stroke-width=""1.5"" fill=""none"" />
    <polygon points = ""432.96000000000004,384 439.52821328946516,360.6500887343709 426.3917867105349,360.6500887343709"" stroke=""none"" stroke-width=""3"" fill = ""none"" />
    
    </svg>
    </div>
        ",,,,,,,,,,,,,,,,,,,,,,,,,,,,,,19
68,html-keyboard-response,68,394694,0.0-68.0,,,,"
    <div style="" display: block;  position: relative;"">
    <svg width=1366 height=768>
    
    <circle cx=620 cy=384 r=16.344937885940343 stroke=""black"" stroke-width=""1"" fill=""black"" />
    <circle cx=432.96000000000004 cy=384 r=23.34991126562906 stroke=""black"" stroke-width=""1.5"" fill=""none"" />
    <circle cx=483.69763373269143 cy=384 r=23.34991126562906 stroke=""black"" stroke-width=""1.5"" fill=""none"" />
    <circle cx=432.96000000000004 cy=434.7376337326914 r=23.34991126562906 stroke=""black"" stroke-width=""1.5"" fill=""none"" />
    <circle cx=382.22236626730864 cy=384 r=23.34991126562906 stroke=""black"" stroke-width=""1.5"" fill=""none"" />
    <circle cx=432.96000000000004 cy=333.2623662673086 r=23.34991126562906 stroke=""black"" stroke-width=""1.5"" fill=""none"" />
    <polygon points = ""432.96000000000004,384 439.52821328946516,360.6500887343709 426.3917867105349,360.6500887343709"" stroke=""white"" stroke-width=""3"" fill = ""white"" />
    
    </svg>
    </div>
        ",,,,,,,,,,,,stimulus,,,,,,,,,,,,,,,,,,19
69,html-keyboard-response,69,396361,0.0-69.0,1663.899999976158,arrowup,,"
    <div style="" display: block;  position: relative;"">
    
    <svg width=1366 height=768>
    <circle cx=620 cy=384 r=16.344937885940343 stroke=""black"" stroke-width=""1"" fill=""black"" />
    <circle cx=483.69763373269143 cy=384 r=23.34991126562906 stroke=""none"" stroke-width=""1.5"" fill=""none"" />
    <circle cx=432.96000000000004 cy=434.7376337326914 r=23.34991126562906 stroke=""none"" stroke-width=""1.5"" fill=""none"" />
    <circle cx=382.22236626730864 cy=384 r=23.34991126562906 stroke=""none"" stroke-width=""1.5"" fill=""none"" />
    <circle cx=432.96000000000004 cy=333.2623662673086 r=23.34991126562906 stroke=""none"" stroke-width=""1.5"" fill=""none"" />
    <polygon points = ""432.96000000000004,384 439.52821328946516,360.6500887343709 426.3917867105349,360.6500887343709"" stroke=""none"" stroke-width=""3"" fill = ""none"" />
    
    </svg>
    </div>
        ",,,,,,,,,,,,get_response,True,camCLejcQHRkqCBz,,,True,True,False,187.04,4.0,601.7860000000001,50.73763373269137,1.08,1.0,0.0,,,,19
70,html-keyboard-response,70,396873,0.0-70.0,,,,"
    <div style="" display: block;  position: relative;"">
    
    <svg width=1366 height=768>
    <circle cx=620 cy=384 r=16.344937885940343 stroke=""black"" stroke-width=""1"" fill=""black"" />
    <circle cx=483.69763373269143 cy=384 r=23.34991126562906 stroke=""none"" stroke-width=""1.5"" fill=""none"" />
    <circle cx=432.96000000000004 cy=434.7376337326914 r=23.34991126562906 stroke=""none"" stroke-width=""1.5"" fill=""none"" />
    <circle cx=382.22236626730864 cy=384 r=23.34991126562906 stroke=""none"" stroke-width=""1.5"" fill=""none"" />
    <circle cx=432.96000000000004 cy=333.2623662673086 r=23.34991126562906 stroke=""none"" stroke-width=""1.5"" fill=""none"" />
    <polygon points = ""432.96000000000004,384 439.52821328946516,360.6500887343709 426.3917867105349,360.6500887343709"" stroke=""none"" stroke-width=""3"" fill = ""none"" />
    
    </svg>
    </div>
        ",,,,,,,,,,,,,,,,,,,,,,,,,,,,,,19
71,html-keyboard-response,71,397026,0.0-71.0,,,,"
    <div style="" display: block;  position: relative;"">
    <svg width=1366 height=768>
    
    <circle cx=620 cy=384 r=16.344937885940343 stroke=""black"" stroke-width=""1"" fill=""black"" />
    <circle cx=432.96000000000004 cy=384 r=23.34991126562906 stroke=""black"" stroke-width=""1.5"" fill=""none"" />
    <circle cx=479.65982253125816 cy=384 r=23.34991126562906 stroke=""black"" stroke-width=""1.5"" fill=""none"" />
    <circle cx=432.96000000000004 cy=430.6998225312581 r=23.34991126562906 stroke=""black"" stroke-width=""1.5"" fill=""none"" />
    <circle cx=386.2601774687419 cy=384 r=23.34991126562906 stroke=""black"" stroke-width=""1.5"" fill=""none"" />
    <circle cx=432.96000000000004 cy=337.3001774687419 r=23.34991126562906 stroke=""black"" stroke-width=""1.5"" fill=""none"" />
    <polygon points = ""432.96000000000004,384 439.52821328946516,407.3499112656291 426.3917867105349,407.3499112656291"" stroke=""white"" stroke-width=""3"" fill = ""white"" />
    
    </svg>
    </div>
        ",,,,,,,,,,,,stimulus,,,,,,,,,,,,,,,,,,19
72,html-keyboard-response,72,397606,0.0-72.0,578.6000000238419,arrowdown,,"
    <div style="" display: block;  position: relative;"">
    
    <svg width=1366 height=768>
    <circle cx=620 cy=384 r=16.344937885940343 stroke=""black"" stroke-width=""1"" fill=""black"" />
    <circle cx=479.65982253125816 cy=384 r=23.34991126562906 stroke=""none"" stroke-width=""1.5"" fill=""none"" />
    <circle cx=432.96000000000004 cy=430.6998225312581 r=23.34991126562906 stroke=""none"" stroke-width=""1.5"" fill=""none"" />
    <circle cx=386.2601774687419 cy=384 r=23.34991126562906 stroke=""none"" stroke-width=""1.5"" fill=""none"" />
    <circle cx=432.96000000000004 cy=337.3001774687419 r=23.34991126562906 stroke=""none"" stroke-width=""1.5"" fill=""none"" />
    <polygon points = ""432.96000000000004,384 439.52821328946516,407.3499112656291 426.3917867105349,407.3499112656291"" stroke=""none"" stroke-width=""3"" fill = ""none"" />
    
    </svg>
    </div>
        ",,,,,,,,,,,,get_response,True,camCLejcQHRkqCBz,,,True,False,False,187.04,4.0,601.7860000000001,46.69982253125812,1.0,1.0,0.0,,,,19
73,html-keyboard-response,73,398121,0.0-73.0,,,,"
    <div style="" display: block;  position: relative;"">
    
    <svg width=1366 height=768>
    <circle cx=620 cy=384 r=16.344937885940343 stroke=""black"" stroke-width=""1"" fill=""black"" />
    <circle cx=479.65982253125816 cy=384 r=23.34991126562906 stroke=""none"" stroke-width=""1.5"" fill=""none"" />
    <circle cx=432.96000000000004 cy=430.6998225312581 r=23.34991126562906 stroke=""none"" stroke-width=""1.5"" fill=""none"" />
    <circle cx=386.2601774687419 cy=384 r=23.34991126562906 stroke=""none"" stroke-width=""1.5"" fill=""none"" />
    <circle cx=432.96000000000004 cy=337.3001774687419 r=23.34991126562906 stroke=""none"" stroke-width=""1.5"" fill=""none"" />
    <polygon points = ""432.96000000000004,384 439.52821328946516,407.3499112656291 426.3917867105349,407.3499112656291"" stroke=""none"" stroke-width=""3"" fill = ""none"" />
    
    </svg>
    </div>
        ",,,,,,,,,,,,,,,,,,,,,,,,,,,,,,19
74,html-keyboard-response,74,398276,0.0-74.0,,,,"
    <div style="" display: block;  position: relative;"">
    <svg width=1366 height=768>
    
    <circle cx=620 cy=384 r=16.344937885940343 stroke=""black"" stroke-width=""1"" fill=""black"" />
    <circle cx=432.96000000000004 cy=384 r=23.34991126562906 stroke=""black"" stroke-width=""1.5"" fill=""none"" />
    <circle cx=479.65982253125816 cy=384 r=23.34991126562906 stroke=""black"" stroke-width=""1.5"" fill=""none"" />
    <circle cx=432.96000000000004 cy=430.6998225312581 r=23.34991126562906 stroke=""black"" stroke-width=""1.5"" fill=""none"" />
    <circle cx=386.2601774687419 cy=384 r=23.34991126562906 stroke=""black"" stroke-width=""1.5"" fill=""none"" />
    <circle cx=432.96000000000004 cy=337.3001774687419 r=23.34991126562906 stroke=""black"" stroke-width=""1.5"" fill=""none"" />
    <polygon points = ""432.96000000000004,384 439.52821328946516,407.3499112656291 426.3917867105349,407.3499112656291"" stroke=""white"" stroke-width=""3"" fill = ""white"" />
    
    </svg>
    </div>
        ",,,,,,,,,,,,stimulus,,,,,,,,,,,,,,,,,,19
75,html-keyboard-response,75,398651,0.0-75.0,372.0,arrowdown,,"
    <div style="" display: block;  position: relative;"">
    
    <svg width=1366 height=768>
    <circle cx=620 cy=384 r=16.344937885940343 stroke=""black"" stroke-width=""1"" fill=""black"" />
    <circle cx=479.65982253125816 cy=384 r=23.34991126562906 stroke=""none"" stroke-width=""1.5"" fill=""none"" />
    <circle cx=432.96000000000004 cy=430.6998225312581 r=23.34991126562906 stroke=""none"" stroke-width=""1.5"" fill=""none"" />
    <circle cx=386.2601774687419 cy=384 r=23.34991126562906 stroke=""none"" stroke-width=""1.5"" fill=""none"" />
    <circle cx=432.96000000000004 cy=337.3001774687419 r=23.34991126562906 stroke=""none"" stroke-width=""1.5"" fill=""none"" />
    <polygon points = ""432.96000000000004,384 439.52821328946516,407.3499112656291 426.3917867105349,407.3499112656291"" stroke=""none"" stroke-width=""3"" fill = ""none"" />
    
    </svg>
    </div>
        ",,,,,,,,,,,,get_response,True,camCLejcQHRkqCBz,,,True,False,False,187.04,4.0,601.7860000000001,46.69982253125812,1.0,1.0,0.0,,,,19
76,html-keyboard-response,76,399156,0.0-76.0,,,,"
    <div style="" display: block;  position: relative;"">
    
    <svg width=1366 height=768>
    <circle cx=620 cy=384 r=16.344937885940343 stroke=""black"" stroke-width=""1"" fill=""black"" />
    <circle cx=479.65982253125816 cy=384 r=23.34991126562906 stroke=""none"" stroke-width=""1.5"" fill=""none"" />
    <circle cx=432.96000000000004 cy=430.6998225312581 r=23.34991126562906 stroke=""none"" stroke-width=""1.5"" fill=""none"" />
    <circle cx=386.2601774687419 cy=384 r=23.34991126562906 stroke=""none"" stroke-width=""1.5"" fill=""none"" />
    <circle cx=432.96000000000004 cy=337.3001774687419 r=23.34991126562906 stroke=""none"" stroke-width=""1.5"" fill=""none"" />
    <polygon points = ""432.96000000000004,384 439.52821328946516,407.3499112656291 426.3917867105349,407.3499112656291"" stroke=""none"" stroke-width=""3"" fill = ""none"" />
    
    </svg>
    </div>
        ",,,,,,,,,,,,,,,,,,,,,,,,,,,,,,19
77,html-keyboard-response,77,399311,0.0-77.0,,,,"
    <div style="" display: block;  position: relative;"">
    <svg width=1366 height=768>
    
    <circle cx=620 cy=384 r=16.344937885940343 stroke=""black"" stroke-width=""1"" fill=""black"" />
    <circle cx=432.96000000000004 cy=384 r=23.34991126562906 stroke=""black"" stroke-width=""1.5"" fill=""none"" />
    <circle cx=479.65982253125816 cy=384 r=23.34991126562906 stroke=""black"" stroke-width=""1.5"" fill=""none"" />
    <circle cx=432.96000000000004 cy=430.6998225312581 r=23.34991126562906 stroke=""black"" stroke-width=""1.5"" fill=""none"" />
    <circle cx=386.2601774687419 cy=384 r=23.34991126562906 stroke=""black"" stroke-width=""1.5"" fill=""none"" />
    <circle cx=432.96000000000004 cy=337.3001774687419 r=23.34991126562906 stroke=""black"" stroke-width=""1.5"" fill=""none"" />
    <polygon points = ""432.96000000000004,384 439.52821328946516,407.3499112656291 426.3917867105349,407.3499112656291"" stroke=""white"" stroke-width=""3"" fill = ""white"" />
    
    </svg>
    </div>
        ",,,,,,,,,,,,stimulus,,,,,,,,,,,,,,,,,,19
78,html-keyboard-response,78,399677,0.0-78.0,363.3999999761581,arrowdown,,"
    <div style="" display: block;  position: relative;"">
    
    <svg width=1366 height=768>
    <circle cx=620 cy=384 r=16.344937885940343 stroke=""black"" stroke-width=""1"" fill=""black"" />
    <circle cx=479.65982253125816 cy=384 r=23.34991126562906 stroke=""none"" stroke-width=""1.5"" fill=""none"" />
    <circle cx=432.96000000000004 cy=430.6998225312581 r=23.34991126562906 stroke=""none"" stroke-width=""1.5"" fill=""none"" />
    <circle cx=386.2601774687419 cy=384 r=23.34991126562906 stroke=""none"" stroke-width=""1.5"" fill=""none"" />
    <circle cx=432.96000000000004 cy=337.3001774687419 r=23.34991126562906 stroke=""none"" stroke-width=""1.5"" fill=""none"" />
    <polygon points = ""432.96000000000004,384 439.52821328946516,407.3499112656291 426.3917867105349,407.3499112656291"" stroke=""none"" stroke-width=""3"" fill = ""none"" />
    
    </svg>
    </div>
        ",,,,,,,,,,,,get_response,True,camCLejcQHRkqCBz,,,True,False,False,187.04,4.0,601.7860000000001,46.69982253125812,1.0,1.0,0.0,,,,19
79,html-keyboard-response,79,400190,0.0-79.0,,,,"
    <div style="" display: block;  position: relative;"">
    
    <svg width=1366 height=768>
    <circle cx=620 cy=384 r=16.344937885940343 stroke=""black"" stroke-width=""1"" fill=""black"" />
    <circle cx=479.65982253125816 cy=384 r=23.34991126562906 stroke=""none"" stroke-width=""1.5"" fill=""none"" />
    <circle cx=432.96000000000004 cy=430.6998225312581 r=23.34991126562906 stroke=""none"" stroke-width=""1.5"" fill=""none"" />
    <circle cx=386.2601774687419 cy=384 r=23.34991126562906 stroke=""none"" stroke-width=""1.5"" fill=""none"" />
    <circle cx=432.96000000000004 cy=337.3001774687419 r=23.34991126562906 stroke=""none"" stroke-width=""1.5"" fill=""none"" />
    <polygon points = ""432.96000000000004,384 439.52821328946516,407.3499112656291 426.3917867105349,407.3499112656291"" stroke=""none"" stroke-width=""3"" fill = ""none"" />
    
    </svg>
    </div>
        ",,,,,,,,,,,,,,,,,,,,,,,,,,,,,,19
80,html-keyboard-response,80,400359,0.0-80.0,,,,"
    <div style="" display: block;  position: relative;"">
    <svg width=1366 height=768>
    
    <circle cx=620 cy=384 r=16.344937885940343 stroke=""black"" stroke-width=""1"" fill=""black"" />
    <circle cx=807.04 cy=384 r=23.34991126562906 stroke=""black"" stroke-width=""1.5"" fill=""none"" />
    <circle cx=853.7398225312581 cy=384 r=23.34991126562906 stroke=""black"" stroke-width=""1.5"" fill=""none"" />
    <circle cx=807.04 cy=430.6998225312581 r=23.34991126562906 stroke=""black"" stroke-width=""1.5"" fill=""none"" />
    <circle cx=760.3401774687418 cy=384 r=23.34991126562906 stroke=""black"" stroke-width=""1.5"" fill=""none"" />
    <circle cx=807.04 cy=337.3001774687419 r=23.34991126562906 stroke=""black"" stroke-width=""1.5"" fill=""none"" />
    <polygon points = ""807.04,384 813.6082132894651,360.6500887343709 800.4717867105348,360.6500887343709"" stroke=""white"" stroke-width=""3"" fill = ""white"" />
    
    </svg>
    </div>
        ",,,,,,,,,,,,stimulus,,,,,,,,,,,,,,,,,,19
81,html-keyboard-response,81,401043,0.0-81.0,682.3999999761581,arrowup,,"
    <div style="" display: block;  position: relative;"">
    
    <svg width=1366 height=768>
    <circle cx=620 cy=384 r=16.344937885940343 stroke=""black"" stroke-width=""1"" fill=""black"" />
    <circle cx=853.7398225312581 cy=384 r=23.34991126562906 stroke=""none"" stroke-width=""1.5"" fill=""none"" />
    <circle cx=807.04 cy=430.6998225312581 r=23.34991126562906 stroke=""none"" stroke-width=""1.5"" fill=""none"" />
    <circle cx=760.3401774687418 cy=384 r=23.34991126562906 stroke=""none"" stroke-width=""1.5"" fill=""none"" />
    <circle cx=807.04 cy=337.3001774687419 r=23.34991126562906 stroke=""none"" stroke-width=""1.5"" fill=""none"" />
    <polygon points = ""807.04,384 813.6082132894651,360.6500887343709 800.4717867105348,360.6500887343709"" stroke=""none"" stroke-width=""3"" fill = ""none"" />
    
    </svg>
    </div>
        ",,,,,,,,,,,,get_response,True,camCLejcQHRkqCBz,,,False,True,False,187.04,4.0,601.7860000000001,46.69982253125812,1.0,1.0,0.0,,,,19
82,html-keyboard-response,82,401558,0.0-82.0,,,,"
    <div style="" display: block;  position: relative;"">
    
    <svg width=1366 height=768>
    <circle cx=620 cy=384 r=16.344937885940343 stroke=""black"" stroke-width=""1"" fill=""black"" />
    <circle cx=853.7398225312581 cy=384 r=23.34991126562906 stroke=""none"" stroke-width=""1.5"" fill=""none"" />
    <circle cx=807.04 cy=430.6998225312581 r=23.34991126562906 stroke=""none"" stroke-width=""1.5"" fill=""none"" />
    <circle cx=760.3401774687418 cy=384 r=23.34991126562906 stroke=""none"" stroke-width=""1.5"" fill=""none"" />
    <circle cx=807.04 cy=337.3001774687419 r=23.34991126562906 stroke=""none"" stroke-width=""1.5"" fill=""none"" />
    <polygon points = ""807.04,384 813.6082132894651,360.6500887343709 800.4717867105348,360.6500887343709"" stroke=""none"" stroke-width=""3"" fill = ""none"" />
    
    </svg>
    </div>
        ",,,,,,,,,,,,,,,,,,,,,,,,,,,,,,19
83,html-keyboard-response,83,401711,0.0-83.0,,,,"
    <div style="" display: block;  position: relative;"">
    <svg width=1366 height=768>
    
    <circle cx=620 cy=384 r=16.344937885940343 stroke=""black"" stroke-width=""1"" fill=""black"" />
    <circle cx=432.96000000000004 cy=384 r=23.34991126562906 stroke=""black"" stroke-width=""1.5"" fill=""none"" />
    <circle cx=479.65982253125816 cy=384 r=23.34991126562906 stroke=""black"" stroke-width=""1.5"" fill=""none"" />
    <circle cx=432.96000000000004 cy=430.6998225312581 r=23.34991126562906 stroke=""black"" stroke-width=""1.5"" fill=""none"" />
    <circle cx=386.2601774687419 cy=384 r=23.34991126562906 stroke=""black"" stroke-width=""1.5"" fill=""none"" />
    <circle cx=432.96000000000004 cy=337.3001774687419 r=23.34991126562906 stroke=""black"" stroke-width=""1.5"" fill=""none"" />
    <polygon points = ""432.96000000000004,384 439.52821328946516,407.3499112656291 426.3917867105349,407.3499112656291"" stroke=""white"" stroke-width=""3"" fill = ""white"" />
    
    </svg>
    </div>
        ",,,,,,,,,,,,stimulus,,,,,,,,,,,,,,,,,,19
84,html-keyboard-response,84,402029,0.0-84.0,315.5,arrowdown,,"
    <div style="" display: block;  position: relative;"">
    
    <svg width=1366 height=768>
    <circle cx=620 cy=384 r=16.344937885940343 stroke=""black"" stroke-width=""1"" fill=""black"" />
    <circle cx=479.65982253125816 cy=384 r=23.34991126562906 stroke=""none"" stroke-width=""1.5"" fill=""none"" />
    <circle cx=432.96000000000004 cy=430.6998225312581 r=23.34991126562906 stroke=""none"" stroke-width=""1.5"" fill=""none"" />
    <circle cx=386.2601774687419 cy=384 r=23.34991126562906 stroke=""none"" stroke-width=""1.5"" fill=""none"" />
    <circle cx=432.96000000000004 cy=337.3001774687419 r=23.34991126562906 stroke=""none"" stroke-width=""1.5"" fill=""none"" />
    <polygon points = ""432.96000000000004,384 439.52821328946516,407.3499112656291 426.3917867105349,407.3499112656291"" stroke=""none"" stroke-width=""3"" fill = ""none"" />
    
    </svg>
    </div>
        ",,,,,,,,,,,,get_response,True,camCLejcQHRkqCBz,,,True,False,False,187.04,4.0,601.7860000000001,46.69982253125812,1.0,1.0,0.0,,,,19
85,html-keyboard-response,85,402539,0.0-85.0,,,,"
    <div style="" display: block;  position: relative;"">
    
    <svg width=1366 height=768>
    <circle cx=620 cy=384 r=16.344937885940343 stroke=""black"" stroke-width=""1"" fill=""black"" />
    <circle cx=479.65982253125816 cy=384 r=23.34991126562906 stroke=""none"" stroke-width=""1.5"" fill=""none"" />
    <circle cx=432.96000000000004 cy=430.6998225312581 r=23.34991126562906 stroke=""none"" stroke-width=""1.5"" fill=""none"" />
    <circle cx=386.2601774687419 cy=384 r=23.34991126562906 stroke=""none"" stroke-width=""1.5"" fill=""none"" />
    <circle cx=432.96000000000004 cy=337.3001774687419 r=23.34991126562906 stroke=""none"" stroke-width=""1.5"" fill=""none"" />
    <polygon points = ""432.96000000000004,384 439.52821328946516,407.3499112656291 426.3917867105349,407.3499112656291"" stroke=""none"" stroke-width=""3"" fill = ""none"" />
    
    </svg>
    </div>
        ",,,,,,,,,,,,,,,,,,,,,,,,,,,,,,19
86,html-keyboard-response,86,402692,0.0-86.0,,,,"
    <div style="" display: block;  position: relative;"">
    <svg width=1366 height=768>
    
    <circle cx=620 cy=384 r=16.344937885940343 stroke=""black"" stroke-width=""1"" fill=""black"" />
    <circle cx=807.04 cy=384 r=23.34991126562906 stroke=""black"" stroke-width=""1.5"" fill=""none"" />
    <circle cx=853.7398225312581 cy=384 r=23.34991126562906 stroke=""black"" stroke-width=""1.5"" fill=""none"" />
    <circle cx=807.04 cy=430.6998225312581 r=23.34991126562906 stroke=""black"" stroke-width=""1.5"" fill=""none"" />
    <circle cx=760.3401774687418 cy=384 r=23.34991126562906 stroke=""black"" stroke-width=""1.5"" fill=""none"" />
    <circle cx=807.04 cy=337.3001774687419 r=23.34991126562906 stroke=""black"" stroke-width=""1.5"" fill=""none"" />
    <polygon points = ""807.04,384 813.6082132894651,360.6500887343709 800.4717867105348,360.6500887343709"" stroke=""white"" stroke-width=""3"" fill = ""white"" />
    
    </svg>
    </div>
        ",,,,,,,,,,,,stimulus,,,,,,,,,,,,,,,,,,19
87,html-keyboard-response,87,403090,0.0-87.0,394.10000002384186,arrowup,,"
    <div style="" display: block;  position: relative;"">
    
    <svg width=1366 height=768>
    <circle cx=620 cy=384 r=16.344937885940343 stroke=""black"" stroke-width=""1"" fill=""black"" />
    <circle cx=853.7398225312581 cy=384 r=23.34991126562906 stroke=""none"" stroke-width=""1.5"" fill=""none"" />
    <circle cx=807.04 cy=430.6998225312581 r=23.34991126562906 stroke=""none"" stroke-width=""1.5"" fill=""none"" />
    <circle cx=760.3401774687418 cy=384 r=23.34991126562906 stroke=""none"" stroke-width=""1.5"" fill=""none"" />
    <circle cx=807.04 cy=337.3001774687419 r=23.34991126562906 stroke=""none"" stroke-width=""1.5"" fill=""none"" />
    <polygon points = ""807.04,384 813.6082132894651,360.6500887343709 800.4717867105348,360.6500887343709"" stroke=""none"" stroke-width=""3"" fill = ""none"" />
    
    </svg>
    </div>
        ",,,,,,,,,,,,get_response,True,camCLejcQHRkqCBz,,,False,True,False,187.04,4.0,601.7860000000001,46.69982253125812,1.0,1.0,0.0,,,,19
88,html-keyboard-response,88,403608,0.0-88.0,,,,"
    <div style="" display: block;  position: relative;"">
    
    <svg width=1366 height=768>
    <circle cx=620 cy=384 r=16.344937885940343 stroke=""black"" stroke-width=""1"" fill=""black"" />
    <circle cx=853.7398225312581 cy=384 r=23.34991126562906 stroke=""none"" stroke-width=""1.5"" fill=""none"" />
    <circle cx=807.04 cy=430.6998225312581 r=23.34991126562906 stroke=""none"" stroke-width=""1.5"" fill=""none"" />
    <circle cx=760.3401774687418 cy=384 r=23.34991126562906 stroke=""none"" stroke-width=""1.5"" fill=""none"" />
    <circle cx=807.04 cy=337.3001774687419 r=23.34991126562906 stroke=""none"" stroke-width=""1.5"" fill=""none"" />
    <polygon points = ""807.04,384 813.6082132894651,360.6500887343709 800.4717867105348,360.6500887343709"" stroke=""none"" stroke-width=""3"" fill = ""none"" />
    
    </svg>
    </div>
        ",,,,,,,,,,,,,,,,,,,,,,,,,,,,,,19
89,html-keyboard-response,89,403775,0.0-89.0,,,,"
    <div style="" display: block;  position: relative;"">
    <svg width=1366 height=768>
    
    <circle cx=620 cy=384 r=16.344937885940343 stroke=""black"" stroke-width=""1"" fill=""black"" />
    <circle cx=807.04 cy=384 r=23.34991126562906 stroke=""black"" stroke-width=""1.5"" fill=""none"" />
    <circle cx=853.7398225312581 cy=384 r=23.34991126562906 stroke=""black"" stroke-width=""1.5"" fill=""none"" />
    <circle cx=807.04 cy=430.6998225312581 r=23.34991126562906 stroke=""black"" stroke-width=""1.5"" fill=""none"" />
    <circle cx=760.3401774687418 cy=384 r=23.34991126562906 stroke=""black"" stroke-width=""1.5"" fill=""none"" />
    <circle cx=807.04 cy=337.3001774687419 r=23.34991126562906 stroke=""black"" stroke-width=""1.5"" fill=""none"" />
    <polygon points = ""807.04,384 813.6082132894651,360.6500887343709 800.4717867105348,360.6500887343709"" stroke=""white"" stroke-width=""3"" fill = ""white"" />
    
    </svg>
    </div>
        ",,,,,,,,,,,,stimulus,,,,,,,,,,,,,,,,,,19
90,html-keyboard-response,90,404332,0.0-90.0,553.2999999523163,arrowup,,"
    <div style="" display: block;  position: relative;"">
    
    <svg width=1366 height=768>
    <circle cx=620 cy=384 r=16.344937885940343 stroke=""black"" stroke-width=""1"" fill=""black"" />
    <circle cx=853.7398225312581 cy=384 r=23.34991126562906 stroke=""none"" stroke-width=""1.5"" fill=""none"" />
    <circle cx=807.04 cy=430.6998225312581 r=23.34991126562906 stroke=""none"" stroke-width=""1.5"" fill=""none"" />
    <circle cx=760.3401774687418 cy=384 r=23.34991126562906 stroke=""none"" stroke-width=""1.5"" fill=""none"" />
    <circle cx=807.04 cy=337.3001774687419 r=23.34991126562906 stroke=""none"" stroke-width=""1.5"" fill=""none"" />
    <polygon points = ""807.04,384 813.6082132894651,360.6500887343709 800.4717867105348,360.6500887343709"" stroke=""none"" stroke-width=""3"" fill = ""none"" />
    
    </svg>
    </div>
        ",,,,,,,,,,,,get_response,True,camCLejcQHRkqCBz,,,False,True,False,187.04,4.0,601.7860000000001,46.69982253125812,1.0,1.0,0.0,,,,19
91,html-keyboard-response,91,404851,0.0-91.0,,,,"
    <div style="" display: block;  position: relative;"">
    
    <svg width=1366 height=768>
    <circle cx=620 cy=384 r=16.344937885940343 stroke=""black"" stroke-width=""1"" fill=""black"" />
    <circle cx=853.7398225312581 cy=384 r=23.34991126562906 stroke=""none"" stroke-width=""1.5"" fill=""none"" />
    <circle cx=807.04 cy=430.6998225312581 r=23.34991126562906 stroke=""none"" stroke-width=""1.5"" fill=""none"" />
    <circle cx=760.3401774687418 cy=384 r=23.34991126562906 stroke=""none"" stroke-width=""1.5"" fill=""none"" />
    <circle cx=807.04 cy=337.3001774687419 r=23.34991126562906 stroke=""none"" stroke-width=""1.5"" fill=""none"" />
    <polygon points = ""807.04,384 813.6082132894651,360.6500887343709 800.4717867105348,360.6500887343709"" stroke=""none"" stroke-width=""3"" fill = ""none"" />
    
    </svg>
    </div>
        ",,,,,,,,,,,,,,,,,,,,,,,,,,,,,,19
92,html-keyboard-response,92,405011,0.0-92.0,,,,"
    <div style="" display: block;  position: relative;"">
    <svg width=1366 height=768>
    
    <circle cx=620 cy=384 r=16.344937885940343 stroke=""black"" stroke-width=""1"" fill=""black"" />
    <circle cx=432.96000000000004 cy=384 r=23.34991126562906 stroke=""black"" stroke-width=""1.5"" fill=""none"" />
    <circle cx=479.65982253125816 cy=384 r=23.34991126562906 stroke=""black"" stroke-width=""1.5"" fill=""none"" />
    <circle cx=432.96000000000004 cy=430.6998225312581 r=23.34991126562906 stroke=""black"" stroke-width=""1.5"" fill=""none"" />
    <circle cx=386.2601774687419 cy=384 r=23.34991126562906 stroke=""black"" stroke-width=""1.5"" fill=""none"" />
    <circle cx=432.96000000000004 cy=337.3001774687419 r=23.34991126562906 stroke=""black"" stroke-width=""1.5"" fill=""none"" />
    <polygon points = ""432.96000000000004,384 439.52821328946516,360.6500887343709 426.3917867105349,360.6500887343709"" stroke=""white"" stroke-width=""3"" fill = ""white"" />
    
    </svg>
    </div>
        ",,,,,,,,,,,,stimulus,,,,,,,,,,,,,,,,,,19
93,html-keyboard-response,93,405841,0.0-93.0,827.8999999761581,arrowup,,"
    <div style="" display: block;  position: relative;"">
    
    <svg width=1366 height=768>
    <circle cx=620 cy=384 r=16.344937885940343 stroke=""black"" stroke-width=""1"" fill=""black"" />
    <circle cx=479.65982253125816 cy=384 r=23.34991126562906 stroke=""none"" stroke-width=""1.5"" fill=""none"" />
    <circle cx=432.96000000000004 cy=430.6998225312581 r=23.34991126562906 stroke=""none"" stroke-width=""1.5"" fill=""none"" />
    <circle cx=386.2601774687419 cy=384 r=23.34991126562906 stroke=""none"" stroke-width=""1.5"" fill=""none"" />
    <circle cx=432.96000000000004 cy=337.3001774687419 r=23.34991126562906 stroke=""none"" stroke-width=""1.5"" fill=""none"" />
    <polygon points = ""432.96000000000004,384 439.52821328946516,360.6500887343709 426.3917867105349,360.6500887343709"" stroke=""none"" stroke-width=""3"" fill = ""none"" />
    
    </svg>
    </div>
        ",,,,,,,,,,,,get_response,True,camCLejcQHRkqCBz,,,True,True,False,187.04,4.0,601.7860000000001,46.69982253125812,1.0,1.0,0.0,,,,19
94,html-keyboard-response,94,406357,0.0-94.0,,,,"
    <div style="" display: block;  position: relative;"">
    
    <svg width=1366 height=768>
    <circle cx=620 cy=384 r=16.344937885940343 stroke=""black"" stroke-width=""1"" fill=""black"" />
    <circle cx=479.65982253125816 cy=384 r=23.34991126562906 stroke=""none"" stroke-width=""1.5"" fill=""none"" />
    <circle cx=432.96000000000004 cy=430.6998225312581 r=23.34991126562906 stroke=""none"" stroke-width=""1.5"" fill=""none"" />
    <circle cx=386.2601774687419 cy=384 r=23.34991126562906 stroke=""none"" stroke-width=""1.5"" fill=""none"" />
    <circle cx=432.96000000000004 cy=337.3001774687419 r=23.34991126562906 stroke=""none"" stroke-width=""1.5"" fill=""none"" />
    <polygon points = ""432.96000000000004,384 439.52821328946516,360.6500887343709 426.3917867105349,360.6500887343709"" stroke=""none"" stroke-width=""3"" fill = ""none"" />
    
    </svg>
    </div>
        ",,,,,,,,,,,,,,,,,,,,,,,,,,,,,,19
95,html-keyboard-response,95,406510,0.0-95.0,,,,"
    <div style="" display: block;  position: relative;"">
    <svg width=1366 height=768>
    
    <circle cx=620 cy=384 r=16.344937885940343 stroke=""black"" stroke-width=""1"" fill=""black"" />
    <circle cx=807.04 cy=384 r=23.34991126562906 stroke=""black"" stroke-width=""1.5"" fill=""none"" />
    <circle cx=853.7398225312581 cy=384 r=23.34991126562906 stroke=""black"" stroke-width=""1.5"" fill=""none"" />
    <circle cx=807.04 cy=430.6998225312581 r=23.34991126562906 stroke=""black"" stroke-width=""1.5"" fill=""none"" />
    <circle cx=760.3401774687418 cy=384 r=23.34991126562906 stroke=""black"" stroke-width=""1.5"" fill=""none"" />
    <circle cx=807.04 cy=337.3001774687419 r=23.34991126562906 stroke=""black"" stroke-width=""1.5"" fill=""none"" />
    <polygon points = ""807.04,384 813.6082132894651,360.6500887343709 800.4717867105348,360.6500887343709"" stroke=""white"" stroke-width=""3"" fill = ""white"" />
    
    </svg>
    </div>
        ",,,,,,,,,,,,stimulus,,,,,,,,,,,,,,,,,,19
96,html-keyboard-response,96,407666,0.0-96.0,1152.2000000476835,arrowdown,,"
    <div style="" display: block;  position: relative;"">
    
    <svg width=1366 height=768>
    <circle cx=620 cy=384 r=16.344937885940343 stroke=""black"" stroke-width=""1"" fill=""black"" />
    <circle cx=853.7398225312581 cy=384 r=23.34991126562906 stroke=""none"" stroke-width=""1.5"" fill=""none"" />
    <circle cx=807.04 cy=430.6998225312581 r=23.34991126562906 stroke=""none"" stroke-width=""1.5"" fill=""none"" />
    <circle cx=760.3401774687418 cy=384 r=23.34991126562906 stroke=""none"" stroke-width=""1.5"" fill=""none"" />
    <circle cx=807.04 cy=337.3001774687419 r=23.34991126562906 stroke=""none"" stroke-width=""1.5"" fill=""none"" />
    <polygon points = ""807.04,384 813.6082132894651,360.6500887343709 800.4717867105348,360.6500887343709"" stroke=""none"" stroke-width=""3"" fill = ""none"" />
    
    </svg>
    </div>
        ",,,,,,,,,,,,get_response,False,camCLejcQHRkqCBz,,,False,True,False,187.04,4.0,601.7860000000001,46.69982253125812,1.0,1.0,0.0,,,,19
97,html-keyboard-response,97,408174,0.0-97.0,,,,"
    <div style="" display: block;  position: relative;"">
    
    <svg width=1366 height=768>
    <circle cx=620 cy=384 r=16.344937885940343 stroke=""black"" stroke-width=""1"" fill=""black"" />
    <circle cx=853.7398225312581 cy=384 r=23.34991126562906 stroke=""none"" stroke-width=""1.5"" fill=""none"" />
    <circle cx=807.04 cy=430.6998225312581 r=23.34991126562906 stroke=""none"" stroke-width=""1.5"" fill=""none"" />
    <circle cx=760.3401774687418 cy=384 r=23.34991126562906 stroke=""none"" stroke-width=""1.5"" fill=""none"" />
    <circle cx=807.04 cy=337.3001774687419 r=23.34991126562906 stroke=""none"" stroke-width=""1.5"" fill=""none"" />
    <polygon points = ""807.04,384 813.6082132894651,360.6500887343709 800.4717867105348,360.6500887343709"" stroke=""none"" stroke-width=""3"" fill = ""none"" />
    
    </svg>
    </div>
        ",,,,,,,,,,,,,,,,,,,,,,,,,,,,,,19
98,html-keyboard-response,98,408343,0.0-98.0,,,,"
    <div style="" display: block;  position: relative;"">
    <svg width=1366 height=768>
    
    <circle cx=620 cy=384 r=16.344937885940343 stroke=""black"" stroke-width=""1"" fill=""black"" />
    <circle cx=432.96000000000004 cy=384 r=23.34991126562906 stroke=""black"" stroke-width=""1.5"" fill=""none"" />
    <circle cx=493.6697692906356 cy=384 r=23.34991126562906 stroke=""black"" stroke-width=""1.5"" fill=""none"" />
    <circle cx=432.96000000000004 cy=444.70976929063556 r=23.34991126562906 stroke=""black"" stroke-width=""1.5"" fill=""none"" />
    <circle cx=372.2502307093645 cy=384 r=23.34991126562906 stroke=""black"" stroke-width=""1.5"" fill=""none"" />
    <circle cx=432.96000000000004 cy=323.29023070936444 r=23.34991126562906 stroke=""black"" stroke-width=""1.5"" fill=""none"" />
    <polygon points = ""432.96000000000004,384 439.52821328946516,360.6500887343709 426.3917867105349,360.6500887343709"" stroke=""white"" stroke-width=""3"" fill = ""white"" />
    
    </svg>
    </div>
        ",,,,,,,,,,,,stimulus,,,,,,,,,,,,,,,,,,19
99,html-keyboard-response,99,408769,0.0-99.0,422.7000000476837,arrowup,,"
    <div style="" display: block;  position: relative;"">
    
    <svg width=1366 height=768>
    <circle cx=620 cy=384 r=16.344937885940343 stroke=""black"" stroke-width=""1"" fill=""black"" />
    <circle cx=493.6697692906356 cy=384 r=23.34991126562906 stroke=""none"" stroke-width=""1.5"" fill=""none"" />
    <circle cx=432.96000000000004 cy=444.70976929063556 r=23.34991126562906 stroke=""none"" stroke-width=""1.5"" fill=""none"" />
    <circle cx=372.2502307093645 cy=384 r=23.34991126562906 stroke=""none"" stroke-width=""1.5"" fill=""none"" />
    <circle cx=432.96000000000004 cy=323.29023070936444 r=23.34991126562906 stroke=""none"" stroke-width=""1.5"" fill=""none"" />
    <polygon points = ""432.96000000000004,384 439.52821328946516,360.6500887343709 426.3917867105349,360.6500887343709"" stroke=""none"" stroke-width=""3"" fill = ""none"" />
    
    </svg>
    </div>
        ",,,,,,,,,,,,get_response,True,camCLejcQHRkqCBz,,,True,True,False,187.04,4.0,601.7860000000001,60.70976929063556,1.3,1.0,0.92,,,,19
100,html-keyboard-response,100,417399,0.0-100.0,8627.899999976158,arrowdown,,"<div id=""continue""> 
<h2 class=""bolded-blue"">Great Job! You have completed half of the study!</h2>
<p>Before you start the session 2, let&#39;s measure your viewing distance again using the virtual chinrest.</p>
<p>Please press the <b>down</b> arrow key to continue. </p>
</div>",,,,,,,,,,,,,,,,,,,,,,,,,,,,,,19
101,virtual-chinrest,101,484680,0.0-101.0,67278.20000004768,,,,,,85.6,53.98,380.0,4.44,603.99,8.106647671160953,46.875109837551406,29.14126504948911,16.38396160908319,,,,,,,,,,,,,,,,,,,19
102,html-keyboard-response,102,500093,0.0-102.0,15408.399999976158,arrowdown,,"<div><h2 class=""bolded-blue"">Alright, let&#39;s do the peripheral vision test one more time!</h2>
<p>Please do not move around and keep your eye on the <b>black dot</b> all the time. Click <b>up</b> or <b>down</b> to indicate the opening
    of the center circle. The test is difficult for everyone, so if you are not sure, just take your best guess! </p> 
    <p>Now, press the <b>down</b> arrow key to start the task when you are ready!</p></div>",,,,,,,,,,,,,,,,,,,,,,,,,,,,,,19
103,html-keyboard-response,103,500602,0.0-103.0,,,,"
    <div style="" display: block;  position: relative;"">
    
    <svg width=1366 height=768>
    <circle cx=620 cy=384 r=16.58441037577137 stroke=""black"" stroke-width=""1"" fill=""black"" />
    <circle cx=490.9297692906356 cy=384 r=23.692014822530528 stroke=""none"" stroke-width=""1.5"" fill=""none"" />
    <circle cx=430.22 cy=444.70976929063556 r=23.692014822530528 stroke=""none"" stroke-width=""1.5"" fill=""none"" />
    <circle cx=369.51023070936446 cy=384 r=23.692014822530528 stroke=""none"" stroke-width=""1.5"" fill=""none"" />
