"trial_type","trial_index","time_elapsed","internal_node_id","rt","response","success","stimulus","start_time","start_time_unix","item_width_mm","item_height_mm","item_width_px","px2mm","view_dist_mm","item_width_deg","px2deg","win_width_deg","win_height_deg","trialType","correct","participantID","criticalSpacing","criticalSpacing_deg","isLeft","isUp","isEccen4","eccentricity","eccentricity_deg","viewingDistanceMean","critical_spacing","critical_spacing_deg","crowding_session","correctRate","viewDistance_1","viewDistance_2","viewDistance_3"
"pavlovia","0","34","0.0-0.0","","","","","","","","","","","","","","","","","","","","","","","","","","","","","","","","",""
"survey-text","1","21752","0.0-1.0","21709.299999952316","{""Q0"":""""}","","","","","","","","","","","","","","","","","","","","","","","","","","","","","","",""
"fullscreen","2","31624","0.0-2.0","","","true","","","","","","","","","","","","","","","","","","","","","","","","","","","","","",""
"html-keyboard-response","3","35646","0.0-3.0","4021.0999999046326","dead","","<h1>Consent Form</h1>
       <p>By answering the following questions, you are participating in a study being performed by cognitive scientists in the Stanford Department of Psychology. If you have questions about this research, please contact us at stanfordpsych251@gmail.com. You must be at least 18 years old to participate. Your participation in this research is voluntary. You may decline to answer any or all of the following questions. You may decline further participation by closing the window, at any time, without adverse consequences. Your anonymity is assured; the researchers who have requested your participation will not receive any personal information about you.</p>
       <p>Press <b>any key</b> to start the experiment!</p>","","","","","","","","","","","","","","","","","","","","","","","","","","","","",""
"html-keyboard-response","4","39882","0.0-4.0","4235.5","enter","","<h1>Welcome to the Visual Crowding Experiment!</h1>
       <p>This test will take <b>10-12</b> minutes to complete.</p>
       <p>Press any key to start the experiment!</p>","30/11/2021 23:55:36","1638338136240","","","","","","","","","","","","","","","","","","","","","","","","","","",""
"html-keyboard-response","5","48770","0.0-5.0","8886.799999952316","arrowdown","","<div> 
<p> Before you begin this study, let&#39;s quickly test how far away you are sitting. You might know that vision tests at a doctor&#39;s practice often involve chinrests, the doctor basically asks you to sit away from a screen in a specific distance. We do this here with a <b>virtual chinrest</b>. </p>
<p> Please press the <b>down</b> arrow to continue.
</p>
</div>","","","","","","","","","","","","","","","","","","","","","","","","","","","","",""
"virtual-chinrest","6","159999","0.0-6.0","111226.40000009537","","","","","","85.6","53.98","352","4.11","540.89","9.048643290817875","38.900859353931274","32.90415742115591","18.508588549400198","","","","","","","","","","","","","","","","","",""
"html-keyboard-response","7","181187","0.0-7.0","21184.700000047684","arrowdown","","
	<h2 class=""bolded-blue"">Now, you will take a peripheral vision test!</h2>
<p> 
	<b>
		<font size=""140%"">1. </font>
	</b>
	<em><b>Please use both eyes for the following task.</b></em> First, you will see a screen (like the one in the image below) showing a <b>black dot</b> in the middle of the screen, with a group of circles displayed on either the <span class=""bolded-blue"">left</span> or <span class=""bolded-blue"">right</span> of the black dot for 150 ms. <span class=""bolded-blue"">Please make sure to focus on the black dot all the time!</span>

	<div>
		<img src=""example.png"" alt=""example"" style=""border: 2px solid black"" width=""600""/> 
	</div>
	
	<b>
		<font size=""140%"">2. </font>
	</b>
	Your task is to identify whether the opening of the <b class=""bolded-blue"">center circle</b> is upward by pressing UP or downward by pressing DOWN on your keyboard. The opening of the circle will only be upward or downward, not towards left or right.

	<div>
		<img src=""arrow_keys+.png"" alt=""arrows"" style=""border: 2px solid black"" width=""600""/>
	</div>
	<br>

<p>Please press the <b>down</b> arrow key to start the <span class=""bolded-blue"">practice task</span> (this first practice task will not count toward your final results).</p>
</p>
","","","","","","","","","","","","","","","","","","","","","","","","","","","","",""
"html-keyboard-response","8","181696","0.0-8.0","null","null","","
    <div style="" display: block;  position: relative;"">
    
    <svg width=1280 height=720>
    <circle cx=577 cy=360 r=13.683350926623984 stroke=""black"" stroke-width=""1"" fill=""black"" />
    <circle cx=NaN cy=360 r=19.547644180891407 stroke=""none"" stroke-width=""1.5"" fill=""none"" />
    <circle cx=420.41999999999996 cy=NaN r=19.547644180891407 stroke=""none"" stroke-width=""1.5"" fill=""none"" />
    <circle cx=NaN cy=360 r=19.547644180891407 stroke=""none"" stroke-width=""1.5"" fill=""none"" />
    <circle cx=420.41999999999996 cy=NaN r=19.547644180891407 stroke=""none"" stroke-width=""1.5"" fill=""none"" />
    <polygon points = ""420.41999999999996,360 425.9186545698638,379.5476441808914 414.9213454301361,379.5476441808914"" stroke=""none"" stroke-width=""3"" fill = ""none"" />
    
    </svg>
    </div>
        ","","","","","","","","","","","","","","","","","","","","","","","","","","","","",""
"html-keyboard-response","9","181851","0.0-9.0","null","null","","
    <div style="" display: block;  position: relative;"">
    <svg width=1280 height=720>
    
    <circle cx=577 cy=360 r=13.683350926623984 stroke=""black"" stroke-width=""1"" fill=""black"" />
    <circle cx=733.58 cy=360 r=19.547644180891407 stroke=""black"" stroke-width=""1.5"" fill=""none"" />
    <circle cx=835.3570000000001 cy=360 r=19.547644180891407 stroke=""black"" stroke-width=""1.5"" fill=""none"" />
    <circle cx=733.58 cy=461.77700000000004 r=19.547644180891407 stroke=""black"" stroke-width=""1.5"" fill=""none"" />
    <circle cx=631.803 cy=360 r=19.547644180891407 stroke=""black"" stroke-width=""1.5"" fill=""none"" />
    <circle cx=733.58 cy=258.22299999999996 r=19.547644180891407 stroke=""black"" stroke-width=""1.5"" fill=""none"" />
    <polygon points = ""733.58,360 739.0786545698639,340.4523558191086 728.0813454301361,340.4523558191086"" stroke=""white"" stroke-width=""3"" fill = ""white"" />
    
    </svg>
    </div>
        ","","","","","","","","","","","","stimulus","","","","","","","","","","","","","","","","",""
"html-keyboard-response","10","183611","0.0-10.0","1758.2000000476837","arrowup","","
    <div style="" display: block;  position: relative;"">
    
    <svg width=1280 height=720>
    <circle cx=577 cy=360 r=13.683350926623984 stroke=""black"" stroke-width=""1"" fill=""black"" />
    <circle cx=835.3570000000001 cy=360 r=19.547644180891407 stroke=""none"" stroke-width=""1.5"" fill=""none"" />
    <circle cx=733.58 cy=461.77700000000004 r=19.547644180891407 stroke=""none"" stroke-width=""1.5"" fill=""none"" />
    <circle cx=631.803 cy=360 r=19.547644180891407 stroke=""none"" stroke-width=""1.5"" fill=""none"" />
    <circle cx=733.58 cy=258.22299999999996 r=19.547644180891407 stroke=""none"" stroke-width=""1.5"" fill=""none"" />
    <polygon points = ""733.58,360 739.0786545698639,340.4523558191086 728.0813454301361,340.4523558191086"" stroke=""none"" stroke-width=""3"" fill = ""none"" />
    
    </svg>
    </div>
        ","","","","","","","","","","","","practice_get_response","true","R087yRoOIoPpLFOM","101.77700000000002","2.6","false","true","true","156.58","4","546.694","","","","","","",""
"html-keyboard-response","11","184115","0.0-11.0","null","null","","
    <div style="" display: block;  position: relative;"">
    
    <svg width=1280 height=720>
    <circle cx=577 cy=360 r=13.683350926623984 stroke=""black"" stroke-width=""1"" fill=""black"" />
    <circle cx=835.3570000000001 cy=360 r=19.547644180891407 stroke=""none"" stroke-width=""1.5"" fill=""none"" />
    <circle cx=733.58 cy=461.77700000000004 r=19.547644180891407 stroke=""none"" stroke-width=""1.5"" fill=""none"" />
    <circle cx=631.803 cy=360 r=19.547644180891407 stroke=""none"" stroke-width=""1.5"" fill=""none"" />
    <circle cx=733.58 cy=258.22299999999996 r=19.547644180891407 stroke=""none"" stroke-width=""1.5"" fill=""none"" />
    <polygon points = ""733.58,360 739.0786545698639,340.4523558191086 728.0813454301361,340.4523558191086"" stroke=""none"" stroke-width=""3"" fill = ""none"" />
    
    </svg>
    </div>
        ","","","","","","","","","","","","","","","","","","","","","","","","","","","","",""
"html-keyboard-response","12","184269","0.0-12.0","null","null","","
    <div style="" display: block;  position: relative;"">
    <svg width=1280 height=720>
    
    <circle cx=577 cy=360 r=13.683350926623984 stroke=""black"" stroke-width=""1"" fill=""black"" />
    <circle cx=420.41999999999996 cy=360 r=19.547644180891407 stroke=""black"" stroke-width=""1.5"" fill=""none"" />
    <circle cx=522.197 cy=360 r=19.547644180891407 stroke=""black"" stroke-width=""1.5"" fill=""none"" />
    <circle cx=420.41999999999996 cy=461.77700000000004 r=19.547644180891407 stroke=""black"" stroke-width=""1.5"" fill=""none"" />
    <circle cx=318.6429999999999 cy=360 r=19.547644180891407 stroke=""black"" stroke-width=""1.5"" fill=""none"" />
    <circle cx=420.41999999999996 cy=258.22299999999996 r=19.547644180891407 stroke=""black"" stroke-width=""1.5"" fill=""none"" />
    <polygon points = ""420.41999999999996,360 425.9186545698638,340.4523558191086 414.9213454301361,340.4523558191086"" stroke=""white"" stroke-width=""3"" fill = ""white"" />
    
    </svg>
    </div>
        ","","","","","","","","","","","","stimulus","","","","","","","","","","","","","","","","",""
"html-keyboard-response","13","186749","0.0-13.0","2478.2999999523163","arrowup","","
    <div style="" display: block;  position: relative;"">
    
    <svg width=1280 height=720>
    <circle cx=577 cy=360 r=13.683350926623984 stroke=""black"" stroke-width=""1"" fill=""black"" />
    <circle cx=522.197 cy=360 r=19.547644180891407 stroke=""none"" stroke-width=""1.5"" fill=""none"" />
    <circle cx=420.41999999999996 cy=461.77700000000004 r=19.547644180891407 stroke=""none"" stroke-width=""1.5"" fill=""none"" />
    <circle cx=318.6429999999999 cy=360 r=19.547644180891407 stroke=""none"" stroke-width=""1.5"" fill=""none"" />
    <circle cx=420.41999999999996 cy=258.22299999999996 r=19.547644180891407 stroke=""none"" stroke-width=""1.5"" fill=""none"" />
    <polygon points = ""420.41999999999996,360 425.9186545698638,340.4523558191086 414.9213454301361,340.4523558191086"" stroke=""none"" stroke-width=""3"" fill = ""none"" />
    
    </svg>
    </div>
        ","","","","","","","","","","","","practice_get_response","true","R087yRoOIoPpLFOM","101.77700000000002","2.6","true","true","true","156.58","4","546.694","","","","","","",""
"html-keyboard-response","14","187256","0.0-14.0","null","null","","
    <div style="" display: block;  position: relative;"">
    
    <svg width=1280 height=720>
    <circle cx=577 cy=360 r=13.683350926623984 stroke=""black"" stroke-width=""1"" fill=""black"" />
    <circle cx=522.197 cy=360 r=19.547644180891407 stroke=""none"" stroke-width=""1.5"" fill=""none"" />
    <circle cx=420.41999999999996 cy=461.77700000000004 r=19.547644180891407 stroke=""none"" stroke-width=""1.5"" fill=""none"" />
    <circle cx=318.6429999999999 cy=360 r=19.547644180891407 stroke=""none"" stroke-width=""1.5"" fill=""none"" />
    <circle cx=420.41999999999996 cy=258.22299999999996 r=19.547644180891407 stroke=""none"" stroke-width=""1.5"" fill=""none"" />
    <polygon points = ""420.41999999999996,360 425.9186545698638,340.4523558191086 414.9213454301361,340.4523558191086"" stroke=""none"" stroke-width=""3"" fill = ""none"" />
    
    </svg>
    </div>
        ","","","","","","","","","","","","","","","","","","","","","","","","","","","","",""
"html-keyboard-response","15","187412","0.0-15.0","null","null","","
    <div style="" display: block;  position: relative;"">
    <svg width=1280 height=720>
    
    <circle cx=577 cy=360 r=13.683350926623984 stroke=""black"" stroke-width=""1"" fill=""black"" />
    <circle cx=733.58 cy=360 r=19.547644180891407 stroke=""black"" stroke-width=""1.5"" fill=""none"" />
    <circle cx=835.3570000000001 cy=360 r=19.547644180891407 stroke=""black"" stroke-width=""1.5"" fill=""none"" />
    <circle cx=733.58 cy=461.77700000000004 r=19.547644180891407 stroke=""black"" stroke-width=""1.5"" fill=""none"" />
    <circle cx=631.803 cy=360 r=19.547644180891407 stroke=""black"" stroke-width=""1.5"" fill=""none"" />
    <circle cx=733.58 cy=258.22299999999996 r=19.547644180891407 stroke=""black"" stroke-width=""1.5"" fill=""none"" />
    <polygon points = ""733.58,360 739.0786545698639,340.4523558191086 728.0813454301361,340.4523558191086"" stroke=""white"" stroke-width=""3"" fill = ""white"" />
    
    </svg>
    </div>
        ","","","","","","","","","","","","stimulus","","","","","","","","","","","","","","","","",""
"html-keyboard-response","16","187673","0.0-16.0","260.2000000476837","arrowdown","","
    <div style="" display: block;  position: relative;"">
    
    <svg width=1280 height=720>
    <circle cx=577 cy=360 r=13.683350926623984 stroke=""black"" stroke-width=""1"" fill=""black"" />
    <circle cx=835.3570000000001 cy=360 r=19.547644180891407 stroke=""none"" stroke-width=""1.5"" fill=""none"" />
    <circle cx=733.58 cy=461.77700000000004 r=19.547644180891407 stroke=""none"" stroke-width=""1.5"" fill=""none"" />
    <circle cx=631.803 cy=360 r=19.547644180891407 stroke=""none"" stroke-width=""1.5"" fill=""none"" />
    <circle cx=733.58 cy=258.22299999999996 r=19.547644180891407 stroke=""none"" stroke-width=""1.5"" fill=""none"" />
    <polygon points = ""733.58,360 739.0786545698639,340.4523558191086 728.0813454301361,340.4523558191086"" stroke=""none"" stroke-width=""3"" fill = ""none"" />
    
    </svg>
    </div>
        ","","","","","","","","","","","","practice_get_response","false","R087yRoOIoPpLFOM","101.77700000000002","2.6","false","true","true","156.58","4","546.694","","","","","","",""
"html-keyboard-response","17","188181","0.0-17.0","null","null","","
    <div style="" display: block;  position: relative;"">
    
    <svg width=1280 height=720>
    <circle cx=577 cy=360 r=13.683350926623984 stroke=""black"" stroke-width=""1"" fill=""black"" />
    <circle cx=835.3570000000001 cy=360 r=19.547644180891407 stroke=""none"" stroke-width=""1.5"" fill=""none"" />
    <circle cx=733.58 cy=461.77700000000004 r=19.547644180891407 stroke=""none"" stroke-width=""1.5"" fill=""none"" />
    <circle cx=631.803 cy=360 r=19.547644180891407 stroke=""none"" stroke-width=""1.5"" fill=""none"" />
    <circle cx=733.58 cy=258.22299999999996 r=19.547644180891407 stroke=""none"" stroke-width=""1.5"" fill=""none"" />
    <polygon points = ""733.58,360 739.0786545698639,340.4523558191086 728.0813454301361,340.4523558191086"" stroke=""none"" stroke-width=""3"" fill = ""none"" />
    
    </svg>
    </div>
        ","","","","","","","","","","","","","","","","","","","","","","","","","","","","",""
"html-keyboard-response","18","188337","0.0-18.0","null","null","","
    <div style="" display: block;  position: relative;"">
    <svg width=1280 height=720>
    
    <circle cx=577 cy=360 r=13.683350926623984 stroke=""black"" stroke-width=""1"" fill=""black"" />
    <circle cx=420.41999999999996 cy=360 r=19.547644180891407 stroke=""black"" stroke-width=""1.5"" fill=""none"" />
    <circle cx=537.9047116382171 cy=360 r=19.547644180891407 stroke=""black"" stroke-width=""1.5"" fill=""none"" />
    <circle cx=420.41999999999996 cy=477.48471163821716 r=19.547644180891407 stroke=""black"" stroke-width=""1.5"" fill=""none"" />
    <circle cx=302.9352883617828 cy=360 r=19.547644180891407 stroke=""black"" stroke-width=""1.5"" fill=""none"" />
    <circle cx=420.41999999999996 cy=242.5152883617828 r=19.547644180891407 stroke=""black"" stroke-width=""1.5"" fill=""none"" />
    <polygon points = ""420.41999999999996,360 425.9186545698638,379.5476441808914 414.9213454301361,379.5476441808914"" stroke=""white"" stroke-width=""3"" fill = ""white"" />
    
    </svg>
    </div>
        ","","","","","","","","","","","","stimulus","","","","","","","","","","","","","","","","",""
"html-keyboard-response","19","188561","0.0-19.0","222.69999992847443","arrowup","","
    <div style="" display: block;  position: relative;"">
    
    <svg width=1280 height=720>
    <circle cx=577 cy=360 r=13.683350926623984 stroke=""black"" stroke-width=""1"" fill=""black"" />
    <circle cx=537.9047116382171 cy=360 r=19.547644180891407 stroke=""none"" stroke-width=""1.5"" fill=""none"" />
    <circle cx=420.41999999999996 cy=477.48471163821716 r=19.547644180891407 stroke=""none"" stroke-width=""1.5"" fill=""none"" />
    <circle cx=302.9352883617828 cy=360 r=19.547644180891407 stroke=""none"" stroke-width=""1.5"" fill=""none"" />
    <circle cx=420.41999999999996 cy=242.5152883617828 r=19.547644180891407 stroke=""none"" stroke-width=""1.5"" fill=""none"" />
    <polygon points = ""420.41999999999996,360 425.9186545698638,379.5476441808914 414.9213454301361,379.5476441808914"" stroke=""none"" stroke-width=""3"" fill = ""none"" />
    
    </svg>
    </div>
        ","","","","","","","","","","","","practice_get_response","false","R087yRoOIoPpLFOM","117.48471163821719","3","true","false","true","156.58","4","546.694","","","","","","",""
"html-keyboard-response","20","189064","0.0-20.0","null","null","","
    <div style="" display: block;  position: relative;"">
    
    <svg width=1280 height=720>
    <circle cx=577 cy=360 r=13.683350926623984 stroke=""black"" stroke-width=""1"" fill=""black"" />
    <circle cx=537.9047116382171 cy=360 r=19.547644180891407 stroke=""none"" stroke-width=""1.5"" fill=""none"" />
    <circle cx=420.41999999999996 cy=477.48471163821716 r=19.547644180891407 stroke=""none"" stroke-width=""1.5"" fill=""none"" />
    <circle cx=302.9352883617828 cy=360 r=19.547644180891407 stroke=""none"" stroke-width=""1.5"" fill=""none"" />
    <circle cx=420.41999999999996 cy=242.5152883617828 r=19.547644180891407 stroke=""none"" stroke-width=""1.5"" fill=""none"" />
    <polygon points = ""420.41999999999996,360 425.9186545698638,379.5476441808914 414.9213454301361,379.5476441808914"" stroke=""none"" stroke-width=""3"" fill = ""none"" />
    
    </svg>
    </div>
        ","","","","","","","","","","","","","","","","","","","","","","","","","","","","",""
"html-keyboard-response","21","189218","0.0-21.0","null","null","","
    <div style="" display: block;  position: relative;"">
    <svg width=1280 height=720>
    
    <circle cx=577 cy=360 r=13.683350926623984 stroke=""black"" stroke-width=""1"" fill=""black"" />
    <circle cx=420.41999999999996 cy=360 r=19.547644180891407 stroke=""black"" stroke-width=""1.5"" fill=""none"" />
    <circle cx=537.9047116382171 cy=360 r=19.547644180891407 stroke=""black"" stroke-width=""1.5"" fill=""none"" />
    <circle cx=420.41999999999996 cy=477.48471163821716 r=19.547644180891407 stroke=""black"" stroke-width=""1.5"" fill=""none"" />
    <circle cx=302.9352883617828 cy=360 r=19.547644180891407 stroke=""black"" stroke-width=""1.5"" fill=""none"" />
    <circle cx=420.41999999999996 cy=242.5152883617828 r=19.547644180891407 stroke=""black"" stroke-width=""1.5"" fill=""none"" />
    <polygon points = ""420.41999999999996,360 425.9186545698638,340.4523558191086 414.9213454301361,340.4523558191086"" stroke=""white"" stroke-width=""3"" fill = ""white"" />
    
    </svg>
    </div>
        ","","","","","","","","","","","","stimulus","","","","","","","","","","","","","","","","",""
"html-keyboard-response","22","189670","0.0-22.0","451.39999997615814","arrowup","","
    <div style="" display: block;  position: relative;"">
    
    <svg width=1280 height=720>
    <circle cx=577 cy=360 r=13.683350926623984 stroke=""black"" stroke-width=""1"" fill=""black"" />
    <circle cx=537.9047116382171 cy=360 r=19.547644180891407 stroke=""none"" stroke-width=""1.5"" fill=""none"" />
    <circle cx=420.41999999999996 cy=477.48471163821716 r=19.547644180891407 stroke=""none"" stroke-width=""1.5"" fill=""none"" />
    <circle cx=302.9352883617828 cy=360 r=19.547644180891407 stroke=""none"" stroke-width=""1.5"" fill=""none"" />
    <circle cx=420.41999999999996 cy=242.5152883617828 r=19.547644180891407 stroke=""none"" stroke-width=""1.5"" fill=""none"" />
    <polygon points = ""420.41999999999996,360 425.9186545698638,340.4523558191086 414.9213454301361,340.4523558191086"" stroke=""none"" stroke-width=""3"" fill = ""none"" />
    
    </svg>
    </div>
        ","","","","","","","","","","","","practice_get_response","true","R087yRoOIoPpLFOM","117.48471163821719","3","true","true","true","156.58","4","546.694","","","","","","",""
"html-keyboard-response","23","194965","0.0-23.0","5293.199999928474","arrowdown","","<div> 
<h2 class=""bolded-blue"">Well done!</h2>
<p> Now that you have the hang of it, we&#39;ll start the study. This session has 25 trials and takes about 2 minute to complete. </p> 
<p>If you are ready for the real deal, please press the <b>down</b> arrow to continue.
</p>
</div>","","","","","","","","","","","","","","","","","","","","","","","","","","","","",""
"html-keyboard-response","24","201470","0.0-24.0","6504.200000047684","arrowdown","","<div id=""continue""> 
<p>Again, please keep the <b>full screen</b> mode for the best experience.</p>
<p>Please do not move around and keep your eye on the black dot. Click <b>up</b> or <b>down</b> key on your keyboard to indicate the opening of the center circle. Make your best guess!</p>
<p>Please press the <b>down</b> arrow key to start the session 1. </p>
</div>","","","","","","","","","","","","","","","","","","","","","","","","","","","","",""
"html-keyboard-response","25","201979","0.0-25.0","null","null","","
    <div style="" display: block;  position: relative;"">
    
    <svg width=1280 height=720>
    <circle cx=577 cy=360 r=13.683350926623984 stroke=""black"" stroke-width=""1"" fill=""black"" />
    <circle cx=537.9047116382171 cy=360 r=19.547644180891407 stroke=""none"" stroke-width=""1.5"" fill=""none"" />
    <circle cx=420.41999999999996 cy=477.48471163821716 r=19.547644180891407 stroke=""none"" stroke-width=""1.5"" fill=""none"" />
    <circle cx=302.9352883617828 cy=360 r=19.547644180891407 stroke=""none"" stroke-width=""1.5"" fill=""none"" />
    <circle cx=420.41999999999996 cy=242.5152883617828 r=19.547644180891407 stroke=""none"" stroke-width=""1.5"" fill=""none"" />
    <polygon points = ""420.41999999999996,360 425.9186545698638,379.5476441808914 414.9213454301361,379.5476441808914"" stroke=""none"" stroke-width=""3"" fill = ""none"" />
    
    </svg>
    </div>
        ","","","","","","","","","","","","","","","","","","","","","","","","","","","","",""
"html-keyboard-response","26","202133","0.0-26.0","null","null","","
    <div style="" display: block;  position: relative;"">
    <svg width=1280 height=720>
    
    <circle cx=577 cy=360 r=13.683350926623984 stroke=""black"" stroke-width=""1"" fill=""black"" />
    <circle cx=420.41999999999996 cy=360 r=19.547644180891407 stroke=""black"" stroke-width=""1.5"" fill=""none"" />
    <circle cx=522.197 cy=360 r=19.547644180891407 stroke=""black"" stroke-width=""1.5"" fill=""none"" />
    <circle cx=420.41999999999996 cy=461.77700000000004 r=19.547644180891407 stroke=""black"" stroke-width=""1.5"" fill=""none"" />
    <circle cx=318.6429999999999 cy=360 r=19.547644180891407 stroke=""black"" stroke-width=""1.5"" fill=""none"" />
    <circle cx=420.41999999999996 cy=258.22299999999996 r=19.547644180891407 stroke=""black"" stroke-width=""1.5"" fill=""none"" />
    <polygon points = ""420.41999999999996,360 425.9186545698638,340.4523558191086 414.9213454301361,340.4523558191086"" stroke=""white"" stroke-width=""3"" fill = ""white"" />
    
    </svg>
    </div>
        ","","","","","","","","","","","","stimulus","","","","","","","","","","","","","","","","",""
"html-keyboard-response","27","202604","0.0-27.0","469.39999997615814","arrowup","","
    <div style="" display: block;  position: relative;"">
    
    <svg width=1280 height=720>
    <circle cx=577 cy=360 r=13.683350926623984 stroke=""black"" stroke-width=""1"" fill=""black"" />
    <circle cx=522.197 cy=360 r=19.547644180891407 stroke=""none"" stroke-width=""1.5"" fill=""none"" />
    <circle cx=420.41999999999996 cy=461.77700000000004 r=19.547644180891407 stroke=""none"" stroke-width=""1.5"" fill=""none"" />
    <circle cx=318.6429999999999 cy=360 r=19.547644180891407 stroke=""none"" stroke-width=""1.5"" fill=""none"" />
    <circle cx=420.41999999999996 cy=258.22299999999996 r=19.547644180891407 stroke=""none"" stroke-width=""1.5"" fill=""none"" />
    <polygon points = ""420.41999999999996,360 425.9186545698638,340.4523558191086 414.9213454301361,340.4523558191086"" stroke=""none"" stroke-width=""3"" fill = ""none"" />
    
    </svg>
    </div>
        ","","","","","","","","","","","","get_response","true","R087yRoOIoPpLFOM","","","true","true","true","156.58","4","546.694","101.77700000000002","2.6","1","0","","",""
"html-keyboard-response","28","203108","0.0-28.0","null","null","","
    <div style="" display: block;  position: relative;"">
    
    <svg width=1280 height=720>
    <circle cx=577 cy=360 r=13.683350926623984 stroke=""black"" stroke-width=""1"" fill=""black"" />
    <circle cx=522.197 cy=360 r=19.547644180891407 stroke=""none"" stroke-width=""1.5"" fill=""none"" />
    <circle cx=420.41999999999996 cy=461.77700000000004 r=19.547644180891407 stroke=""none"" stroke-width=""1.5"" fill=""none"" />
    <circle cx=318.6429999999999 cy=360 r=19.547644180891407 stroke=""none"" stroke-width=""1.5"" fill=""none"" />
    <circle cx=420.41999999999996 cy=258.22299999999996 r=19.547644180891407 stroke=""none"" stroke-width=""1.5"" fill=""none"" />
    <polygon points = ""420.41999999999996,360 425.9186545698638,340.4523558191086 414.9213454301361,340.4523558191086"" stroke=""none"" stroke-width=""3"" fill = ""none"" />
    
    </svg>
    </div>
        ","","","","","","","","","","","","","","","","","","","","","","","","","","","","",""
"html-keyboard-response","29","203263","0.0-29.0","null","null","","
    <div style="" display: block;  position: relative;"">
    <svg width=1280 height=720>
    
    <circle cx=577 cy=360 r=13.683350926623984 stroke=""black"" stroke-width=""1"" fill=""black"" />
    <circle cx=420.41999999999996 cy=360 r=19.547644180891407 stroke=""black"" stroke-width=""1.5"" fill=""none"" />
    <circle cx=522.197 cy=360 r=19.547644180891407 stroke=""black"" stroke-width=""1.5"" fill=""none"" />
    <circle cx=420.41999999999996 cy=461.77700000000004 r=19.547644180891407 stroke=""black"" stroke-width=""1.5"" fill=""none"" />
    <circle cx=318.6429999999999 cy=360 r=19.547644180891407 stroke=""black"" stroke-width=""1.5"" fill=""none"" />
    <circle cx=420.41999999999996 cy=258.22299999999996 r=19.547644180891407 stroke=""black"" stroke-width=""1.5"" fill=""none"" />
    <polygon points = ""420.41999999999996,360 425.9186545698638,379.5476441808914 414.9213454301361,379.5476441808914"" stroke=""white"" stroke-width=""3"" fill = ""white"" />
    
    </svg>
    </div>
        ","","","","","","","","","","","","stimulus","","","","","","","","","","","","","","","","",""
"html-keyboard-response","30","203645","0.0-30.0","380.5","arrowup","","
    <div style="" display: block;  position: relative;"">
    
    <svg width=1280 height=720>
    <circle cx=577 cy=360 r=13.683350926623984 stroke=""black"" stroke-width=""1"" fill=""black"" />
    <circle cx=522.197 cy=360 r=19.547644180891407 stroke=""none"" stroke-width=""1.5"" fill=""none"" />
    <circle cx=420.41999999999996 cy=461.77700000000004 r=19.547644180891407 stroke=""none"" stroke-width=""1.5"" fill=""none"" />
    <circle cx=318.6429999999999 cy=360 r=19.547644180891407 stroke=""none"" stroke-width=""1.5"" fill=""none"" />
    <circle cx=420.41999999999996 cy=258.22299999999996 r=19.547644180891407 stroke=""none"" stroke-width=""1.5"" fill=""none"" />
    <polygon points = ""420.41999999999996,360 425.9186545698638,379.5476441808914 414.9213454301361,379.5476441808914"" stroke=""none"" stroke-width=""3"" fill = ""none"" />
    
    </svg>
    </div>
        ","","","","","","","","","","","","get_response","false","R087yRoOIoPpLFOM","","","true","false","true","156.58","4","546.694","101.77700000000002","2.6","1","0","","",""
"html-keyboard-response","31","204147","0.0-31.0","null","null","","
    <div style="" display: block;  position: relative;"">
    
    <svg width=1280 height=720>
    <circle cx=577 cy=360 r=13.683350926623984 stroke=""black"" stroke-width=""1"" fill=""black"" />
    <circle cx=522.197 cy=360 r=19.547644180891407 stroke=""none"" stroke-width=""1.5"" fill=""none"" />
    <circle cx=420.41999999999996 cy=461.77700000000004 r=19.547644180891407 stroke=""none"" stroke-width=""1.5"" fill=""none"" />
    <circle cx=318.6429999999999 cy=360 r=19.547644180891407 stroke=""none"" stroke-width=""1.5"" fill=""none"" />
    <circle cx=420.41999999999996 cy=258.22299999999996 r=19.547644180891407 stroke=""none"" stroke-width=""1.5"" fill=""none"" />
    <polygon points = ""420.41999999999996,360 425.9186545698638,379.5476441808914 414.9213454301361,379.5476441808914"" stroke=""none"" stroke-width=""3"" fill = ""none"" />
    
    </svg>
    </div>
        ","","","","","","","","","","","","","","","","","","","","","","","","","","","","",""
"html-keyboard-response","32","204303","0.0-32.0","null","null","","
    <div style="" display: block;  position: relative;"">
    <svg width=1280 height=720>
    
    <circle cx=577 cy=360 r=13.683350926623984 stroke=""black"" stroke-width=""1"" fill=""black"" />
    <circle cx=420.41999999999996 cy=360 r=19.547644180891407 stroke=""black"" stroke-width=""1.5"" fill=""none"" />
    <circle cx=537.9047116382171 cy=360 r=19.547644180891407 stroke=""black"" stroke-width=""1.5"" fill=""none"" />
    <circle cx=420.41999999999996 cy=477.48471163821716 r=19.547644180891407 stroke=""black"" stroke-width=""1.5"" fill=""none"" />
    <circle cx=302.9352883617828 cy=360 r=19.547644180891407 stroke=""black"" stroke-width=""1.5"" fill=""none"" />
    <circle cx=420.41999999999996 cy=242.5152883617828 r=19.547644180891407 stroke=""black"" stroke-width=""1.5"" fill=""none"" />
    <polygon points = ""420.41999999999996,360 425.9186545698638,340.4523558191086 414.9213454301361,340.4523558191086"" stroke=""white"" stroke-width=""3"" fill = ""white"" />
    
    </svg>
    </div>
        ","","","","","","","","","","","","stimulus","","","","","","","","","","","","","","","","",""
"html-keyboard-response","33","204551","0.0-33.0","247.10000002384186","arrowup","","
    <div style="" display: block;  position: relative;"">
    
    <svg width=1280 height=720>
    <circle cx=577 cy=360 r=13.683350926623984 stroke=""black"" stroke-width=""1"" fill=""black"" />
    <circle cx=537.9047116382171 cy=360 r=19.547644180891407 stroke=""none"" stroke-width=""1.5"" fill=""none"" />
    <circle cx=420.41999999999996 cy=477.48471163821716 r=19.547644180891407 stroke=""none"" stroke-width=""1.5"" fill=""none"" />
    <circle cx=302.9352883617828 cy=360 r=19.547644180891407 stroke=""none"" stroke-width=""1.5"" fill=""none"" />
    <circle cx=420.41999999999996 cy=242.5152883617828 r=19.547644180891407 stroke=""none"" stroke-width=""1.5"" fill=""none"" />
    <polygon points = ""420.41999999999996,360 425.9186545698638,340.4523558191086 414.9213454301361,340.4523558191086"" stroke=""none"" stroke-width=""3"" fill = ""none"" />
    
    </svg>
    </div>
        ","","","","","","","","","","","","get_response","true","R087yRoOIoPpLFOM","","","true","true","true","156.58","4","546.694","117.48471163821719","3","1","0","","",""
"html-keyboard-response","34","205065","0.0-34.0","null","null","","
    <div style="" display: block;  position: relative;"">
    
    <svg width=1280 height=720>
    <circle cx=577 cy=360 r=13.683350926623984 stroke=""black"" stroke-width=""1"" fill=""black"" />
    <circle cx=537.9047116382171 cy=360 r=19.547644180891407 stroke=""none"" stroke-width=""1.5"" fill=""none"" />
    <circle cx=420.41999999999996 cy=477.48471163821716 r=19.547644180891407 stroke=""none"" stroke-width=""1.5"" fill=""none"" />
    <circle cx=302.9352883617828 cy=360 r=19.547644180891407 stroke=""none"" stroke-width=""1.5"" fill=""none"" />
    <circle cx=420.41999999999996 cy=242.5152883617828 r=19.547644180891407 stroke=""none"" stroke-width=""1.5"" fill=""none"" />
    <polygon points = ""420.41999999999996,360 425.9186545698638,340.4523558191086 414.9213454301361,340.4523558191086"" stroke=""none"" stroke-width=""3"" fill = ""none"" />
    
    </svg>
    </div>
        ","","","","","","","","","","","","","","","","","","","","","","","","","","","","",""
"html-keyboard-response","35","205220","0.0-35.0","null","null","","
    <div style="" display: block;  position: relative;"">
    <svg width=1280 height=720>
    
    <circle cx=577 cy=360 r=13.683350926623984 stroke=""black"" stroke-width=""1"" fill=""black"" />
    <circle cx=733.58 cy=360 r=19.547644180891407 stroke=""black"" stroke-width=""1.5"" fill=""none"" />
    <circle cx=851.0647116382172 cy=360 r=19.547644180891407 stroke=""black"" stroke-width=""1.5"" fill=""none"" />
    <circle cx=733.58 cy=477.48471163821716 r=19.547644180891407 stroke=""black"" stroke-width=""1.5"" fill=""none"" />
    <circle cx=616.0952883617829 cy=360 r=19.547644180891407 stroke=""black"" stroke-width=""1.5"" fill=""none"" />
    <circle cx=733.58 cy=242.5152883617828 r=19.547644180891407 stroke=""black"" stroke-width=""1.5"" fill=""none"" />
    <polygon points = ""733.58,360 739.0786545698639,379.5476441808914 728.0813454301361,379.5476441808914"" stroke=""white"" stroke-width=""3"" fill = ""white"" />
    
    </svg>
    </div>
        ","","","","","","","","","","","","stimulus","","","","","","","","","","","","","","","","",""
"html-keyboard-response","36","205903","0.0-36.0","682.2000000476837","arrowdown","","
    <div style="" display: block;  position: relative;"">
    
    <svg width=1280 height=720>
    <circle cx=577 cy=360 r=13.683350926623984 stroke=""black"" stroke-width=""1"" fill=""black"" />
    <circle cx=851.0647116382172 cy=360 r=19.547644180891407 stroke=""none"" stroke-width=""1.5"" fill=""none"" />
    <circle cx=733.58 cy=477.48471163821716 r=19.547644180891407 stroke=""none"" stroke-width=""1.5"" fill=""none"" />
    <circle cx=616.0952883617829 cy=360 r=19.547644180891407 stroke=""none"" stroke-width=""1.5"" fill=""none"" />
    <circle cx=733.58 cy=242.5152883617828 r=19.547644180891407 stroke=""none"" stroke-width=""1.5"" fill=""none"" />
    <polygon points = ""733.58,360 739.0786545698639,379.5476441808914 728.0813454301361,379.5476441808914"" stroke=""none"" stroke-width=""3"" fill = ""none"" />
    
    </svg>
    </div>
        ","","","","","","","","","","","","get_response","true","R087yRoOIoPpLFOM","","","false","false","true","156.58","4","546.694","117.48471163821719","3","1","0","","",""
"html-keyboard-response","37","206410","0.0-37.0","null","null","","
    <div style="" display: block;  position: relative;"">
    
    <svg width=1280 height=720>
    <circle cx=577 cy=360 r=13.683350926623984 stroke=""black"" stroke-width=""1"" fill=""black"" />
    <circle cx=851.0647116382172 cy=360 r=19.547644180891407 stroke=""none"" stroke-width=""1.5"" fill=""none"" />
    <circle cx=733.58 cy=477.48471163821716 r=19.547644180891407 stroke=""none"" stroke-width=""1.5"" fill=""none"" />
    <circle cx=616.0952883617829 cy=360 r=19.547644180891407 stroke=""none"" stroke-width=""1.5"" fill=""none"" />
    <circle cx=733.58 cy=242.5152883617828 r=19.547644180891407 stroke=""none"" stroke-width=""1.5"" fill=""none"" />
    <polygon points = ""733.58,360 739.0786545698639,379.5476441808914 728.0813454301361,379.5476441808914"" stroke=""none"" stroke-width=""3"" fill = ""none"" />
    
    </svg>
    </div>
        ","","","","","","","","","","","","","","","","","","","","","","","","","","","","",""
"html-keyboard-response","38","206566","0.0-38.0","null","null","","
    <div style="" display: block;  position: relative;"">
    <svg width=1280 height=720>
    
    <circle cx=577 cy=360 r=13.683350926623984 stroke=""black"" stroke-width=""1"" fill=""black"" />
    <circle cx=420.41999999999996 cy=360 r=19.547644180891407 stroke=""black"" stroke-width=""1.5"" fill=""none"" />
    <circle cx=537.9047116382171 cy=360 r=19.547644180891407 stroke=""black"" stroke-width=""1.5"" fill=""none"" />
    <circle cx=420.41999999999996 cy=477.48471163821716 r=19.547644180891407 stroke=""black"" stroke-width=""1.5"" fill=""none"" />
    <circle cx=302.9352883617828 cy=360 r=19.547644180891407 stroke=""black"" stroke-width=""1.5"" fill=""none"" />
    <circle cx=420.41999999999996 cy=242.5152883617828 r=19.547644180891407 stroke=""black"" stroke-width=""1.5"" fill=""none"" />
    <polygon points = ""420.41999999999996,360 425.9186545698638,340.4523558191086 414.9213454301361,340.4523558191086"" stroke=""white"" stroke-width=""3"" fill = ""white"" />
    
    </svg>
    </div>
        ","","","","","","","","","","","","stimulus","","","","","","","","","","","","","","","","",""
"html-keyboard-response","39","207034","0.0-39.0","466.89999997615814","arrowup","","
    <div style="" display: block;  position: relative;"">
    
    <svg width=1280 height=720>
    <circle cx=577 cy=360 r=13.683350926623984 stroke=""black"" stroke-width=""1"" fill=""black"" />
    <circle cx=537.9047116382171 cy=360 r=19.547644180891407 stroke=""none"" stroke-width=""1.5"" fill=""none"" />
    <circle cx=420.41999999999996 cy=477.48471163821716 r=19.547644180891407 stroke=""none"" stroke-width=""1.5"" fill=""none"" />
    <circle cx=302.9352883617828 cy=360 r=19.547644180891407 stroke=""none"" stroke-width=""1.5"" fill=""none"" />
    <circle cx=420.41999999999996 cy=242.5152883617828 r=19.547644180891407 stroke=""none"" stroke-width=""1.5"" fill=""none"" />
    <polygon points = ""420.41999999999996,360 425.9186545698638,340.4523558191086 414.9213454301361,340.4523558191086"" stroke=""none"" stroke-width=""3"" fill = ""none"" />
    
    </svg>
    </div>
        ","","","","","","","","","","","","get_response","true","R087yRoOIoPpLFOM","","","true","true","true","156.58","4","546.694","117.48471163821719","3","1","0","","",""
"html-keyboard-response","40","207545","0.0-40.0","null","null","","
    <div style="" display: block;  position: relative;"">
    
    <svg width=1280 height=720>
    <circle cx=577 cy=360 r=13.683350926623984 stroke=""black"" stroke-width=""1"" fill=""black"" />
    <circle cx=537.9047116382171 cy=360 r=19.547644180891407 stroke=""none"" stroke-width=""1.5"" fill=""none"" />
    <circle cx=420.41999999999996 cy=477.48471163821716 r=19.547644180891407 stroke=""none"" stroke-width=""1.5"" fill=""none"" />
    <circle cx=302.9352883617828 cy=360 r=19.547644180891407 stroke=""none"" stroke-width=""1.5"" fill=""none"" />
    <circle cx=420.41999999999996 cy=242.5152883617828 r=19.547644180891407 stroke=""none"" stroke-width=""1.5"" fill=""none"" />
    <polygon points = ""420.41999999999996,360 425.9186545698638,340.4523558191086 414.9213454301361,340.4523558191086"" stroke=""none"" stroke-width=""3"" fill = ""none"" />
    
    </svg>
    </div>
        ","","","","","","","","","","","","","","","","","","","","","","","","","","","","",""
"html-keyboard-response","41","207699","0.0-41.0","null","null","","
    <div style="" display: block;  position: relative;"">
    <svg width=1280 height=720>
    
    <circle cx=577 cy=360 r=13.683350926623984 stroke=""black"" stroke-width=""1"" fill=""black"" />
    <circle cx=733.58 cy=360 r=19.547644180891407 stroke=""black"" stroke-width=""1.5"" fill=""none"" />
    <circle cx=840.3842833074702 cy=360 r=19.547644180891407 stroke=""black"" stroke-width=""1.5"" fill=""none"" />
    <circle cx=733.58 cy=466.8042833074702 r=19.547644180891407 stroke=""black"" stroke-width=""1.5"" fill=""none"" />
    <circle cx=626.7757166925298 cy=360 r=19.547644180891407 stroke=""black"" stroke-width=""1.5"" fill=""none"" />
    <circle cx=733.58 cy=253.19571669252983 r=19.547644180891407 stroke=""black"" stroke-width=""1.5"" fill=""none"" />
    <polygon points = ""733.58,360 739.0786545698639,340.4523558191086 728.0813454301361,340.4523558191086"" stroke=""white"" stroke-width=""3"" fill = ""white"" />
    
    </svg>
    </div>
        ","","","","","","","","","","","","stimulus","","","","","","","","","","","","","","","","",""
"html-keyboard-response","42","208340","0.0-42.0","639.6999999284744","arrowup","","
    <div style="" display: block;  position: relative;"">
    
    <svg width=1280 height=720>
    <circle cx=577 cy=360 r=13.683350926623984 stroke=""black"" stroke-width=""1"" fill=""black"" />
    <circle cx=840.3842833074702 cy=360 r=19.547644180891407 stroke=""none"" stroke-width=""1.5"" fill=""none"" />
    <circle cx=733.58 cy=466.8042833074702 r=19.547644180891407 stroke=""none"" stroke-width=""1.5"" fill=""none"" />
    <circle cx=626.7757166925298 cy=360 r=19.547644180891407 stroke=""none"" stroke-width=""1.5"" fill=""none"" />
    <circle cx=733.58 cy=253.19571669252983 r=19.547644180891407 stroke=""none"" stroke-width=""1.5"" fill=""none"" />
    <polygon points = ""733.58,360 739.0786545698639,340.4523558191086 728.0813454301361,340.4523558191086"" stroke=""none"" stroke-width=""3"" fill = ""none"" />
    
    </svg>
    </div>
        ","","","","","","","","","","","","get_response","true","R087yRoOIoPpLFOM","","","false","true","true","156.58","4","546.694","106.80428330747017","2.73","1","0","","",""
"html-keyboard-response","43","208844","0.0-43.0","null","null","","
    <div style="" display: block;  position: relative;"">
    
    <svg width=1280 height=720>
    <circle cx=577 cy=360 r=13.683350926623984 stroke=""black"" stroke-width=""1"" fill=""black"" />
    <circle cx=840.3842833074702 cy=360 r=19.547644180891407 stroke=""none"" stroke-width=""1.5"" fill=""none"" />
    <circle cx=733.58 cy=466.8042833074702 r=19.547644180891407 stroke=""none"" stroke-width=""1.5"" fill=""none"" />
    <circle cx=626.7757166925298 cy=360 r=19.547644180891407 stroke=""none"" stroke-width=""1.5"" fill=""none"" />
    <circle cx=733.58 cy=253.19571669252983 r=19.547644180891407 stroke=""none"" stroke-width=""1.5"" fill=""none"" />
    <polygon points = ""733.58,360 739.0786545698639,340.4523558191086 728.0813454301361,340.4523558191086"" stroke=""none"" stroke-width=""3"" fill = ""none"" />
    
    </svg>
    </div>
        ","","","","","","","","","","","","","","","","","","","","","","","","","","","","",""
"html-keyboard-response","44","209001","0.0-44.0","null","null","","
    <div style="" display: block;  position: relative;"">
    <svg width=1280 height=720>
    
    <circle cx=577 cy=360 r=13.683350926623984 stroke=""black"" stroke-width=""1"" fill=""black"" />
    <circle cx=733.58 cy=360 r=19.547644180891407 stroke=""black"" stroke-width=""1.5"" fill=""none"" />
    <circle cx=830.6748030067911 cy=360 r=19.547644180891407 stroke=""black"" stroke-width=""1.5"" fill=""none"" />
    <circle cx=733.58 cy=457.09480300679104 r=19.547644180891407 stroke=""black"" stroke-width=""1.5"" fill=""none"" />
    <circle cx=636.485196993209 cy=360 r=19.547644180891407 stroke=""black"" stroke-width=""1.5"" fill=""none"" />
    <circle cx=733.58 cy=262.90519699320896 r=19.547644180891407 stroke=""black"" stroke-width=""1.5"" fill=""none"" />
    <polygon points = ""733.58,360 739.0786545698639,379.5476441808914 728.0813454301361,379.5476441808914"" stroke=""white"" stroke-width=""3"" fill = ""white"" />
    
    </svg>
    </div>
        ","","","","","","","","","","","","stimulus","","","","","","","","","","","","","","","","",""
"html-keyboard-response","45","210233","0.0-45.0","1230.2999999523163","arrowdown","","
    <div style="" display: block;  position: relative;"">
    
    <svg width=1280 height=720>
    <circle cx=577 cy=360 r=13.683350926623984 stroke=""black"" stroke-width=""1"" fill=""black"" />
    <circle cx=830.6748030067911 cy=360 r=19.547644180891407 stroke=""none"" stroke-width=""1.5"" fill=""none"" />
    <circle cx=733.58 cy=457.09480300679104 r=19.547644180891407 stroke=""none"" stroke-width=""1.5"" fill=""none"" />
    <circle cx=636.485196993209 cy=360 r=19.547644180891407 stroke=""none"" stroke-width=""1.5"" fill=""none"" />
    <circle cx=733.58 cy=262.90519699320896 r=19.547644180891407 stroke=""none"" stroke-width=""1.5"" fill=""none"" />
    <polygon points = ""733.58,360 739.0786545698639,379.5476441808914 728.0813454301361,379.5476441808914"" stroke=""none"" stroke-width=""3"" fill = ""none"" />
    
    </svg>
    </div>
        ","","","","","","","","","","","","get_response","true","R087yRoOIoPpLFOM","","","false","false","true","156.58","4","546.694","97.09480300679105","2.48","1","0","","",""
"html-keyboard-response","46","210739","0.0-46.0","null","null","","
    <div style="" display: block;  position: relative;"">
    
    <svg width=1280 height=720>
    <circle cx=577 cy=360 r=13.683350926623984 stroke=""black"" stroke-width=""1"" fill=""black"" />
    <circle cx=830.6748030067911 cy=360 r=19.547644180891407 stroke=""none"" stroke-width=""1.5"" fill=""none"" />
    <circle cx=733.58 cy=457.09480300679104 r=19.547644180891407 stroke=""none"" stroke-width=""1.5"" fill=""none"" />
    <circle cx=636.485196993209 cy=360 r=19.547644180891407 stroke=""none"" stroke-width=""1.5"" fill=""none"" />
    <circle cx=733.58 cy=262.90519699320896 r=19.547644180891407 stroke=""none"" stroke-width=""1.5"" fill=""none"" />
    <polygon points = ""733.58,360 739.0786545698639,379.5476441808914 728.0813454301361,379.5476441808914"" stroke=""none"" stroke-width=""3"" fill = ""none"" />
    
    </svg>
    </div>
        ","","","","","","","","","","","","","","","","","","","","","","","","","","","","",""
"html-keyboard-response","47","210895","0.0-47.0","null","null","","
    <div style="" display: block;  position: relative;"">
    <svg width=1280 height=720>
    
    <circle cx=577 cy=360 r=13.683350926623984 stroke=""black"" stroke-width=""1"" fill=""black"" />
    <circle cx=420.41999999999996 cy=360 r=19.547644180891407 stroke=""black"" stroke-width=""1.5"" fill=""none"" />
    <circle cx=508.68800273344635 cy=360 r=19.547644180891407 stroke=""black"" stroke-width=""1.5"" fill=""none"" />
    <circle cx=420.41999999999996 cy=448.2680027334464 r=19.547644180891407 stroke=""black"" stroke-width=""1.5"" fill=""none"" />
    <circle cx=332.15199726655356 cy=360 r=19.547644180891407 stroke=""black"" stroke-width=""1.5"" fill=""none"" />
    <circle cx=420.41999999999996 cy=271.7319972665536 r=19.547644180891407 stroke=""black"" stroke-width=""1.5"" fill=""none"" />
    <polygon points = ""420.41999999999996,360 425.9186545698638,340.4523558191086 414.9213454301361,340.4523558191086"" stroke=""white"" stroke-width=""3"" fill = ""white"" />
    
    </svg>
    </div>
        ","","","","","","","","","","","","stimulus","","","","","","","","","","","","","","","","",""
"html-keyboard-response","48","211353","0.0-48.0","456.60000002384186","arrowup","","
    <div style="" display: block;  position: relative;"">
    
    <svg width=1280 height=720>
    <circle cx=577 cy=360 r=13.683350926623984 stroke=""black"" stroke-width=""1"" fill=""black"" />
    <circle cx=508.68800273344635 cy=360 r=19.547644180891407 stroke=""none"" stroke-width=""1.5"" fill=""none"" />
    <circle cx=420.41999999999996 cy=448.2680027334464 r=19.547644180891407 stroke=""none"" stroke-width=""1.5"" fill=""none"" />
    <circle cx=332.15199726655356 cy=360 r=19.547644180891407 stroke=""none"" stroke-width=""1.5"" fill=""none"" />
    <circle cx=420.41999999999996 cy=271.7319972665536 r=19.547644180891407 stroke=""none"" stroke-width=""1.5"" fill=""none"" />
    <polygon points = ""420.41999999999996,360 425.9186545698638,340.4523558191086 414.9213454301361,340.4523558191086"" stroke=""none"" stroke-width=""3"" fill = ""none"" />
    
    </svg>
    </div>
        ","","","","","","","","","","","","get_response","true","R087yRoOIoPpLFOM","","","true","true","true","156.58","4","546.694","88.26800273344641","2.25","1","0","","",""
"html-keyboard-response","49","211858","0.0-49.0","null","null","","
    <div style="" display: block;  position: relative;"">
    
    <svg width=1280 height=720>
    <circle cx=577 cy=360 r=13.683350926623984 stroke=""black"" stroke-width=""1"" fill=""black"" />
    <circle cx=508.68800273344635 cy=360 r=19.547644180891407 stroke=""none"" stroke-width=""1.5"" fill=""none"" />
    <circle cx=420.41999999999996 cy=448.2680027334464 r=19.547644180891407 stroke=""none"" stroke-width=""1.5"" fill=""none"" />
    <circle cx=332.15199726655356 cy=360 r=19.547644180891407 stroke=""none"" stroke-width=""1.5"" fill=""none"" />
    <circle cx=420.41999999999996 cy=271.7319972665536 r=19.547644180891407 stroke=""none"" stroke-width=""1.5"" fill=""none"" />
    <polygon points = ""420.41999999999996,360 425.9186545698638,340.4523558191086 414.9213454301361,340.4523558191086"" stroke=""none"" stroke-width=""3"" fill = ""none"" />
    
    </svg>
    </div>
        ","","","","","","","","","","","","","","","","","","","","","","","","","","","","",""
"html-keyboard-response","50","212014","0.0-50.0","null","null","","
    <div style="" display: block;  position: relative;"">
    <svg width=1280 height=720>
    
    <circle cx=577 cy=360 r=13.683350926623984 stroke=""black"" stroke-width=""1"" fill=""black"" />
    <circle cx=733.58 cy=360 r=19.547644180891407 stroke=""black"" stroke-width=""1.5"" fill=""none"" />
    <circle cx=813.8236388485877 cy=360 r=19.547644180891407 stroke=""black"" stroke-width=""1.5"" fill=""none"" />
    <circle cx=733.58 cy=440.24363884858764 r=19.547644180891407 stroke=""black"" stroke-width=""1.5"" fill=""none"" />
    <circle cx=653.3363611514123 cy=360 r=19.547644180891407 stroke=""black"" stroke-width=""1.5"" fill=""none"" />
    <circle cx=733.58 cy=279.75636115141236 r=19.547644180891407 stroke=""black"" stroke-width=""1.5"" fill=""none"" />
    <polygon points = ""733.58,360 739.0786545698639,379.5476441808914 728.0813454301361,379.5476441808914"" stroke=""white"" stroke-width=""3"" fill = ""white"" />
    
    </svg>
    </div>
        ","","","","","","","","","","","","stimulus","","","","","","","","","","","","","","","","",""
"html-keyboard-response","51","212512","0.0-51.0","496.5","arrowdown","","
    <div style="" display: block;  position: relative;"">
    
    <svg width=1280 height=720>
    <circle cx=577 cy=360 r=13.683350926623984 stroke=""black"" stroke-width=""1"" fill=""black"" />
    <circle cx=813.8236388485877 cy=360 r=19.547644180891407 stroke=""none"" stroke-width=""1.5"" fill=""none"" />
    <circle cx=733.58 cy=440.24363884858764 r=19.547644180891407 stroke=""none"" stroke-width=""1.5"" fill=""none"" />
    <circle cx=653.3363611514123 cy=360 r=19.547644180891407 stroke=""none"" stroke-width=""1.5"" fill=""none"" />
    <circle cx=733.58 cy=279.75636115141236 r=19.547644180891407 stroke=""none"" stroke-width=""1.5"" fill=""none"" />
    <polygon points = ""733.58,360 739.0786545698639,379.5476441808914 728.0813454301361,379.5476441808914"" stroke=""none"" stroke-width=""3"" fill = ""none"" />
    
    </svg>
    </div>
        ","","","","","","","","","","","","get_response","true","R087yRoOIoPpLFOM","","","false","false","true","156.58","4","546.694","80.24363884858764","2.05","1","0","","",""
"html-keyboard-response","52","213019","0.0-52.0","null","null","","
    <div style="" display: block;  position: relative;"">
    
    <svg width=1280 height=720>
    <circle cx=577 cy=360 r=13.683350926623984 stroke=""black"" stroke-width=""1"" fill=""black"" />
    <circle cx=813.8236388485877 cy=360 r=19.547644180891407 stroke=""none"" stroke-width=""1.5"" fill=""none"" />
    <circle cx=733.58 cy=440.24363884858764 r=19.547644180891407 stroke=""none"" stroke-width=""1.5"" fill=""none"" />
    <circle cx=653.3363611514123 cy=360 r=19.547644180891407 stroke=""none"" stroke-width=""1.5"" fill=""none"" />
    <circle cx=733.58 cy=279.75636115141236 r=19.547644180891407 stroke=""none"" stroke-width=""1.5"" fill=""none"" />
    <polygon points = ""733.58,360 739.0786545698639,379.5476441808914 728.0813454301361,379.5476441808914"" stroke=""none"" stroke-width=""3"" fill = ""none"" />
    
    </svg>
    </div>
        ","","","","","","","","","","","","","","","","","","","","","","","","","","","","",""
"html-keyboard-response","53","213173","0.0-53.0","null","null","","
    <div style="" display: block;  position: relative;"">
    <svg width=1280 height=720>
    
    <circle cx=577 cy=360 r=13.683350926623984 stroke=""black"" stroke-width=""1"" fill=""black"" />
    <circle cx=733.58 cy=360 r=19.547644180891407 stroke=""black"" stroke-width=""1.5"" fill=""none"" />
    <circle cx=806.5287625896251 cy=360 r=19.547644180891407 stroke=""black"" stroke-width=""1.5"" fill=""none"" />
    <circle cx=733.58 cy=432.9487625896251 r=19.547644180891407 stroke=""black"" stroke-width=""1.5"" fill=""none"" />
    <circle cx=660.631237410375 cy=360 r=19.547644180891407 stroke=""black"" stroke-width=""1.5"" fill=""none"" />
    <circle cx=733.58 cy=287.0512374103749 r=19.547644180891407 stroke=""black"" stroke-width=""1.5"" fill=""none"" />
    <polygon points = ""733.58,360 739.0786545698639,340.4523558191086 728.0813454301361,340.4523558191086"" stroke=""white"" stroke-width=""3"" fill = ""white"" />
    
    </svg>
    </div>
        ","","","","","","","","","","","","stimulus","","","","","","","","","","","","","","","","",""
"html-keyboard-response","54","213920","0.0-54.0","745.1000000238419","arrowdown","","
    <div style="" display: block;  position: relative;"">
    
    <svg width=1280 height=720>
    <circle cx=577 cy=360 r=13.683350926623984 stroke=""black"" stroke-width=""1"" fill=""black"" />
    <circle cx=806.5287625896251 cy=360 r=19.547644180891407 stroke=""none"" stroke-width=""1.5"" fill=""none"" />
    <circle cx=733.58 cy=432.9487625896251 r=19.547644180891407 stroke=""none"" stroke-width=""1.5"" fill=""none"" />
    <circle cx=660.631237410375 cy=360 r=19.547644180891407 stroke=""none"" stroke-width=""1.5"" fill=""none"" />
    <circle cx=733.58 cy=287.0512374103749 r=19.547644180891407 stroke=""none"" stroke-width=""1.5"" fill=""none"" />
    <polygon points = ""733.58,360 739.0786545698639,340.4523558191086 728.0813454301361,340.4523558191086"" stroke=""none"" stroke-width=""3"" fill = ""none"" />
    
    </svg>
    </div>
        ","","","","","","","","","","","","get_response","false","R087yRoOIoPpLFOM","","","false","true","true","156.58","4","546.694","72.94876258962512","1.86","1","0","","",""
"html-keyboard-response","55","214430","0.0-55.0","null","null","","
    <div style="" display: block;  position: relative;"">
    
    <svg width=1280 height=720>
    <circle cx=577 cy=360 r=13.683350926623984 stroke=""black"" stroke-width=""1"" fill=""black"" />
    <circle cx=806.5287625896251 cy=360 r=19.547644180891407 stroke=""none"" stroke-width=""1.5"" fill=""none"" />
    <circle cx=733.58 cy=432.9487625896251 r=19.547644180891407 stroke=""none"" stroke-width=""1.5"" fill=""none"" />
    <circle cx=660.631237410375 cy=360 r=19.547644180891407 stroke=""none"" stroke-width=""1.5"" fill=""none"" />
    <circle cx=733.58 cy=287.0512374103749 r=19.547644180891407 stroke=""none"" stroke-width=""1.5"" fill=""none"" />
    <polygon points = ""733.58,360 739.0786545698639,340.4523558191086 728.0813454301361,340.4523558191086"" stroke=""none"" stroke-width=""3"" fill = ""none"" />
    
    </svg>
    </div>
        ","","","","","","","","","","","","","","","","","","","","","","","","","","","","",""
"html-keyboard-response","56","214585","0.0-56.0","null","null","","
    <div style="" display: block;  position: relative;"">
    <svg width=1280 height=720>
    
    <circle cx=577 cy=360 r=13.683350926623984 stroke=""black"" stroke-width=""1"" fill=""black"" />
    <circle cx=733.58 cy=360 r=19.547644180891407 stroke=""black"" stroke-width=""1.5"" fill=""none"" />
    <circle cx=828.4133913665127 cy=360 r=19.547644180891407 stroke=""black"" stroke-width=""1.5"" fill=""none"" />
    <circle cx=733.58 cy=454.83339136651267 r=19.547644180891407 stroke=""black"" stroke-width=""1.5"" fill=""none"" />
    <circle cx=638.7466086334874 cy=360 r=19.547644180891407 stroke=""black"" stroke-width=""1.5"" fill=""none"" />
    <circle cx=733.58 cy=265.16660863348733 r=19.547644180891407 stroke=""black"" stroke-width=""1.5"" fill=""none"" />
    <polygon points = ""733.58,360 739.0786545698639,340.4523558191086 728.0813454301361,340.4523558191086"" stroke=""white"" stroke-width=""3"" fill = ""white"" />
    
    </svg>
    </div>
        ","","","","","","","","","","","","stimulus","","","","","","","","","","","","","","","","",""
"html-keyboard-response","57","215028","0.0-57.0","441.90000009536743","arrowup","","
    <div style="" display: block;  position: relative;"">
    
    <svg width=1280 height=720>
    <circle cx=577 cy=360 r=13.683350926623984 stroke=""black"" stroke-width=""1"" fill=""black"" />
    <circle cx=828.4133913665127 cy=360 r=19.547644180891407 stroke=""none"" stroke-width=""1.5"" fill=""none"" />
    <circle cx=733.58 cy=454.83339136651267 r=19.547644180891407 stroke=""none"" stroke-width=""1.5"" fill=""none"" />
    <circle cx=638.7466086334874 cy=360 r=19.547644180891407 stroke=""none"" stroke-width=""1.5"" fill=""none"" />
    <circle cx=733.58 cy=265.16660863348733 r=19.547644180891407 stroke=""none"" stroke-width=""1.5"" fill=""none"" />
    <polygon points = ""733.58,360 739.0786545698639,340.4523558191086 728.0813454301361,340.4523558191086"" stroke=""none"" stroke-width=""3"" fill = ""none"" />
    
    </svg>
    </div>
        ","","","","","","","","","","","","get_response","true","R087yRoOIoPpLFOM","","","false","true","true","156.58","4","546.694","94.83339136651266","2.42","1","0","","",""
"html-keyboard-response","58","215532","0.0-58.0","null","null","","
    <div style="" display: block;  position: relative;"">
    
    <svg width=1280 height=720>
    <circle cx=577 cy=360 r=13.683350926623984 stroke=""black"" stroke-width=""1"" fill=""black"" />
    <circle cx=828.4133913665127 cy=360 r=19.547644180891407 stroke=""none"" stroke-width=""1.5"" fill=""none"" />
    <circle cx=733.58 cy=454.83339136651267 r=19.547644180891407 stroke=""none"" stroke-width=""1.5"" fill=""none"" />
    <circle cx=638.7466086334874 cy=360 r=19.547644180891407 stroke=""none"" stroke-width=""1.5"" fill=""none"" />
    <circle cx=733.58 cy=265.16660863348733 r=19.547644180891407 stroke=""none"" stroke-width=""1.5"" fill=""none"" />
    <polygon points = ""733.58,360 739.0786545698639,340.4523558191086 728.0813454301361,340.4523558191086"" stroke=""none"" stroke-width=""3"" fill = ""none"" />
    
    </svg>
    </div>
        ","","","","","","","","","","","","","","","","","","","","","","","","","","","","",""
"html-keyboard-response","59","215688","0.0-59.0","null","null","","
    <div style="" display: block;  position: relative;"">
    <svg width=1280 height=720>
    
    <circle cx=577 cy=360 r=13.683350926623984 stroke=""black"" stroke-width=""1"" fill=""black"" />
    <circle cx=733.58 cy=360 r=19.547644180891407 stroke=""black"" stroke-width=""1.5"" fill=""none"" />
    <circle cx=828.4133913665127 cy=360 r=19.547644180891407 stroke=""black"" stroke-width=""1.5"" fill=""none"" />
    <circle cx=733.58 cy=454.83339136651267 r=19.547644180891407 stroke=""black"" stroke-width=""1.5"" fill=""none"" />
    <circle cx=638.7466086334874 cy=360 r=19.547644180891407 stroke=""black"" stroke-width=""1.5"" fill=""none"" />
    <circle cx=733.58 cy=265.16660863348733 r=19.547644180891407 stroke=""black"" stroke-width=""1.5"" fill=""none"" />
    <polygon points = ""733.58,360 739.0786545698639,379.5476441808914 728.0813454301361,379.5476441808914"" stroke=""white"" stroke-width=""3"" fill = ""white"" />
    
    </svg>
    </div>
        ","","","","","","","","","","","","stimulus","","","","","","","","","","","","","","","","",""
"html-keyboard-response","60","216070","0.0-60.0","380.60000002384186","arrowdown","","
    <div style="" display: block;  position: relative;"">
    
    <svg width=1280 height=720>
    <circle cx=577 cy=360 r=13.683350926623984 stroke=""black"" stroke-width=""1"" fill=""black"" />
    <circle cx=828.4133913665127 cy=360 r=19.547644180891407 stroke=""none"" stroke-width=""1.5"" fill=""none"" />
    <circle cx=733.58 cy=454.83339136651267 r=19.547644180891407 stroke=""none"" stroke-width=""1.5"" fill=""none"" />
    <circle cx=638.7466086334874 cy=360 r=19.547644180891407 stroke=""none"" stroke-width=""1.5"" fill=""none"" />
    <circle cx=733.58 cy=265.16660863348733 r=19.547644180891407 stroke=""none"" stroke-width=""1.5"" fill=""none"" />
    <polygon points = ""733.58,360 739.0786545698639,379.5476441808914 728.0813454301361,379.5476441808914"" stroke=""none"" stroke-width=""3"" fill = ""none"" />
    
    </svg>
    </div>
        ","","","","","","","","","","","","get_response","true","R087yRoOIoPpLFOM","","","false","false","true","156.58","4","546.694","94.83339136651266","2.42","1","0","","",""
"html-keyboard-response","61","216572","0.0-61.0","null","null","","
    <div style="" display: block;  position: relative;"">
    
    <svg width=1280 height=720>
    <circle cx=577 cy=360 r=13.683350926623984 stroke=""black"" stroke-width=""1"" fill=""black"" />
    <circle cx=828.4133913665127 cy=360 r=19.547644180891407 stroke=""none"" stroke-width=""1.5"" fill=""none"" />
    <circle cx=733.58 cy=454.83339136651267 r=19.547644180891407 stroke=""none"" stroke-width=""1.5"" fill=""none"" />
    <circle cx=638.7466086334874 cy=360 r=19.547644180891407 stroke=""none"" stroke-width=""1.5"" fill=""none"" />
    <circle cx=733.58 cy=265.16660863348733 r=19.547644180891407 stroke=""none"" stroke-width=""1.5"" fill=""none"" />
    <polygon points = ""733.58,360 739.0786545698639,379.5476441808914 728.0813454301361,379.5476441808914"" stroke=""none"" stroke-width=""3"" fill = ""none"" />
    
    </svg>
    </div>
        ","","","","","","","","","","","","","","","","","","","","","","","","","","","","",""
"html-keyboard-response","62","216726","0.0-62.0","null","null","","
    <div style="" display: block;  position: relative;"">
    <svg width=1280 height=720>
    
    <circle cx=577 cy=360 r=13.683350926623984 stroke=""black"" stroke-width=""1"" fill=""black"" />
    <circle cx=733.58 cy=360 r=19.547644180891407 stroke=""black"" stroke-width=""1.5"" fill=""none"" />
    <circle cx=828.4133913665127 cy=360 r=19.547644180891407 stroke=""black"" stroke-width=""1.5"" fill=""none"" />
    <circle cx=733.58 cy=454.83339136651267 r=19.547644180891407 stroke=""black"" stroke-width=""1.5"" fill=""none"" />
    <circle cx=638.7466086334874 cy=360 r=19.547644180891407 stroke=""black"" stroke-width=""1.5"" fill=""none"" />
    <circle cx=733.58 cy=265.16660863348733 r=19.547644180891407 stroke=""black"" stroke-width=""1.5"" fill=""none"" />
    <polygon points = ""733.58,360 739.0786545698639,340.4523558191086 728.0813454301361,340.4523558191086"" stroke=""white"" stroke-width=""3"" fill = ""white"" />
    
    </svg>
    </div>
        ","","","","","","","","","","","","stimulus","","","","","","","","","","","","","","","","",""
"html-keyboard-response","63","217045","0.0-63.0","317.2999999523163","arrowup","","
    <div style="" display: block;  position: relative;"">
    
    <svg width=1280 height=720>
    <circle cx=577 cy=360 r=13.683350926623984 stroke=""black"" stroke-width=""1"" fill=""black"" />
    <circle cx=828.4133913665127 cy=360 r=19.547644180891407 stroke=""none"" stroke-width=""1.5"" fill=""none"" />
    <circle cx=733.58 cy=454.83339136651267 r=19.547644180891407 stroke=""none"" stroke-width=""1.5"" fill=""none"" />
    <circle cx=638.7466086334874 cy=360 r=19.547644180891407 stroke=""none"" stroke-width=""1.5"" fill=""none"" />
    <circle cx=733.58 cy=265.16660863348733 r=19.547644180891407 stroke=""none"" stroke-width=""1.5"" fill=""none"" />
    <polygon points = ""733.58,360 739.0786545698639,340.4523558191086 728.0813454301361,340.4523558191086"" stroke=""none"" stroke-width=""3"" fill = ""none"" />
    
    </svg>
    </div>
        ","","","","","","","","","","","","get_response","true","R087yRoOIoPpLFOM","","","false","true","true","156.58","4","546.694","94.83339136651266","2.42","1","0","","",""
"html-keyboard-response","64","217547","0.0-64.0","null","null","","
    <div style="" display: block;  position: relative;"">
    
    <svg width=1280 height=720>
    <circle cx=577 cy=360 r=13.683350926623984 stroke=""black"" stroke-width=""1"" fill=""black"" />
    <circle cx=828.4133913665127 cy=360 r=19.547644180891407 stroke=""none"" stroke-width=""1.5"" fill=""none"" />
    <circle cx=733.58 cy=454.83339136651267 r=19.547644180891407 stroke=""none"" stroke-width=""1.5"" fill=""none"" />
    <circle cx=638.7466086334874 cy=360 r=19.547644180891407 stroke=""none"" stroke-width=""1.5"" fill=""none"" />
    <circle cx=733.58 cy=265.16660863348733 r=19.547644180891407 stroke=""none"" stroke-width=""1.5"" fill=""none"" />
    <polygon points = ""733.58,360 739.0786545698639,340.4523558191086 728.0813454301361,340.4523558191086"" stroke=""none"" stroke-width=""3"" fill = ""none"" />
    
    </svg>
    </div>
        ","","","","","","","","","","","","","","","","","","","","","","","","","","","","",""
"html-keyboard-response","65","217702","0.0-65.0","null","null","","
    <div style="" display: block;  position: relative;"">
    <svg width=1280 height=720>
    
    <circle cx=577 cy=360 r=13.683350926623984 stroke=""black"" stroke-width=""1"" fill=""black"" />
    <circle cx=420.41999999999996 cy=360 r=19.547644180891407 stroke=""black"" stroke-width=""1.5"" fill=""none"" />
    <circle cx=506.6321739695569 cy=360 r=19.547644180891407 stroke=""black"" stroke-width=""1.5"" fill=""none"" />
    <circle cx=420.41999999999996 cy=446.21217396955694 r=19.547644180891407 stroke=""black"" stroke-width=""1.5"" fill=""none"" />
    <circle cx=334.207826030443 cy=360 r=19.547644180891407 stroke=""black"" stroke-width=""1.5"" fill=""none"" />
    <circle cx=420.41999999999996 cy=273.78782603044306 r=19.547644180891407 stroke=""black"" stroke-width=""1.5"" fill=""none"" />
    <polygon points = ""420.41999999999996,360 425.9186545698638,379.5476441808914 414.9213454301361,379.5476441808914"" stroke=""white"" stroke-width=""3"" fill = ""white"" />
    
    </svg>
    </div>
        ","","","","","","","","","","","","stimulus","","","","","","","","","","","","","","","","",""
"html-keyboard-response","66","218348","0.0-66.0","644.5","arrowdown","","
    <div style="" display: block;  position: relative;"">
    
    <svg width=1280 height=720>
    <circle cx=577 cy=360 r=13.683350926623984 stroke=""black"" stroke-width=""1"" fill=""black"" />
    <circle cx=506.6321739695569 cy=360 r=19.547644180891407 stroke=""none"" stroke-width=""1.5"" fill=""none"" />
    <circle cx=420.41999999999996 cy=446.21217396955694 r=19.547644180891407 stroke=""none"" stroke-width=""1.5"" fill=""none"" />
    <circle cx=334.207826030443 cy=360 r=19.547644180891407 stroke=""none"" stroke-width=""1.5"" fill=""none"" />
    <circle cx=420.41999999999996 cy=273.78782603044306 r=19.547644180891407 stroke=""none"" stroke-width=""1.5"" fill=""none"" />
    <polygon points = ""420.41999999999996,360 425.9186545698638,379.5476441808914 414.9213454301361,379.5476441808914"" stroke=""none"" stroke-width=""3"" fill = ""none"" />
    
    </svg>
    </div>
        ","","","","","","","","","","","","get_response","true","R087yRoOIoPpLFOM","","","true","false","true","156.58","4","546.694","86.21217396955696","2.2","1","0","","",""
"html-keyboard-response","67","218856","0.0-67.0","null","null","","
    <div style="" display: block;  position: relative;"">
    
    <svg width=1280 height=720>
    <circle cx=577 cy=360 r=13.683350926623984 stroke=""black"" stroke-width=""1"" fill=""black"" />
    <circle cx=506.6321739695569 cy=360 r=19.547644180891407 stroke=""none"" stroke-width=""1.5"" fill=""none"" />
    <circle cx=420.41999999999996 cy=446.21217396955694 r=19.547644180891407 stroke=""none"" stroke-width=""1.5"" fill=""none"" />
    <circle cx=334.207826030443 cy=360 r=19.547644180891407 stroke=""none"" stroke-width=""1.5"" fill=""none"" />
    <circle cx=420.41999999999996 cy=273.78782603044306 r=19.547644180891407 stroke=""none"" stroke-width=""1.5"" fill=""none"" />
    <polygon points = ""420.41999999999996,360 425.9186545698638,379.5476441808914 414.9213454301361,379.5476441808914"" stroke=""none"" stroke-width=""3"" fill = ""none"" />
    
    </svg>
    </div>
        ","","","","","","","","","","","","","","","","","","","","","","","","","","","","",""
"html-keyboard-response","68","219012","0.0-68.0","null","null","","
    <div style="" display: block;  position: relative;"">
    <svg width=1280 height=720>
    
    <circle cx=577 cy=360 r=13.683350926623984 stroke=""black"" stroke-width=""1"" fill=""black"" />
    <circle cx=733.58 cy=360 r=19.547644180891407 stroke=""black"" stroke-width=""1.5"" fill=""none"" />
    <circle cx=811.9547036086882 cy=360 r=19.547644180891407 stroke=""black"" stroke-width=""1.5"" fill=""none"" />
    <circle cx=733.58 cy=438.37470360868815 r=19.547644180891407 stroke=""black"" stroke-width=""1.5"" fill=""none"" />
    <circle cx=655.2052963913119 cy=360 r=19.547644180891407 stroke=""black"" stroke-width=""1.5"" fill=""none"" />
    <circle cx=733.58 cy=281.62529639131185 r=19.547644180891407 stroke=""black"" stroke-width=""1.5"" fill=""none"" />
    <polygon points = ""733.58,360 739.0786545698639,340.4523558191086 728.0813454301361,340.4523558191086"" stroke=""white"" stroke-width=""3"" fill = ""white"" />
    
    </svg>
    </div>
        ","","","","","","","","","","","","stimulus","","","","","","","","","","","","","","","","",""
"html-keyboard-response","69","219397","0.0-69.0","384","arrowup","","
    <div style="" display: block;  position: relative;"">
    
    <svg width=1280 height=720>
    <circle cx=577 cy=360 r=13.683350926623984 stroke=""black"" stroke-width=""1"" fill=""black"" />
    <circle cx=811.9547036086882 cy=360 r=19.547644180891407 stroke=""none"" stroke-width=""1.5"" fill=""none"" />
    <circle cx=733.58 cy=438.37470360868815 r=19.547644180891407 stroke=""none"" stroke-width=""1.5"" fill=""none"" />
    <circle cx=655.2052963913119 cy=360 r=19.547644180891407 stroke=""none"" stroke-width=""1.5"" fill=""none"" />
    <circle cx=733.58 cy=281.62529639131185 r=19.547644180891407 stroke=""none"" stroke-width=""1.5"" fill=""none"" />
    <polygon points = ""733.58,360 739.0786545698639,340.4523558191086 728.0813454301361,340.4523558191086"" stroke=""none"" stroke-width=""3"" fill = ""none"" />
    
    </svg>
    </div>
        ","","","","","","","","","","","","get_response","true","R087yRoOIoPpLFOM","","","false","true","true","156.58","4","546.694","78.37470360868814","2","1","0","","",""
"html-keyboard-response","70","219914","0.0-70.0","null","null","","
    <div style="" display: block;  position: relative;"">
    
    <svg width=1280 height=720>
    <circle cx=577 cy=360 r=13.683350926623984 stroke=""black"" stroke-width=""1"" fill=""black"" />
    <circle cx=811.9547036086882 cy=360 r=19.547644180891407 stroke=""none"" stroke-width=""1.5"" fill=""none"" />
    <circle cx=733.58 cy=438.37470360868815 r=19.547644180891407 stroke=""none"" stroke-width=""1.5"" fill=""none"" />
    <circle cx=655.2052963913119 cy=360 r=19.547644180891407 stroke=""none"" stroke-width=""1.5"" fill=""none"" />
    <circle cx=733.58 cy=281.62529639131185 r=19.547644180891407 stroke=""none"" stroke-width=""1.5"" fill=""none"" />
    <polygon points = ""733.58,360 739.0786545698639,340.4523558191086 728.0813454301361,340.4523558191086"" stroke=""none"" stroke-width=""3"" fill = ""none"" />
    
    </svg>
    </div>
        ","","","","","","","","","","","","","","","","","","","","","","","","","","","","",""
"html-keyboard-response","71","220069","0.0-71.0","null","null","","
    <div style="" display: block;  position: relative;"">
    <svg width=1280 height=720>
    
    <circle cx=577 cy=360 r=13.683350926623984 stroke=""black"" stroke-width=""1"" fill=""black"" />
    <circle cx=733.58 cy=360 r=19.547644180891407 stroke=""black"" stroke-width=""1.5"" fill=""none"" />
    <circle cx=804.8297305533529 cy=360 r=19.547644180891407 stroke=""black"" stroke-width=""1.5"" fill=""none"" />
    <circle cx=733.58 cy=431.24973055335283 r=19.547644180891407 stroke=""black"" stroke-width=""1.5"" fill=""none"" />
    <circle cx=662.3302694466472 cy=360 r=19.547644180891407 stroke=""black"" stroke-width=""1.5"" fill=""none"" />
    <circle cx=733.58 cy=288.75026944664717 r=19.547644180891407 stroke=""black"" stroke-width=""1.5"" fill=""none"" />
    <polygon points = ""733.58,360 739.0786545698639,379.5476441808914 728.0813454301361,379.5476441808914"" stroke=""white"" stroke-width=""3"" fill = ""white"" />
    
    </svg>
    </div>
        ","","","","","","","","","","","","stimulus","","","","","","","","","","","","","","","","",""
"html-keyboard-response","72","220403","0.0-72.0","333.60000002384186","arrowdown","","
    <div style="" display: block;  position: relative;"">
    
    <svg width=1280 height=720>
    <circle cx=577 cy=360 r=13.683350926623984 stroke=""black"" stroke-width=""1"" fill=""black"" />
    <circle cx=804.8297305533529 cy=360 r=19.547644180891407 stroke=""none"" stroke-width=""1.5"" fill=""none"" />
    <circle cx=733.58 cy=431.24973055335283 r=19.547644180891407 stroke=""none"" stroke-width=""1.5"" fill=""none"" />
    <circle cx=662.3302694466472 cy=360 r=19.547644180891407 stroke=""none"" stroke-width=""1.5"" fill=""none"" />
    <circle cx=733.58 cy=288.75026944664717 r=19.547644180891407 stroke=""none"" stroke-width=""1.5"" fill=""none"" />
    <polygon points = ""733.58,360 739.0786545698639,379.5476441808914 728.0813454301361,379.5476441808914"" stroke=""none"" stroke-width=""3"" fill = ""none"" />
    
    </svg>
    </div>
        ","","","","","","","","","","","","get_response","true","R087yRoOIoPpLFOM","","","false","false","true","156.58","4","546.694","71.24973055335285","1.82","1","0","","",""
"html-keyboard-response","73","220908","0.0-73.0","null","null","","
    <div style="" display: block;  position: relative;"">
    
    <svg width=1280 height=720>
    <circle cx=577 cy=360 r=13.683350926623984 stroke=""black"" stroke-width=""1"" fill=""black"" />
    <circle cx=804.8297305533529 cy=360 r=19.547644180891407 stroke=""none"" stroke-width=""1.5"" fill=""none"" />
    <circle cx=733.58 cy=431.24973055335283 r=19.547644180891407 stroke=""none"" stroke-width=""1.5"" fill=""none"" />
    <circle cx=662.3302694466472 cy=360 r=19.547644180891407 stroke=""none"" stroke-width=""1.5"" fill=""none"" />
    <circle cx=733.58 cy=288.75026944664717 r=19.547644180891407 stroke=""none"" stroke-width=""1.5"" fill=""none"" />
    <polygon points = ""733.58,360 739.0786545698639,379.5476441808914 728.0813454301361,379.5476441808914"" stroke=""none"" stroke-width=""3"" fill = ""none"" />
    
    </svg>
    </div>
        ","","","","","","","","","","","","","","","","","","","","","","","","","","","","",""
"html-keyboard-response","74","221063","0.0-74.0","null","null","","
    <div style="" display: block;  position: relative;"">
    <svg width=1280 height=720>
    
    <circle cx=577 cy=360 r=13.683350926623984 stroke=""black"" stroke-width=""1"" fill=""black"" />
    <circle cx=420.41999999999996 cy=360 r=19.547644180891407 stroke=""black"" stroke-width=""1.5"" fill=""none"" />
    <circle cx=485.1924823212298 cy=360 r=19.547644180891407 stroke=""black"" stroke-width=""1.5"" fill=""none"" />
    <circle cx=420.41999999999996 cy=424.77248232122986 r=19.547644180891407 stroke=""black"" stroke-width=""1.5"" fill=""none"" />
    <circle cx=355.6475176787701 cy=360 r=19.547644180891407 stroke=""black"" stroke-width=""1.5"" fill=""none"" />
    <circle cx=420.41999999999996 cy=295.22751767877014 r=19.547644180891407 stroke=""black"" stroke-width=""1.5"" fill=""none"" />
    <polygon points = ""420.41999999999996,360 425.9186545698638,340.4523558191086 414.9213454301361,340.4523558191086"" stroke=""white"" stroke-width=""3"" fill = ""white"" />
    
    </svg>
    </div>
        ","","","","","","","","","","","","stimulus","","","","","","","","","","","","","","","","",""
"html-keyboard-response","75","221558","0.0-75.0","493.39999997615814","arrowup","","
    <div style="" display: block;  position: relative;"">
    
    <svg width=1280 height=720>
    <circle cx=577 cy=360 r=13.683350926623984 stroke=""black"" stroke-width=""1"" fill=""black"" />
    <circle cx=485.1924823212298 cy=360 r=19.547644180891407 stroke=""none"" stroke-width=""1.5"" fill=""none"" />
    <circle cx=420.41999999999996 cy=424.77248232122986 r=19.547644180891407 stroke=""none"" stroke-width=""1.5"" fill=""none"" />
    <circle cx=355.6475176787701 cy=360 r=19.547644180891407 stroke=""none"" stroke-width=""1.5"" fill=""none"" />
    <circle cx=420.41999999999996 cy=295.22751767877014 r=19.547644180891407 stroke=""none"" stroke-width=""1.5"" fill=""none"" />
    <polygon points = ""420.41999999999996,360 425.9186545698638,340.4523558191086 414.9213454301361,340.4523558191086"" stroke=""none"" stroke-width=""3"" fill = ""none"" />
    
    </svg>
    </div>
        ","","","","","","","","","","","","get_response","true","R087yRoOIoPpLFOM","","","true","true","true","156.58","4","546.694","64.77248232122986","1.65","1","0","","",""
"html-keyboard-response","76","222070","0.0-76.0","null","null","","
    <div style="" display: block;  position: relative;"">
    
    <svg width=1280 height=720>
    <circle cx=577 cy=360 r=13.683350926623984 stroke=""black"" stroke-width=""1"" fill=""black"" />
    <circle cx=485.1924823212298 cy=360 r=19.547644180891407 stroke=""none"" stroke-width=""1.5"" fill=""none"" />
    <circle cx=420.41999999999996 cy=424.77248232122986 r=19.547644180891407 stroke=""none"" stroke-width=""1.5"" fill=""none"" />
    <circle cx=355.6475176787701 cy=360 r=19.547644180891407 stroke=""none"" stroke-width=""1.5"" fill=""none"" />
    <circle cx=420.41999999999996 cy=295.22751767877014 r=19.547644180891407 stroke=""none"" stroke-width=""1.5"" fill=""none"" />
    <polygon points = ""420.41999999999996,360 425.9186545698638,340.4523558191086 414.9213454301361,340.4523558191086"" stroke=""none"" stroke-width=""3"" fill = ""none"" />
    
    </svg>
    </div>
        ","","","","","","","","","","","","","","","","","","","","","","","","","","","","",""
"html-keyboard-response","77","222223","0.0-77.0","null","null","","
    <div style="" display: block;  position: relative;"">
    <svg width=1280 height=720>
    
    <circle cx=577 cy=360 r=13.683350926623984 stroke=""black"" stroke-width=""1"" fill=""black"" />
    <circle cx=420.41999999999996 cy=360 r=19.547644180891407 stroke=""black"" stroke-width=""1.5"" fill=""none"" />
    <circle cx=479.30407483748166 cy=360 r=19.547644180891407 stroke=""black"" stroke-width=""1.5"" fill=""none"" />
    <circle cx=420.41999999999996 cy=418.8840748374817 r=19.547644180891407 stroke=""black"" stroke-width=""1.5"" fill=""none"" />
    <circle cx=361.53592516251825 cy=360 r=19.547644180891407 stroke=""black"" stroke-width=""1.5"" fill=""none"" />
    <circle cx=420.41999999999996 cy=301.1159251625183 r=19.547644180891407 stroke=""black"" stroke-width=""1.5"" fill=""none"" />
    <polygon points = ""420.41999999999996,360 425.9186545698638,340.4523558191086 414.9213454301361,340.4523558191086"" stroke=""white"" stroke-width=""3"" fill = ""white"" />
    
    </svg>
    </div>
        ","","","","","","","","","","","","stimulus","","","","","","","","","","","","","","","","",""
"html-keyboard-response","78","222717","0.0-78.0","492.5","arrowup","","
    <div style="" display: block;  position: relative;"">
    
    <svg width=1280 height=720>
    <circle cx=577 cy=360 r=13.683350926623984 stroke=""black"" stroke-width=""1"" fill=""black"" />
    <circle cx=479.30407483748166 cy=360 r=19.547644180891407 stroke=""none"" stroke-width=""1.5"" fill=""none"" />
    <circle cx=420.41999999999996 cy=418.8840748374817 r=19.547644180891407 stroke=""none"" stroke-width=""1.5"" fill=""none"" />
    <circle cx=361.53592516251825 cy=360 r=19.547644180891407 stroke=""none"" stroke-width=""1.5"" fill=""none"" />
    <circle cx=420.41999999999996 cy=301.1159251625183 r=19.547644180891407 stroke=""none"" stroke-width=""1.5"" fill=""none"" />
    <polygon points = ""420.41999999999996,360 425.9186545698638,340.4523558191086 414.9213454301361,340.4523558191086"" stroke=""none"" stroke-width=""3"" fill = ""none"" />
    
    </svg>
    </div>
        ","","","","","","","","","","","","get_response","true","R087yRoOIoPpLFOM","","","true","true","true","156.58","4","546.694","58.884074837481684","1.5","1","0","","",""
"html-keyboard-response","79","223218","0.0-79.0","null","null","","
    <div style="" display: block;  position: relative;"">
    
    <svg width=1280 height=720>
    <circle cx=577 cy=360 r=13.683350926623984 stroke=""black"" stroke-width=""1"" fill=""black"" />
    <circle cx=479.30407483748166 cy=360 r=19.547644180891407 stroke=""none"" stroke-width=""1.5"" fill=""none"" />
    <circle cx=420.41999999999996 cy=418.8840748374817 r=19.547644180891407 stroke=""none"" stroke-width=""1.5"" fill=""none"" />
    <circle cx=361.53592516251825 cy=360 r=19.547644180891407 stroke=""none"" stroke-width=""1.5"" fill=""none"" />
    <circle cx=420.41999999999996 cy=301.1159251625183 r=19.547644180891407 stroke=""none"" stroke-width=""1.5"" fill=""none"" />
    <polygon points = ""420.41999999999996,360 425.9186545698638,340.4523558191086 414.9213454301361,340.4523558191086"" stroke=""none"" stroke-width=""3"" fill = ""none"" />
    
    </svg>
    </div>
        ","","","","","","","","","","","","","","","","","","","","","","","","","","","","",""
"html-keyboard-response","80","223373","0.0-80.0","null","null","","
    <div style="" display: block;  position: relative;"">
    <svg width=1280 height=720>
    
    <circle cx=577 cy=360 r=13.683350926623984 stroke=""black"" stroke-width=""1"" fill=""black"" />
    <circle cx=420.41999999999996 cy=360 r=19.547644180891407 stroke=""black"" stroke-width=""1.5"" fill=""none"" />
    <circle cx=473.9509771249833 cy=360 r=19.547644180891407 stroke=""black"" stroke-width=""1.5"" fill=""none"" />
    <circle cx=420.41999999999996 cy=413.53097712498334 r=19.547644180891407 stroke=""black"" stroke-width=""1.5"" fill=""none"" />
    <circle cx=366.8890228750166 cy=360 r=19.547644180891407 stroke=""black"" stroke-width=""1.5"" fill=""none"" />
    <circle cx=420.41999999999996 cy=306.46902287501666 r=19.547644180891407 stroke=""black"" stroke-width=""1.5"" fill=""none"" />
    <polygon points = ""420.41999999999996,360 425.9186545698638,379.5476441808914 414.9213454301361,379.5476441808914"" stroke=""white"" stroke-width=""3"" fill = ""white"" />
    
    </svg>
    </div>
        ","","","","","","","","","","","","stimulus","","","","","","","","","","","","","","","","",""
"html-keyboard-response","81","224061","0.0-81.0","686.6000000238419","arrowdown","","
    <div style="" display: block;  position: relative;"">
    
    <svg width=1280 height=720>
    <circle cx=577 cy=360 r=13.683350926623984 stroke=""black"" stroke-width=""1"" fill=""black"" />
    <circle cx=473.9509771249833 cy=360 r=19.547644180891407 stroke=""none"" stroke-width=""1.5"" fill=""none"" />
    <circle cx=420.41999999999996 cy=413.53097712498334 r=19.547644180891407 stroke=""none"" stroke-width=""1.5"" fill=""none"" />
    <circle cx=366.8890228750166 cy=360 r=19.547644180891407 stroke=""none"" stroke-width=""1.5"" fill=""none"" />
    <circle cx=420.41999999999996 cy=306.46902287501666 r=19.547644180891407 stroke=""none"" stroke-width=""1.5"" fill=""none"" />
    <polygon points = ""420.41999999999996,360 425.9186545698638,379.5476441808914 414.9213454301361,379.5476441808914"" stroke=""none"" stroke-width=""3"" fill = ""none"" />
    
    </svg>
    </div>
        ","","","","","","","","","","","","get_response","true","R087yRoOIoPpLFOM","","","true","false","true","156.58","4","546.694","53.530977124983345","1.37","1","0","","",""
"html-keyboard-response","82","224567","0.0-82.0","null","null","","
    <div style="" display: block;  position: relative;"">
    
    <svg width=1280 height=720>
    <circle cx=577 cy=360 r=13.683350926623984 stroke=""black"" stroke-width=""1"" fill=""black"" />
    <circle cx=473.9509771249833 cy=360 r=19.547644180891407 stroke=""none"" stroke-width=""1.5"" fill=""none"" />
    <circle cx=420.41999999999996 cy=413.53097712498334 r=19.547644180891407 stroke=""none"" stroke-width=""1.5"" fill=""none"" />
    <circle cx=366.8890228750166 cy=360 r=19.547644180891407 stroke=""none"" stroke-width=""1.5"" fill=""none"" />
    <circle cx=420.41999999999996 cy=306.46902287501666 r=19.547644180891407 stroke=""none"" stroke-width=""1.5"" fill=""none"" />
    <polygon points = ""420.41999999999996,360 425.9186545698638,379.5476441808914 414.9213454301361,379.5476441808914"" stroke=""none"" stroke-width=""3"" fill = ""none"" />
    
    </svg>
    </div>
        ","","","","","","","","","","","","","","","","","","","","","","","","","","","","",""
"html-keyboard-response","83","224722","0.0-83.0","null","null","","
    <div style="" display: block;  position: relative;"">
    <svg width=1280 height=720>
    
    <circle cx=577 cy=360 r=13.683350926623984 stroke=""black"" stroke-width=""1"" fill=""black"" />
    <circle cx=420.41999999999996 cy=360 r=19.547644180891407 stroke=""black"" stroke-width=""1.5"" fill=""none"" />
    <circle cx=469.0845246590757 cy=360 r=19.547644180891407 stroke=""black"" stroke-width=""1.5"" fill=""none"" />
    <circle cx=420.41999999999996 cy=408.66452465907577 r=19.547644180891407 stroke=""black"" stroke-width=""1.5"" fill=""none"" />
    <circle cx=371.7554753409242 cy=360 r=19.547644180891407 stroke=""black"" stroke-width=""1.5"" fill=""none"" />
    <circle cx=420.41999999999996 cy=311.33547534092423 r=19.547644180891407 stroke=""black"" stroke-width=""1.5"" fill=""none"" />
    <polygon points = ""420.41999999999996,360 425.9186545698638,340.4523558191086 414.9213454301361,340.4523558191086"" stroke=""white"" stroke-width=""3"" fill = ""white"" />
    
    </svg>
    </div>
        ","","","","","","","","","","","","stimulus","","","","","","","","","","","","","","","","",""
"html-keyboard-response","84","225326","0.0-84.0","604","arrowdown","","
    <div style="" display: block;  position: relative;"">
    
    <svg width=1280 height=720>
    <circle cx=577 cy=360 r=13.683350926623984 stroke=""black"" stroke-width=""1"" fill=""black"" />
    <circle cx=469.0845246590757 cy=360 r=19.547644180891407 stroke=""none"" stroke-width=""1.5"" fill=""none"" />
    <circle cx=420.41999999999996 cy=408.66452465907577 r=19.547644180891407 stroke=""none"" stroke-width=""1.5"" fill=""none"" />
    <circle cx=371.7554753409242 cy=360 r=19.547644180891407 stroke=""none"" stroke-width=""1.5"" fill=""none"" />
    <circle cx=420.41999999999996 cy=311.33547534092423 r=19.547644180891407 stroke=""none"" stroke-width=""1.5"" fill=""none"" />
    <polygon points = ""420.41999999999996,360 425.9186545698638,340.4523558191086 414.9213454301361,340.4523558191086"" stroke=""none"" stroke-width=""3"" fill = ""none"" />
    
    </svg>
    </div>
        ","","","","","","","","","","","","get_response","false","R087yRoOIoPpLFOM","","","true","true","true","156.58","4","546.694","48.66452465907577","1.24","1","0","","",""
"html-keyboard-response","85","225840","0.0-85.0","null","null","","
    <div style="" display: block;  position: relative;"">
    
    <svg width=1280 height=720>
    <circle cx=577 cy=360 r=13.683350926623984 stroke=""black"" stroke-width=""1"" fill=""black"" />
    <circle cx=469.0845246590757 cy=360 r=19.547644180891407 stroke=""none"" stroke-width=""1.5"" fill=""none"" />
    <circle cx=420.41999999999996 cy=408.66452465907577 r=19.547644180891407 stroke=""none"" stroke-width=""1.5"" fill=""none"" />
    <circle cx=371.7554753409242 cy=360 r=19.547644180891407 stroke=""none"" stroke-width=""1.5"" fill=""none"" />
    <circle cx=420.41999999999996 cy=311.33547534092423 r=19.547644180891407 stroke=""none"" stroke-width=""1.5"" fill=""none"" />
    <polygon points = ""420.41999999999996,360 425.9186545698638,340.4523558191086 414.9213454301361,340.4523558191086"" stroke=""none"" stroke-width=""3"" fill = ""none"" />
    
    </svg>
    </div>
        ","","","","","","","","","","","","","","","","","","","","","","","","","","","","",""
"html-keyboard-response","86","225996","0.0-86.0","null","null","","
    <div style="" display: block;  position: relative;"">
    <svg width=1280 height=720>
    
    <circle cx=577 cy=360 r=13.683350926623984 stroke=""black"" stroke-width=""1"" fill=""black"" />
    <circle cx=733.58 cy=360 r=19.547644180891407 stroke=""black"" stroke-width=""1.5"" fill=""none"" />
    <circle cx=796.8438820567985 cy=360 r=19.547644180891407 stroke=""black"" stroke-width=""1.5"" fill=""none"" />
    <circle cx=733.58 cy=423.2638820567985 r=19.547644180891407 stroke=""black"" stroke-width=""1.5"" fill=""none"" />
    <circle cx=670.3161179432016 cy=360 r=19.547644180891407 stroke=""black"" stroke-width=""1.5"" fill=""none"" />
    <circle cx=733.58 cy=296.7361179432015 r=19.547644180891407 stroke=""black"" stroke-width=""1.5"" fill=""none"" />
    <polygon points = ""733.58,360 739.0786545698639,340.4523558191086 728.0813454301361,340.4523558191086"" stroke=""white"" stroke-width=""3"" fill = ""white"" />
    
    </svg>
    </div>
        ","","","","","","","","","","","","stimulus","","","","","","","","","","","","","","","","",""
"html-keyboard-response","87","226569","0.0-87.0","571.7999999523163","arrowup","","
    <div style="" display: block;  position: relative;"">
    
    <svg width=1280 height=720>
    <circle cx=577 cy=360 r=13.683350926623984 stroke=""black"" stroke-width=""1"" fill=""black"" />
    <circle cx=796.8438820567985 cy=360 r=19.547644180891407 stroke=""none"" stroke-width=""1.5"" fill=""none"" />
    <circle cx=733.58 cy=423.2638820567985 r=19.547644180891407 stroke=""none"" stroke-width=""1.5"" fill=""none"" />
    <circle cx=670.3161179432016 cy=360 r=19.547644180891407 stroke=""none"" stroke-width=""1.5"" fill=""none"" />
    <circle cx=733.58 cy=296.7361179432015 r=19.547644180891407 stroke=""none"" stroke-width=""1.5"" fill=""none"" />
    <polygon points = ""733.58,360 739.0786545698639,340.4523558191086 728.0813454301361,340.4523558191086"" stroke=""none"" stroke-width=""3"" fill = ""none"" />
    
    </svg>
    </div>
        ","","","","","","","","","","","","get_response","true","R087yRoOIoPpLFOM","","","false","true","true","156.58","4","546.694","63.2638820567985","1.61","1","0","","",""
"html-keyboard-response","88","227082","0.0-88.0","null","null","","
    <div style="" display: block;  position: relative;"">
    
    <svg width=1280 height=720>
    <circle cx=577 cy=360 r=13.683350926623984 stroke=""black"" stroke-width=""1"" fill=""black"" />
    <circle cx=796.8438820567985 cy=360 r=19.547644180891407 stroke=""none"" stroke-width=""1.5"" fill=""none"" />
    <circle cx=733.58 cy=423.2638820567985 r=19.547644180891407 stroke=""none"" stroke-width=""1.5"" fill=""none"" />
    <circle cx=670.3161179432016 cy=360 r=19.547644180891407 stroke=""none"" stroke-width=""1.5"" fill=""none"" />
    <circle cx=733.58 cy=296.7361179432015 r=19.547644180891407 stroke=""none"" stroke-width=""1.5"" fill=""none"" />
    <polygon points = ""733.58,360 739.0786545698639,340.4523558191086 728.0813454301361,340.4523558191086"" stroke=""none"" stroke-width=""3"" fill = ""none"" />
    
    </svg>
    </div>
        ","","","","","","","","","","","","","","","","","","","","","","","","","","","","",""
"html-keyboard-response","89","227237","0.0-89.0","null","null","","
    <div style="" display: block;  position: relative;"">
    <svg width=1280 height=720>
    
    <circle cx=577 cy=360 r=13.683350926623984 stroke=""black"" stroke-width=""1"" fill=""black"" />
    <circle cx=420.41999999999996 cy=360 r=19.547644180891407 stroke=""black"" stroke-width=""1.5"" fill=""none"" />
    <circle cx=483.68388205679844 cy=360 r=19.547644180891407 stroke=""black"" stroke-width=""1.5"" fill=""none"" />
    <circle cx=420.41999999999996 cy=423.2638820567985 r=19.547644180891407 stroke=""black"" stroke-width=""1.5"" fill=""none"" />
    <circle cx=357.1561179432015 cy=360 r=19.547644180891407 stroke=""black"" stroke-width=""1.5"" fill=""none"" />
    <circle cx=420.41999999999996 cy=296.7361179432015 r=19.547644180891407 stroke=""black"" stroke-width=""1.5"" fill=""none"" />
    <polygon points = ""420.41999999999996,360 425.9186545698638,379.5476441808914 414.9213454301361,379.5476441808914"" stroke=""white"" stroke-width=""3"" fill = ""white"" />
    
    </svg>
    </div>
        ","","","","","","","","","","","","stimulus","","","","","","","","","","","","","","","","",""
"html-keyboard-response","90","228021","0.0-90.0","783.1999999284744","arrowup","","
    <div style="" display: block;  position: relative;"">
    
    <svg width=1280 height=720>
    <circle cx=577 cy=360 r=13.683350926623984 stroke=""black"" stroke-width=""1"" fill=""black"" />
    <circle cx=483.68388205679844 cy=360 r=19.547644180891407 stroke=""none"" stroke-width=""1.5"" fill=""none"" />
    <circle cx=420.41999999999996 cy=423.2638820567985 r=19.547644180891407 stroke=""none"" stroke-width=""1.5"" fill=""none"" />
    <circle cx=357.1561179432015 cy=360 r=19.547644180891407 stroke=""none"" stroke-width=""1.5"" fill=""none"" />
    <circle cx=420.41999999999996 cy=296.7361179432015 r=19.547644180891407 stroke=""none"" stroke-width=""1.5"" fill=""none"" />
    <polygon points = ""420.41999999999996,360 425.9186545698638,379.5476441808914 414.9213454301361,379.5476441808914"" stroke=""none"" stroke-width=""3"" fill = ""none"" />
    
    </svg>
    </div>
        ","","","","","","","","","","","","get_response","false","R087yRoOIoPpLFOM","","","true","false","true","156.58","4","546.694","63.2638820567985","1.61","1","0","","",""
"html-keyboard-response","91","228525","0.0-91.0","null","null","","
    <div style="" display: block;  position: relative;"">
    
    <svg width=1280 height=720>
    <circle cx=577 cy=360 r=13.683350926623984 stroke=""black"" stroke-width=""1"" fill=""black"" />
    <circle cx=483.68388205679844 cy=360 r=19.547644180891407 stroke=""none"" stroke-width=""1.5"" fill=""none"" />
    <circle cx=420.41999999999996 cy=423.2638820567985 r=19.547644180891407 stroke=""none"" stroke-width=""1.5"" fill=""none"" />
    <circle cx=357.1561179432015 cy=360 r=19.547644180891407 stroke=""none"" stroke-width=""1.5"" fill=""none"" />
    <circle cx=420.41999999999996 cy=296.7361179432015 r=19.547644180891407 stroke=""none"" stroke-width=""1.5"" fill=""none"" />
    <polygon points = ""420.41999999999996,360 425.9186545698638,379.5476441808914 414.9213454301361,379.5476441808914"" stroke=""none"" stroke-width=""3"" fill = ""none"" />
    
    </svg>
    </div>
        ","","","","","","","","","","","","","","","","","","","","","","","","","","","","",""
"html-keyboard-response","92","228680","0.0-92.0","null","null","","
    <div style="" display: block;  position: relative;"">
    <svg width=1280 height=720>
    
    <circle cx=577 cy=360 r=13.683350926623984 stroke=""black"" stroke-width=""1"" fill=""black"" />
    <circle cx=733.58 cy=360 r=19.547644180891407 stroke=""black"" stroke-width=""1.5"" fill=""none"" />
    <circle cx=815.8230466738381 cy=360 r=19.547644180891407 stroke=""black"" stroke-width=""1.5"" fill=""none"" />
    <circle cx=733.58 cy=442.2430466738381 r=19.547644180891407 stroke=""black"" stroke-width=""1.5"" fill=""none"" />
    <circle cx=651.336953326162 cy=360 r=19.547644180891407 stroke=""black"" stroke-width=""1.5"" fill=""none"" />
    <circle cx=733.58 cy=277.7569533261619 r=19.547644180891407 stroke=""black"" stroke-width=""1.5"" fill=""none"" />
    <polygon points = ""733.58,360 739.0786545698639,340.4523558191086 728.0813454301361,340.4523558191086"" stroke=""white"" stroke-width=""3"" fill = ""white"" />
    
    </svg>
    </div>
        ","","","","","","","","","","","","stimulus","","","","","","","","","","","","","","","","",""
"html-keyboard-response","93","229246","0.0-93.0","562.4000000953674","arrowup","","
    <div style="" display: block;  position: relative;"">
    
    <svg width=1280 height=720>
    <circle cx=577 cy=360 r=13.683350926623984 stroke=""black"" stroke-width=""1"" fill=""black"" />
    <circle cx=815.8230466738381 cy=360 r=19.547644180891407 stroke=""none"" stroke-width=""1.5"" fill=""none"" />
    <circle cx=733.58 cy=442.2430466738381 r=19.547644180891407 stroke=""none"" stroke-width=""1.5"" fill=""none"" />
    <circle cx=651.336953326162 cy=360 r=19.547644180891407 stroke=""none"" stroke-width=""1.5"" fill=""none"" />
    <circle cx=733.58 cy=277.7569533261619 r=19.547644180891407 stroke=""none"" stroke-width=""1.5"" fill=""none"" />
    <polygon points = ""733.58,360 739.0786545698639,340.4523558191086 728.0813454301361,340.4523558191086"" stroke=""none"" stroke-width=""3"" fill = ""none"" />
    
    </svg>
    </div>
        ","","","","","","","","","","","","get_response","true","R087yRoOIoPpLFOM","","","false","true","true","156.58","4","546.694","82.24304667383805","2.1","1","0","","",""
"html-keyboard-response","94","229750","0.0-94.0","null","null","","
    <div style="" display: block;  position: relative;"">
    
    <svg width=1280 height=720>
    <circle cx=577 cy=360 r=13.683350926623984 stroke=""black"" stroke-width=""1"" fill=""black"" />
    <circle cx=815.8230466738381 cy=360 r=19.547644180891407 stroke=""none"" stroke-width=""1.5"" fill=""none"" />
    <circle cx=733.58 cy=442.2430466738381 r=19.547644180891407 stroke=""none"" stroke-width=""1.5"" fill=""none"" />
    <circle cx=651.336953326162 cy=360 r=19.547644180891407 stroke=""none"" stroke-width=""1.5"" fill=""none"" />
    <circle cx=733.58 cy=277.7569533261619 r=19.547644180891407 stroke=""none"" stroke-width=""1.5"" fill=""none"" />
    <polygon points = ""733.58,360 739.0786545698639,340.4523558191086 728.0813454301361,340.4523558191086"" stroke=""none"" stroke-width=""3"" fill = ""none"" />
    
    </svg>
    </div>
        ","","","","","","","","","","","","","","","","","","","","","","","","","","","","",""
"html-keyboard-response","95","229905","0.0-95.0","null","null","","
    <div style="" display: block;  position: relative;"">
    <svg width=1280 height=720>
    
