,trial_type,trial_index,time_elapsed,internal_node_id,rt,response,success,stimulus,start_time,start_time_unix,item_width_mm,item_height_mm,item_width_px,px2mm,view_dist_mm,item_width_deg,px2deg,win_width_deg,win_height_deg,trialType,correct,participantID,criticalSpacing,criticalSpacing_deg,isLeft,isUp,isEccen4,eccentricity,eccentricity_deg,viewingDistanceMean,critical_spacing,critical_spacing_deg,crowding_session,correctRate,viewDistance_1,viewDistance_2,viewDistance_3,age
0,pavlovia,0,17,0.0-0.0,,,,,,,,,,,,,,,,,,,,,,,,,,,,,,,,,,22
2,fullscreen,2,26105,0.0-2.0,,,True,,,,,,,,,,,,,,,,,,,,,,,,,,,,,,,22
3,html-keyboard-response,3,51059,0.0-3.0,24952.39999999851, ,,"<h1>Consent Form</h1>
       <p>By answering the following questions, you are participating in a study being performed by cognitive scientists in the Stanford Department of Psychology. If you have questions about this research, please contact us at stanfordpsych251@gmail.com. You must be at least 18 years old to participate. Your participation in this research is voluntary. You may decline to answer any or all of the following questions. You may decline further participation by closing the window, at any time, without adverse consequences. Your anonymity is assured; the researchers who have requested your participation will not receive any personal information about you.</p>
       <p>Press <b>any key</b> to start the experiment!</p>",,,,,,,,,,,,,,,,,,,,,,,,,,,,,,22
4,html-keyboard-response,4,54424,0.0-4.0,3368.29999999702, ,,"<h1>Welcome to the Visual Crowding Experiment!</h1>
       <p>This test will take <b>10-12</b> minutes to complete.</p>
       <p>Press any key to start the experiment!</p>","12/1/2021, 9:20:14 AM",1638343214494.0,,,,,,,,,,,,,,,,,,,,,,,,,,,,22
5,html-keyboard-response,5,74052,0.0-5.0,19626.90000000596,arrowdown,,"<div> 
<p> Before you begin this study, let&#39;s quickly test how far away you are sitting. You might know that vision tests at a doctor&#39;s practice often involve chinrests, the doctor basically asks you to sit away from a screen in a specific distance. We do this here with a <b>virtual chinrest</b>. </p>
<p> Please press the <b>down</b> arrow to continue.
</p>
</div>",,,,,,,,,,,,,,,,,,,,,,,,,,,,,,22
6,virtual-chinrest,6,296290,0.0-6.0,222231.1000000015,,,,,,85.6,53.98,343.0,4.01,542.8,9.016934500882025,38.039535494734736,35.91000737085961,20.189520981566748,,,,,,,,,,,,,,,,,,,22
7,html-keyboard-response,7,411652,0.0-7.0,115359.5,arrowdown,,"
	<h2 class=""bolded-blue"">Now, you will take a peripheral vision test!</h2>
<p> 
	<b>
		<font size=""140%"">1. </font>
	</b>
	<em><b>Please use both eyes for the following task.</b></em> First, you will see a screen (like the one in the image below) showing a <b>black dot</b> in the middle of the screen, with a group of circles displayed on either the <span class=""bolded-blue"">left</span> or <span class=""bolded-blue"">right</span> of the black dot for 150 ms. <span class=""bolded-blue"">Please make sure to focus on the black dot all the time!</span>

	<div>
		<img src=""example.png"" alt=""example"" style=""border: 2px solid black"" width=""600""/> 
	</div>
	
	<b>
		<font size=""140%"">2. </font>
	</b>
	Your task is to identify whether the opening of the <b class=""bolded-blue"">center circle</b> is upward by pressing UP or downward by pressing DOWN on your keyboard. The opening of the circle will only be upward or downward, not towards left or right.

	<div>
		<img src=""arrow_keys+.png"" alt=""arrows"" style=""border: 2px solid black"" width=""600""/>
	</div>
	<br>

<p>Please press the <b>down</b> arrow key to start the <span class=""bolded-blue"">practice task</span> (this first practice task will not count toward your final results).</p>
</p>
",,,,,,,,,,,,,,,,,,,,,,,,,,,,,,22
8,html-keyboard-response,8,412168,0.0-8.0,,,,"
    <div style="" display: block;  position: relative;"">
    
    <svg width=1366 height=768>
    <circle cx=620 cy=384 r=11.356115776181754 stroke=""black"" stroke-width=""1"" fill=""black"" />
    <circle cx=NaN cy=384 r=16.223022537402507 stroke=""none"" stroke-width=""1.5"" fill=""none"" />
    <circle cx=425.47 cy=NaN r=16.223022537402507 stroke=""none"" stroke-width=""1.5"" fill=""none"" />
    <circle cx=NaN cy=384 r=16.223022537402507 stroke=""none"" stroke-width=""1.5"" fill=""none"" />
    <circle cx=425.47 cy=NaN r=16.223022537402507 stroke=""none"" stroke-width=""1.5"" fill=""none"" />
    <polygon points = ""425.47,384 430.03345512465864,400.2230225374025 420.9065448753414,400.2230225374025"" stroke=""none"" stroke-width=""3"" fill = ""none"" />
    
    </svg>
    </div>
        ",,,,,,,,,,,,,,,,,,,,,,,,,,,,,,22
9,html-keyboard-response,9,412331,0.0-9.0,,,,"
    <div style="" display: block;  position: relative;"">
    <svg width=1366 height=768>
    
    <circle cx=620 cy=384 r=11.356115776181754 stroke=""black"" stroke-width=""1"" fill=""black"" />
    <circle cx=814.53 cy=384 r=16.223022537402507 stroke=""black"" stroke-width=""1.5"" fill=""none"" />
    <circle cx=940.9745 cy=384 r=16.223022537402507 stroke=""black"" stroke-width=""1.5"" fill=""none"" />
    <circle cx=814.53 cy=510.4445 r=16.223022537402507 stroke=""black"" stroke-width=""1.5"" fill=""none"" />
    <circle cx=688.0854999999999 cy=384 r=16.223022537402507 stroke=""black"" stroke-width=""1.5"" fill=""none"" />
    <circle cx=814.53 cy=257.5555 r=16.223022537402507 stroke=""black"" stroke-width=""1.5"" fill=""none"" />
    <polygon points = ""814.53,384 819.0934551246586,400.2230225374025 809.9665448753414,400.2230225374025"" stroke=""white"" stroke-width=""3"" fill = ""white"" />
    
    </svg>
    </div>
        ",,,,,,,,,,,,stimulus,,,,,,,,,,,,,,,,,,22
10,html-keyboard-response,10,413033,0.0-10.0,700.5,arrowdown,,"
    <div style="" display: block;  position: relative;"">
    
    <svg width=1366 height=768>
    <circle cx=620 cy=384 r=11.356115776181754 stroke=""black"" stroke-width=""1"" fill=""black"" />
    <circle cx=940.9745 cy=384 r=16.223022537402507 stroke=""none"" stroke-width=""1.5"" fill=""none"" />
    <circle cx=814.53 cy=510.4445 r=16.223022537402507 stroke=""none"" stroke-width=""1.5"" fill=""none"" />
    <circle cx=688.0854999999999 cy=384 r=16.223022537402507 stroke=""none"" stroke-width=""1.5"" fill=""none"" />
    <circle cx=814.53 cy=257.5555 r=16.223022537402507 stroke=""none"" stroke-width=""1.5"" fill=""none"" />
    <polygon points = ""814.53,384 819.0934551246586,400.2230225374025 809.9665448753414,400.2230225374025"" stroke=""none"" stroke-width=""3"" fill = ""none"" />
    
    </svg>
    </div>
        ",,,,,,,,,,,,practice_get_response,True,t6CGd8n4800pN4X3,126.4445,3.89,False,False,False,194.53,6.0,465.0280000000001,,,,,,,,22
11,html-keyboard-response,11,413555,0.0-11.0,,,,"
    <div style="" display: block;  position: relative;"">
    
    <svg width=1366 height=768>
    <circle cx=620 cy=384 r=11.356115776181754 stroke=""black"" stroke-width=""1"" fill=""black"" />
    <circle cx=940.9745 cy=384 r=16.223022537402507 stroke=""none"" stroke-width=""1.5"" fill=""none"" />
    <circle cx=814.53 cy=510.4445 r=16.223022537402507 stroke=""none"" stroke-width=""1.5"" fill=""none"" />
    <circle cx=688.0854999999999 cy=384 r=16.223022537402507 stroke=""none"" stroke-width=""1.5"" fill=""none"" />
    <circle cx=814.53 cy=257.5555 r=16.223022537402507 stroke=""none"" stroke-width=""1.5"" fill=""none"" />
    <polygon points = ""814.53,384 819.0934551246586,400.2230225374025 809.9665448753414,400.2230225374025"" stroke=""none"" stroke-width=""3"" fill = ""none"" />
    
    </svg>
    </div>
        ",,,,,,,,,,,,,,,,,,,,,,,,,,,,,,22
12,html-keyboard-response,12,413718,0.0-12.0,,,,"
    <div style="" display: block;  position: relative;"">
    <svg width=1366 height=768>
    
    <circle cx=620 cy=384 r=11.356115776181754 stroke=""black"" stroke-width=""1"" fill=""black"" />
    <circle cx=814.53 cy=384 r=16.223022537402507 stroke=""black"" stroke-width=""1.5"" fill=""none"" />
    <circle cx=940.9745 cy=384 r=16.223022537402507 stroke=""black"" stroke-width=""1.5"" fill=""none"" />
    <circle cx=814.53 cy=510.4445 r=16.223022537402507 stroke=""black"" stroke-width=""1.5"" fill=""none"" />
    <circle cx=688.0854999999999 cy=384 r=16.223022537402507 stroke=""black"" stroke-width=""1.5"" fill=""none"" />
    <circle cx=814.53 cy=257.5555 r=16.223022537402507 stroke=""black"" stroke-width=""1.5"" fill=""none"" />
    <polygon points = ""814.53,384 819.0934551246586,400.2230225374025 809.9665448753414,400.2230225374025"" stroke=""white"" stroke-width=""3"" fill = ""white"" />
    
    </svg>
    </div>
        ",,,,,,,,,,,,stimulus,,,,,,,,,,,,,,,,,,22
13,html-keyboard-response,13,414147,0.0-13.0,427.8000000044704,arrowdown,,"
    <div style="" display: block;  position: relative;"">
    
    <svg width=1366 height=768>
    <circle cx=620 cy=384 r=11.356115776181754 stroke=""black"" stroke-width=""1"" fill=""black"" />
    <circle cx=940.9745 cy=384 r=16.223022537402507 stroke=""none"" stroke-width=""1.5"" fill=""none"" />
    <circle cx=814.53 cy=510.4445 r=16.223022537402507 stroke=""none"" stroke-width=""1.5"" fill=""none"" />
    <circle cx=688.0854999999999 cy=384 r=16.223022537402507 stroke=""none"" stroke-width=""1.5"" fill=""none"" />
    <circle cx=814.53 cy=257.5555 r=16.223022537402507 stroke=""none"" stroke-width=""1.5"" fill=""none"" />
    <polygon points = ""814.53,384 819.0934551246586,400.2230225374025 809.9665448753414,400.2230225374025"" stroke=""none"" stroke-width=""3"" fill = ""none"" />
    
    </svg>
    </div>
        ",,,,,,,,,,,,practice_get_response,True,t6CGd8n4800pN4X3,126.4445,3.89,False,False,False,194.53,6.0,465.0280000000001,,,,,,,,22
14,html-keyboard-response,14,414657,0.0-14.0,,,,"
    <div style="" display: block;  position: relative;"">
    
    <svg width=1366 height=768>
    <circle cx=620 cy=384 r=11.356115776181754 stroke=""black"" stroke-width=""1"" fill=""black"" />
    <circle cx=940.9745 cy=384 r=16.223022537402507 stroke=""none"" stroke-width=""1.5"" fill=""none"" />
    <circle cx=814.53 cy=510.4445 r=16.223022537402507 stroke=""none"" stroke-width=""1.5"" fill=""none"" />
    <circle cx=688.0854999999999 cy=384 r=16.223022537402507 stroke=""none"" stroke-width=""1.5"" fill=""none"" />
    <circle cx=814.53 cy=257.5555 r=16.223022537402507 stroke=""none"" stroke-width=""1.5"" fill=""none"" />
    <polygon points = ""814.53,384 819.0934551246586,400.2230225374025 809.9665448753414,400.2230225374025"" stroke=""none"" stroke-width=""3"" fill = ""none"" />
    
    </svg>
    </div>
        ",,,,,,,,,,,,,,,,,,,,,,,,,,,,,,22
15,html-keyboard-response,15,414820,0.0-15.0,,,,"
    <div style="" display: block;  position: relative;"">
    <svg width=1366 height=768>
    
    <circle cx=620 cy=384 r=11.356115776181754 stroke=""black"" stroke-width=""1"" fill=""black"" />
    <circle cx=814.53 cy=384 r=16.223022537402507 stroke=""black"" stroke-width=""1.5"" fill=""none"" />
    <circle cx=940.9745 cy=384 r=16.223022537402507 stroke=""black"" stroke-width=""1.5"" fill=""none"" />
    <circle cx=814.53 cy=510.4445 r=16.223022537402507 stroke=""black"" stroke-width=""1.5"" fill=""none"" />
    <circle cx=688.0854999999999 cy=384 r=16.223022537402507 stroke=""black"" stroke-width=""1.5"" fill=""none"" />
    <circle cx=814.53 cy=257.5555 r=16.223022537402507 stroke=""black"" stroke-width=""1.5"" fill=""none"" />
    <polygon points = ""814.53,384 819.0934551246586,400.2230225374025 809.9665448753414,400.2230225374025"" stroke=""white"" stroke-width=""3"" fill = ""white"" />
    
    </svg>
    </div>
        ",,,,,,,,,,,,stimulus,,,,,,,,,,,,,,,,,,22
16,html-keyboard-response,16,415020,0.0-16.0,199.70000000298023,arrowdown,,"
    <div style="" display: block;  position: relative;"">
    
    <svg width=1366 height=768>
    <circle cx=620 cy=384 r=11.356115776181754 stroke=""black"" stroke-width=""1"" fill=""black"" />
    <circle cx=940.9745 cy=384 r=16.223022537402507 stroke=""none"" stroke-width=""1.5"" fill=""none"" />
    <circle cx=814.53 cy=510.4445 r=16.223022537402507 stroke=""none"" stroke-width=""1.5"" fill=""none"" />
    <circle cx=688.0854999999999 cy=384 r=16.223022537402507 stroke=""none"" stroke-width=""1.5"" fill=""none"" />
    <circle cx=814.53 cy=257.5555 r=16.223022537402507 stroke=""none"" stroke-width=""1.5"" fill=""none"" />
    <polygon points = ""814.53,384 819.0934551246586,400.2230225374025 809.9665448753414,400.2230225374025"" stroke=""none"" stroke-width=""3"" fill = ""none"" />
    
    </svg>
    </div>
        ",,,,,,,,,,,,practice_get_response,True,t6CGd8n4800pN4X3,126.4445,3.89,False,False,False,194.53,6.0,465.0280000000001,,,,,,,,22
17,html-keyboard-response,17,415537,0.0-17.0,,,,"
    <div style="" display: block;  position: relative;"">
    
    <svg width=1366 height=768>
    <circle cx=620 cy=384 r=11.356115776181754 stroke=""black"" stroke-width=""1"" fill=""black"" />
    <circle cx=940.9745 cy=384 r=16.223022537402507 stroke=""none"" stroke-width=""1.5"" fill=""none"" />
    <circle cx=814.53 cy=510.4445 r=16.223022537402507 stroke=""none"" stroke-width=""1.5"" fill=""none"" />
    <circle cx=688.0854999999999 cy=384 r=16.223022537402507 stroke=""none"" stroke-width=""1.5"" fill=""none"" />
    <circle cx=814.53 cy=257.5555 r=16.223022537402507 stroke=""none"" stroke-width=""1.5"" fill=""none"" />
    <polygon points = ""814.53,384 819.0934551246586,400.2230225374025 809.9665448753414,400.2230225374025"" stroke=""none"" stroke-width=""3"" fill = ""none"" />
    
    </svg>
    </div>
        ",,,,,,,,,,,,,,,,,,,,,,,,,,,,,,22
18,html-keyboard-response,18,415691,0.0-18.0,,,,"
    <div style="" display: block;  position: relative;"">
    <svg width=1366 height=768>
    
    <circle cx=620 cy=384 r=11.356115776181754 stroke=""black"" stroke-width=""1"" fill=""black"" />
    <circle cx=814.53 cy=384 r=16.223022537402507 stroke=""black"" stroke-width=""1.5"" fill=""none"" />
    <circle cx=929.4795454545454 cy=384 r=16.223022537402507 stroke=""black"" stroke-width=""1.5"" fill=""none"" />
    <circle cx=814.53 cy=498.94954545454544 r=16.223022537402507 stroke=""black"" stroke-width=""1.5"" fill=""none"" />
    <circle cx=699.5804545454546 cy=384 r=16.223022537402507 stroke=""black"" stroke-width=""1.5"" fill=""none"" />
    <circle cx=814.53 cy=269.05045454545456 r=16.223022537402507 stroke=""black"" stroke-width=""1.5"" fill=""none"" />
    <polygon points = ""814.53,384 819.0934551246586,400.2230225374025 809.9665448753414,400.2230225374025"" stroke=""white"" stroke-width=""3"" fill = ""white"" />
    
    </svg>
    </div>
        ",,,,,,,,,,,,stimulus,,,,,,,,,,,,,,,,,,22
19,html-keyboard-response,19,415925,0.0-19.0,233.30000000447035,arrowdown,,"
    <div style="" display: block;  position: relative;"">
    
    <svg width=1366 height=768>
    <circle cx=620 cy=384 r=11.356115776181754 stroke=""black"" stroke-width=""1"" fill=""black"" />
    <circle cx=929.4795454545454 cy=384 r=16.223022537402507 stroke=""none"" stroke-width=""1.5"" fill=""none"" />
    <circle cx=814.53 cy=498.94954545454544 r=16.223022537402507 stroke=""none"" stroke-width=""1.5"" fill=""none"" />
    <circle cx=699.5804545454546 cy=384 r=16.223022537402507 stroke=""none"" stroke-width=""1.5"" fill=""none"" />
    <circle cx=814.53 cy=269.05045454545456 r=16.223022537402507 stroke=""none"" stroke-width=""1.5"" fill=""none"" />
    <polygon points = ""814.53,384 819.0934551246586,400.2230225374025 809.9665448753414,400.2230225374025"" stroke=""none"" stroke-width=""3"" fill = ""none"" />
    
    </svg>
    </div>
        ",,,,,,,,,,,,practice_get_response,True,t6CGd8n4800pN4X3,114.94954545454544,3.54,False,False,False,194.53,6.0,465.0280000000001,,,,,,,,22
20,html-keyboard-response,20,416429,0.0-20.0,,,,"
    <div style="" display: block;  position: relative;"">
    
    <svg width=1366 height=768>
    <circle cx=620 cy=384 r=11.356115776181754 stroke=""black"" stroke-width=""1"" fill=""black"" />
    <circle cx=929.4795454545454 cy=384 r=16.223022537402507 stroke=""none"" stroke-width=""1.5"" fill=""none"" />
    <circle cx=814.53 cy=498.94954545454544 r=16.223022537402507 stroke=""none"" stroke-width=""1.5"" fill=""none"" />
    <circle cx=699.5804545454546 cy=384 r=16.223022537402507 stroke=""none"" stroke-width=""1.5"" fill=""none"" />
    <circle cx=814.53 cy=269.05045454545456 r=16.223022537402507 stroke=""none"" stroke-width=""1.5"" fill=""none"" />
    <polygon points = ""814.53,384 819.0934551246586,400.2230225374025 809.9665448753414,400.2230225374025"" stroke=""none"" stroke-width=""3"" fill = ""none"" />
    
    </svg>
    </div>
        ",,,,,,,,,,,,,,,,,,,,,,,,,,,,,,22
21,html-keyboard-response,21,416593,0.0-21.0,,,,"
    <div style="" display: block;  position: relative;"">
    <svg width=1366 height=768>
    
    <circle cx=620 cy=384 r=11.356115776181754 stroke=""black"" stroke-width=""1"" fill=""black"" />
    <circle cx=814.53 cy=384 r=16.223022537402507 stroke=""black"" stroke-width=""1.5"" fill=""none"" />
    <circle cx=919.0295867768594 cy=384 r=16.223022537402507 stroke=""black"" stroke-width=""1.5"" fill=""none"" />
    <circle cx=814.53 cy=488.4995867768595 r=16.223022537402507 stroke=""black"" stroke-width=""1.5"" fill=""none"" />
    <circle cx=710.0304132231405 cy=384 r=16.223022537402507 stroke=""black"" stroke-width=""1.5"" fill=""none"" />
    <circle cx=814.53 cy=279.5004132231405 r=16.223022537402507 stroke=""black"" stroke-width=""1.5"" fill=""none"" />
    <polygon points = ""814.53,384 819.0934551246586,367.7769774625975 809.9665448753414,367.7769774625975"" stroke=""white"" stroke-width=""3"" fill = ""white"" />
    
    </svg>
    </div>
        ",,,,,,,,,,,,stimulus,,,,,,,,,,,,,,,,,,22
22,html-keyboard-response,22,416706,0.0-22.0,112.20000000298025,arrowdown,,"
    <div style="" display: block;  position: relative;"">
    
    <svg width=1366 height=768>
    <circle cx=620 cy=384 r=11.356115776181754 stroke=""black"" stroke-width=""1"" fill=""black"" />
    <circle cx=919.0295867768594 cy=384 r=16.223022537402507 stroke=""none"" stroke-width=""1.5"" fill=""none"" />
    <circle cx=814.53 cy=488.4995867768595 r=16.223022537402507 stroke=""none"" stroke-width=""1.5"" fill=""none"" />
    <circle cx=710.0304132231405 cy=384 r=16.223022537402507 stroke=""none"" stroke-width=""1.5"" fill=""none"" />
    <circle cx=814.53 cy=279.5004132231405 r=16.223022537402507 stroke=""none"" stroke-width=""1.5"" fill=""none"" />
    <polygon points = ""814.53,384 819.0934551246586,367.7769774625975 809.9665448753414,367.7769774625975"" stroke=""none"" stroke-width=""3"" fill = ""none"" />
    
    </svg>
    </div>
        ",,,,,,,,,,,,practice_get_response,False,t6CGd8n4800pN4X3,104.49958677685947,3.21,False,True,False,194.53,6.0,465.0280000000001,,,,,,,,22
23,html-keyboard-response,23,423054,0.0-23.0,6346.20000000298,arrowdown,,"<div> 
<h2 class=""bolded-blue"">Well done!</h2>
<p> Now that you have the hang of it, we&#39;ll start the study. This session has 25 trials and takes about 2 minute to complete. </p> 
<p>If you are ready for the real deal, please press the <b>down</b> arrow to continue.
</p>
</div>",,,,,,,,,,,,,,,,,,,,,,,,,,,,,,22
24,html-keyboard-response,24,436411,0.0-24.0,13354.90000000596,arrowdown,,"<div id=""continue""> 
<p>Again, please keep the <b>full screen</b> mode for the best experience.</p>
<p>Please do not move around and keep your eye on the black dot. Click <b>up</b> or <b>down</b> key on your keyboard to indicate the opening of the center circle. Make your best guess!</p>
<p>Please press the <b>down</b> arrow key to start the session 1. </p>
</div>",,,,,,,,,,,,,,,,,,,,,,,,,,,,,,22
25,html-keyboard-response,25,436922,0.0-25.0,,,,"
    <div style="" display: block;  position: relative;"">
    
    <svg width=1366 height=768>
    <circle cx=620 cy=384 r=11.356115776181754 stroke=""black"" stroke-width=""1"" fill=""black"" />
    <circle cx=529.9695867768595 cy=384 r=16.223022537402507 stroke=""none"" stroke-width=""1.5"" fill=""none"" />
    <circle cx=425.47 cy=488.4995867768595 r=16.223022537402507 stroke=""none"" stroke-width=""1.5"" fill=""none"" />
    <circle cx=320.97041322314055 cy=384 r=16.223022537402507 stroke=""none"" stroke-width=""1.5"" fill=""none"" />
    <circle cx=425.47 cy=279.5004132231405 r=16.223022537402507 stroke=""none"" stroke-width=""1.5"" fill=""none"" />
    <polygon points = ""425.47,384 430.03345512465864,400.2230225374025 420.9065448753414,400.2230225374025"" stroke=""none"" stroke-width=""3"" fill = ""none"" />
    
    </svg>
    </div>
        ",,,,,,,,,,,,,,,,,,,,,,,,,,,,,,22
26,html-keyboard-response,26,437091,0.0-26.0,,,,"
    <div style="" display: block;  position: relative;"">
    <svg width=1366 height=768>
    
    <circle cx=620 cy=384 r=11.356115776181754 stroke=""black"" stroke-width=""1"" fill=""black"" />
    <circle cx=425.47 cy=384 r=16.223022537402507 stroke=""black"" stroke-width=""1.5"" fill=""none"" />
    <circle cx=551.9145000000001 cy=384 r=16.223022537402507 stroke=""black"" stroke-width=""1.5"" fill=""none"" />
    <circle cx=425.47 cy=510.4445 r=16.223022537402507 stroke=""black"" stroke-width=""1.5"" fill=""none"" />
    <circle cx=299.0255 cy=384 r=16.223022537402507 stroke=""black"" stroke-width=""1.5"" fill=""none"" />
    <circle cx=425.47 cy=257.5555 r=16.223022537402507 stroke=""black"" stroke-width=""1.5"" fill=""none"" />
    <polygon points = ""425.47,384 430.03345512465864,400.2230225374025 420.9065448753414,400.2230225374025"" stroke=""white"" stroke-width=""3"" fill = ""white"" />
    
    </svg>
    </div>
        ",,,,,,,,,,,,stimulus,,,,,,,,,,,,,,,,,,22
27,html-keyboard-response,27,437551,0.0-27.0,458.5,arrowdown,,"
    <div style="" display: block;  position: relative;"">
    
    <svg width=1366 height=768>
    <circle cx=620 cy=384 r=11.356115776181754 stroke=""black"" stroke-width=""1"" fill=""black"" />
    <circle cx=551.9145000000001 cy=384 r=16.223022537402507 stroke=""none"" stroke-width=""1.5"" fill=""none"" />
    <circle cx=425.47 cy=510.4445 r=16.223022537402507 stroke=""none"" stroke-width=""1.5"" fill=""none"" />
    <circle cx=299.0255 cy=384 r=16.223022537402507 stroke=""none"" stroke-width=""1.5"" fill=""none"" />
    <circle cx=425.47 cy=257.5555 r=16.223022537402507 stroke=""none"" stroke-width=""1.5"" fill=""none"" />
    <polygon points = ""425.47,384 430.03345512465864,400.2230225374025 420.9065448753414,400.2230225374025"" stroke=""none"" stroke-width=""3"" fill = ""none"" />
    
    </svg>
    </div>
        ",,,,,,,,,,,,get_response,True,t6CGd8n4800pN4X3,,,True,False,False,194.53,6.0,465.0280000000001,126.4445,3.89,1.0,0.0,,,,22
28,html-keyboard-response,28,438055,0.0-28.0,,,,"
    <div style="" display: block;  position: relative;"">
    
    <svg width=1366 height=768>
    <circle cx=620 cy=384 r=11.356115776181754 stroke=""black"" stroke-width=""1"" fill=""black"" />
    <circle cx=551.9145000000001 cy=384 r=16.223022537402507 stroke=""none"" stroke-width=""1.5"" fill=""none"" />
    <circle cx=425.47 cy=510.4445 r=16.223022537402507 stroke=""none"" stroke-width=""1.5"" fill=""none"" />
    <circle cx=299.0255 cy=384 r=16.223022537402507 stroke=""none"" stroke-width=""1.5"" fill=""none"" />
    <circle cx=425.47 cy=257.5555 r=16.223022537402507 stroke=""none"" stroke-width=""1.5"" fill=""none"" />
    <polygon points = ""425.47,384 430.03345512465864,400.2230225374025 420.9065448753414,400.2230225374025"" stroke=""none"" stroke-width=""3"" fill = ""none"" />
    
    </svg>
    </div>
        ",,,,,,,,,,,,,,,,,,,,,,,,,,,,,,22
29,html-keyboard-response,29,438208,0.0-29.0,,,,"
    <div style="" display: block;  position: relative;"">
    <svg width=1366 height=768>
    
    <circle cx=620 cy=384 r=11.356115776181754 stroke=""black"" stroke-width=""1"" fill=""black"" />
    <circle cx=814.53 cy=384 r=16.223022537402507 stroke=""black"" stroke-width=""1.5"" fill=""none"" />
    <circle cx=940.9745 cy=384 r=16.223022537402507 stroke=""black"" stroke-width=""1.5"" fill=""none"" />
    <circle cx=814.53 cy=510.4445 r=16.223022537402507 stroke=""black"" stroke-width=""1.5"" fill=""none"" />
    <circle cx=688.0854999999999 cy=384 r=16.223022537402507 stroke=""black"" stroke-width=""1.5"" fill=""none"" />
    <circle cx=814.53 cy=257.5555 r=16.223022537402507 stroke=""black"" stroke-width=""1.5"" fill=""none"" />
    <polygon points = ""814.53,384 819.0934551246586,367.7769774625975 809.9665448753414,367.7769774625975"" stroke=""white"" stroke-width=""3"" fill = ""white"" />
    
    </svg>
    </div>
        ",,,,,,,,,,,,stimulus,,,,,,,,,,,,,,,,,,22
30,html-keyboard-response,30,438532,0.0-30.0,322.29999999701977,arrowup,,"
    <div style="" display: block;  position: relative;"">
    
    <svg width=1366 height=768>
    <circle cx=620 cy=384 r=11.356115776181754 stroke=""black"" stroke-width=""1"" fill=""black"" />
    <circle cx=940.9745 cy=384 r=16.223022537402507 stroke=""none"" stroke-width=""1.5"" fill=""none"" />
    <circle cx=814.53 cy=510.4445 r=16.223022537402507 stroke=""none"" stroke-width=""1.5"" fill=""none"" />
    <circle cx=688.0854999999999 cy=384 r=16.223022537402507 stroke=""none"" stroke-width=""1.5"" fill=""none"" />
    <circle cx=814.53 cy=257.5555 r=16.223022537402507 stroke=""none"" stroke-width=""1.5"" fill=""none"" />
    <polygon points = ""814.53,384 819.0934551246586,367.7769774625975 809.9665448753414,367.7769774625975"" stroke=""none"" stroke-width=""3"" fill = ""none"" />
    
    </svg>
    </div>
        ",,,,,,,,,,,,get_response,True,t6CGd8n4800pN4X3,,,False,True,False,194.53,6.0,465.0280000000001,126.4445,3.89,1.0,0.0,,,,22
31,html-keyboard-response,31,439040,0.0-31.0,,,,"
    <div style="" display: block;  position: relative;"">
    
    <svg width=1366 height=768>
    <circle cx=620 cy=384 r=11.356115776181754 stroke=""black"" stroke-width=""1"" fill=""black"" />
    <circle cx=940.9745 cy=384 r=16.223022537402507 stroke=""none"" stroke-width=""1.5"" fill=""none"" />
    <circle cx=814.53 cy=510.4445 r=16.223022537402507 stroke=""none"" stroke-width=""1.5"" fill=""none"" />
    <circle cx=688.0854999999999 cy=384 r=16.223022537402507 stroke=""none"" stroke-width=""1.5"" fill=""none"" />
    <circle cx=814.53 cy=257.5555 r=16.223022537402507 stroke=""none"" stroke-width=""1.5"" fill=""none"" />
    <polygon points = ""814.53,384 819.0934551246586,367.7769774625975 809.9665448753414,367.7769774625975"" stroke=""none"" stroke-width=""3"" fill = ""none"" />
    
    </svg>
    </div>
        ",,,,,,,,,,,,,,,,,,,,,,,,,,,,,,22
32,html-keyboard-response,32,439194,0.0-32.0,,,,"
    <div style="" display: block;  position: relative;"">
    <svg width=1366 height=768>
    
    <circle cx=620 cy=384 r=11.356115776181754 stroke=""black"" stroke-width=""1"" fill=""black"" />
    <circle cx=425.47 cy=384 r=16.223022537402507 stroke=""black"" stroke-width=""1.5"" fill=""none"" />
    <circle cx=551.9145000000001 cy=384 r=16.223022537402507 stroke=""black"" stroke-width=""1.5"" fill=""none"" />
    <circle cx=425.47 cy=510.4445 r=16.223022537402507 stroke=""black"" stroke-width=""1.5"" fill=""none"" />
    <circle cx=299.0255 cy=384 r=16.223022537402507 stroke=""black"" stroke-width=""1.5"" fill=""none"" />
    <circle cx=425.47 cy=257.5555 r=16.223022537402507 stroke=""black"" stroke-width=""1.5"" fill=""none"" />
    <polygon points = ""425.47,384 430.03345512465864,367.7769774625975 420.9065448753414,367.7769774625975"" stroke=""white"" stroke-width=""3"" fill = ""white"" />
    
    </svg>
    </div>
        ",,,,,,,,,,,,stimulus,,,,,,,,,,,,,,,,,,22
33,html-keyboard-response,33,439582,0.0-33.0,387.09999999403954,arrowup,,"
    <div style="" display: block;  position: relative;"">
    
    <svg width=1366 height=768>
    <circle cx=620 cy=384 r=11.356115776181754 stroke=""black"" stroke-width=""1"" fill=""black"" />
    <circle cx=551.9145000000001 cy=384 r=16.223022537402507 stroke=""none"" stroke-width=""1.5"" fill=""none"" />
    <circle cx=425.47 cy=510.4445 r=16.223022537402507 stroke=""none"" stroke-width=""1.5"" fill=""none"" />
    <circle cx=299.0255 cy=384 r=16.223022537402507 stroke=""none"" stroke-width=""1.5"" fill=""none"" />
    <circle cx=425.47 cy=257.5555 r=16.223022537402507 stroke=""none"" stroke-width=""1.5"" fill=""none"" />
    <polygon points = ""425.47,384 430.03345512465864,367.7769774625975 420.9065448753414,367.7769774625975"" stroke=""none"" stroke-width=""3"" fill = ""none"" />
    
    </svg>
    </div>
        ",,,,,,,,,,,,get_response,True,t6CGd8n4800pN4X3,,,True,True,False,194.53,6.0,465.0280000000001,126.4445,3.89,1.0,0.0,,,,22
34,html-keyboard-response,34,440095,0.0-34.0,,,,"
    <div style="" display: block;  position: relative;"">
    
    <svg width=1366 height=768>
    <circle cx=620 cy=384 r=11.356115776181754 stroke=""black"" stroke-width=""1"" fill=""black"" />
    <circle cx=551.9145000000001 cy=384 r=16.223022537402507 stroke=""none"" stroke-width=""1.5"" fill=""none"" />
    <circle cx=425.47 cy=510.4445 r=16.223022537402507 stroke=""none"" stroke-width=""1.5"" fill=""none"" />
    <circle cx=299.0255 cy=384 r=16.223022537402507 stroke=""none"" stroke-width=""1.5"" fill=""none"" />
    <circle cx=425.47 cy=257.5555 r=16.223022537402507 stroke=""none"" stroke-width=""1.5"" fill=""none"" />
    <polygon points = ""425.47,384 430.03345512465864,367.7769774625975 420.9065448753414,367.7769774625975"" stroke=""none"" stroke-width=""3"" fill = ""none"" />
    
    </svg>
    </div>
        ",,,,,,,,,,,,,,,,,,,,,,,,,,,,,,22
35,html-keyboard-response,35,440258,0.0-35.0,,,,"
    <div style="" display: block;  position: relative;"">
    <svg width=1366 height=768>
    
    <circle cx=620 cy=384 r=11.356115776181754 stroke=""black"" stroke-width=""1"" fill=""black"" />
    <circle cx=814.53 cy=384 r=16.223022537402507 stroke=""black"" stroke-width=""1.5"" fill=""none"" />
    <circle cx=929.4795454545454 cy=384 r=16.223022537402507 stroke=""black"" stroke-width=""1.5"" fill=""none"" />
    <circle cx=814.53 cy=498.94954545454544 r=16.223022537402507 stroke=""black"" stroke-width=""1.5"" fill=""none"" />
    <circle cx=699.5804545454546 cy=384 r=16.223022537402507 stroke=""black"" stroke-width=""1.5"" fill=""none"" />
    <circle cx=814.53 cy=269.05045454545456 r=16.223022537402507 stroke=""black"" stroke-width=""1.5"" fill=""none"" />
    <polygon points = ""814.53,384 819.0934551246586,400.2230225374025 809.9665448753414,400.2230225374025"" stroke=""white"" stroke-width=""3"" fill = ""white"" />
    
    </svg>
    </div>
        ",,,,,,,,,,,,stimulus,,,,,,,,,,,,,,,,,,22
36,html-keyboard-response,36,440574,0.0-36.0,314.3999999985099,arrowdown,,"
    <div style="" display: block;  position: relative;"">
    
    <svg width=1366 height=768>
    <circle cx=620 cy=384 r=11.356115776181754 stroke=""black"" stroke-width=""1"" fill=""black"" />
    <circle cx=929.4795454545454 cy=384 r=16.223022537402507 stroke=""none"" stroke-width=""1.5"" fill=""none"" />
    <circle cx=814.53 cy=498.94954545454544 r=16.223022537402507 stroke=""none"" stroke-width=""1.5"" fill=""none"" />
    <circle cx=699.5804545454546 cy=384 r=16.223022537402507 stroke=""none"" stroke-width=""1.5"" fill=""none"" />
    <circle cx=814.53 cy=269.05045454545456 r=16.223022537402507 stroke=""none"" stroke-width=""1.5"" fill=""none"" />
    <polygon points = ""814.53,384 819.0934551246586,400.2230225374025 809.9665448753414,400.2230225374025"" stroke=""none"" stroke-width=""3"" fill = ""none"" />
    
    </svg>
    </div>
        ",,,,,,,,,,,,get_response,True,t6CGd8n4800pN4X3,,,False,False,False,194.53,6.0,465.0280000000001,114.94954545454544,3.54,1.0,0.0,,,,22
37,html-keyboard-response,37,441097,0.0-37.0,,,,"
    <div style="" display: block;  position: relative;"">
    
    <svg width=1366 height=768>
    <circle cx=620 cy=384 r=11.356115776181754 stroke=""black"" stroke-width=""1"" fill=""black"" />
    <circle cx=929.4795454545454 cy=384 r=16.223022537402507 stroke=""none"" stroke-width=""1.5"" fill=""none"" />
    <circle cx=814.53 cy=498.94954545454544 r=16.223022537402507 stroke=""none"" stroke-width=""1.5"" fill=""none"" />
    <circle cx=699.5804545454546 cy=384 r=16.223022537402507 stroke=""none"" stroke-width=""1.5"" fill=""none"" />
    <circle cx=814.53 cy=269.05045454545456 r=16.223022537402507 stroke=""none"" stroke-width=""1.5"" fill=""none"" />
    <polygon points = ""814.53,384 819.0934551246586,400.2230225374025 809.9665448753414,400.2230225374025"" stroke=""none"" stroke-width=""3"" fill = ""none"" />
    
    </svg>
    </div>
        ",,,,,,,,,,,,,,,,,,,,,,,,,,,,,,22
38,html-keyboard-response,38,441260,0.0-38.0,,,,"
    <div style="" display: block;  position: relative;"">
    <svg width=1366 height=768>
    
    <circle cx=620 cy=384 r=11.356115776181754 stroke=""black"" stroke-width=""1"" fill=""black"" />
    <circle cx=425.47 cy=384 r=16.223022537402507 stroke=""black"" stroke-width=""1.5"" fill=""none"" />
    <circle cx=529.9695867768595 cy=384 r=16.223022537402507 stroke=""black"" stroke-width=""1.5"" fill=""none"" />
    <circle cx=425.47 cy=488.4995867768595 r=16.223022537402507 stroke=""black"" stroke-width=""1.5"" fill=""none"" />
    <circle cx=320.97041322314055 cy=384 r=16.223022537402507 stroke=""black"" stroke-width=""1.5"" fill=""none"" />
    <circle cx=425.47 cy=279.5004132231405 r=16.223022537402507 stroke=""black"" stroke-width=""1.5"" fill=""none"" />
    <polygon points = ""425.47,384 430.03345512465864,400.2230225374025 420.9065448753414,400.2230225374025"" stroke=""white"" stroke-width=""3"" fill = ""white"" />
    
    </svg>
    </div>
        ",,,,,,,,,,,,stimulus,,,,,,,,,,,,,,,,,,22
39,html-keyboard-response,39,441645,0.0-39.0,384.6000000014901,arrowdown,,"
    <div style="" display: block;  position: relative;"">
    
    <svg width=1366 height=768>
    <circle cx=620 cy=384 r=11.356115776181754 stroke=""black"" stroke-width=""1"" fill=""black"" />
    <circle cx=529.9695867768595 cy=384 r=16.223022537402507 stroke=""none"" stroke-width=""1.5"" fill=""none"" />
    <circle cx=425.47 cy=488.4995867768595 r=16.223022537402507 stroke=""none"" stroke-width=""1.5"" fill=""none"" />
    <circle cx=320.97041322314055 cy=384 r=16.223022537402507 stroke=""none"" stroke-width=""1.5"" fill=""none"" />
    <circle cx=425.47 cy=279.5004132231405 r=16.223022537402507 stroke=""none"" stroke-width=""1.5"" fill=""none"" />
    <polygon points = ""425.47,384 430.03345512465864,400.2230225374025 420.9065448753414,400.2230225374025"" stroke=""none"" stroke-width=""3"" fill = ""none"" />
    
    </svg>
    </div>
        ",,,,,,,,,,,,get_response,True,t6CGd8n4800pN4X3,,,True,False,False,194.53,6.0,465.0280000000001,104.49958677685947,3.21,1.0,0.0,,,,22
40,html-keyboard-response,40,442160,0.0-40.0,,,,"
    <div style="" display: block;  position: relative;"">
    
    <svg width=1366 height=768>
    <circle cx=620 cy=384 r=11.356115776181754 stroke=""black"" stroke-width=""1"" fill=""black"" />
    <circle cx=529.9695867768595 cy=384 r=16.223022537402507 stroke=""none"" stroke-width=""1.5"" fill=""none"" />
    <circle cx=425.47 cy=488.4995867768595 r=16.223022537402507 stroke=""none"" stroke-width=""1.5"" fill=""none"" />
    <circle cx=320.97041322314055 cy=384 r=16.223022537402507 stroke=""none"" stroke-width=""1.5"" fill=""none"" />
    <circle cx=425.47 cy=279.5004132231405 r=16.223022537402507 stroke=""none"" stroke-width=""1.5"" fill=""none"" />
    <polygon points = ""425.47,384 430.03345512465864,400.2230225374025 420.9065448753414,400.2230225374025"" stroke=""none"" stroke-width=""3"" fill = ""none"" />
    
    </svg>
    </div>
        ",,,,,,,,,,,,,,,,,,,,,,,,,,,,,,22
41,html-keyboard-response,41,442314,0.0-41.0,,,,"
    <div style="" display: block;  position: relative;"">
    <svg width=1366 height=768>
    
    <circle cx=620 cy=384 r=11.356115776181754 stroke=""black"" stroke-width=""1"" fill=""black"" />
    <circle cx=425.47 cy=384 r=16.223022537402507 stroke=""black"" stroke-width=""1.5"" fill=""none"" />
    <circle cx=520.4696243425996 cy=384 r=16.223022537402507 stroke=""black"" stroke-width=""1.5"" fill=""none"" />
    <circle cx=425.47 cy=478.99962434259953 r=16.223022537402507 stroke=""black"" stroke-width=""1.5"" fill=""none"" />
    <circle cx=330.4703756574005 cy=384 r=16.223022537402507 stroke=""black"" stroke-width=""1.5"" fill=""none"" />
    <circle cx=425.47 cy=289.00037565740047 r=16.223022537402507 stroke=""black"" stroke-width=""1.5"" fill=""none"" />
    <polygon points = ""425.47,384 430.03345512465864,400.2230225374025 420.9065448753414,400.2230225374025"" stroke=""white"" stroke-width=""3"" fill = ""white"" />
    
    </svg>
    </div>
        ",,,,,,,,,,,,stimulus,,,,,,,,,,,,,,,,,,22
42,html-keyboard-response,42,442628,0.0-42.0,313.80000000447035,arrowdown,,"
    <div style="" display: block;  position: relative;"">
    
    <svg width=1366 height=768>
    <circle cx=620 cy=384 r=11.356115776181754 stroke=""black"" stroke-width=""1"" fill=""black"" />
    <circle cx=520.4696243425996 cy=384 r=16.223022537402507 stroke=""none"" stroke-width=""1.5"" fill=""none"" />
    <circle cx=425.47 cy=478.99962434259953 r=16.223022537402507 stroke=""none"" stroke-width=""1.5"" fill=""none"" />
    <circle cx=330.4703756574005 cy=384 r=16.223022537402507 stroke=""none"" stroke-width=""1.5"" fill=""none"" />
    <circle cx=425.47 cy=289.00037565740047 r=16.223022537402507 stroke=""none"" stroke-width=""1.5"" fill=""none"" />
    <polygon points = ""425.47,384 430.03345512465864,400.2230225374025 420.9065448753414,400.2230225374025"" stroke=""none"" stroke-width=""3"" fill = ""none"" />
    
    </svg>
    </div>
        ",,,,,,,,,,,,get_response,True,t6CGd8n4800pN4X3,,,True,False,False,194.53,6.0,465.0280000000001,94.99962434259952,2.92,1.0,0.0,,,,22
43,html-keyboard-response,43,443145,0.0-43.0,,,,"
    <div style="" display: block;  position: relative;"">
    
    <svg width=1366 height=768>
    <circle cx=620 cy=384 r=11.356115776181754 stroke=""black"" stroke-width=""1"" fill=""black"" />
    <circle cx=520.4696243425996 cy=384 r=16.223022537402507 stroke=""none"" stroke-width=""1.5"" fill=""none"" />
    <circle cx=425.47 cy=478.99962434259953 r=16.223022537402507 stroke=""none"" stroke-width=""1.5"" fill=""none"" />
    <circle cx=330.4703756574005 cy=384 r=16.223022537402507 stroke=""none"" stroke-width=""1.5"" fill=""none"" />
    <circle cx=425.47 cy=289.00037565740047 r=16.223022537402507 stroke=""none"" stroke-width=""1.5"" fill=""none"" />
    <polygon points = ""425.47,384 430.03345512465864,400.2230225374025 420.9065448753414,400.2230225374025"" stroke=""none"" stroke-width=""3"" fill = ""none"" />
    
    </svg>
    </div>
        ",,,,,,,,,,,,,,,,,,,,,,,,,,,,,,22
44,html-keyboard-response,44,443298,0.0-44.0,,,,"
    <div style="" display: block;  position: relative;"">
    <svg width=1366 height=768>
    
    <circle cx=620 cy=384 r=11.356115776181754 stroke=""black"" stroke-width=""1"" fill=""black"" />
    <circle cx=814.53 cy=384 r=16.223022537402507 stroke=""black"" stroke-width=""1.5"" fill=""none"" />
    <circle cx=900.8932948569086 cy=384 r=16.223022537402507 stroke=""black"" stroke-width=""1.5"" fill=""none"" />
    <circle cx=814.53 cy=470.3632948569086 r=16.223022537402507 stroke=""black"" stroke-width=""1.5"" fill=""none"" />
    <circle cx=728.1667051430913 cy=384 r=16.223022537402507 stroke=""black"" stroke-width=""1.5"" fill=""none"" />
    <circle cx=814.53 cy=297.6367051430914 r=16.223022537402507 stroke=""black"" stroke-width=""1.5"" fill=""none"" />
    <polygon points = ""814.53,384 819.0934551246586,367.7769774625975 809.9665448753414,367.7769774625975"" stroke=""white"" stroke-width=""3"" fill = ""white"" />
    
    </svg>
    </div>
        ",,,,,,,,,,,,stimulus,,,,,,,,,,,,,,,,,,22
45,html-keyboard-response,45,443529,0.0-45.0,229.79999999701977,arrowup,,"
    <div style="" display: block;  position: relative;"">
    
    <svg width=1366 height=768>
    <circle cx=620 cy=384 r=11.356115776181754 stroke=""black"" stroke-width=""1"" fill=""black"" />
    <circle cx=900.8932948569086 cy=384 r=16.223022537402507 stroke=""none"" stroke-width=""1.5"" fill=""none"" />
    <circle cx=814.53 cy=470.3632948569086 r=16.223022537402507 stroke=""none"" stroke-width=""1.5"" fill=""none"" />
    <circle cx=728.1667051430913 cy=384 r=16.223022537402507 stroke=""none"" stroke-width=""1.5"" fill=""none"" />
    <circle cx=814.53 cy=297.6367051430914 r=16.223022537402507 stroke=""none"" stroke-width=""1.5"" fill=""none"" />
    <polygon points = ""814.53,384 819.0934551246586,367.7769774625975 809.9665448753414,367.7769774625975"" stroke=""none"" stroke-width=""3"" fill = ""none"" />
    
    </svg>
    </div>
        ",,,,,,,,,,,,get_response,True,t6CGd8n4800pN4X3,,,False,True,False,194.53,6.0,465.0280000000001,86.36329485690865,2.66,1.0,0.0,,,,22
46,html-keyboard-response,46,444044,0.0-46.0,,,,"
    <div style="" display: block;  position: relative;"">
    
    <svg width=1366 height=768>
    <circle cx=620 cy=384 r=11.356115776181754 stroke=""black"" stroke-width=""1"" fill=""black"" />
    <circle cx=900.8932948569086 cy=384 r=16.223022537402507 stroke=""none"" stroke-width=""1.5"" fill=""none"" />
    <circle cx=814.53 cy=470.3632948569086 r=16.223022537402507 stroke=""none"" stroke-width=""1.5"" fill=""none"" />
    <circle cx=728.1667051430913 cy=384 r=16.223022537402507 stroke=""none"" stroke-width=""1.5"" fill=""none"" />
    <circle cx=814.53 cy=297.6367051430914 r=16.223022537402507 stroke=""none"" stroke-width=""1.5"" fill=""none"" />
    <polygon points = ""814.53,384 819.0934551246586,367.7769774625975 809.9665448753414,367.7769774625975"" stroke=""none"" stroke-width=""3"" fill = ""none"" />
    
    </svg>
    </div>
        ",,,,,,,,,,,,,,,,,,,,,,,,,,,,,,22
47,html-keyboard-response,47,444198,0.0-47.0,,,,"
    <div style="" display: block;  position: relative;"">
    <svg width=1366 height=768>
    
    <circle cx=620 cy=384 r=11.356115776181754 stroke=""black"" stroke-width=""1"" fill=""black"" />
    <circle cx=814.53 cy=384 r=16.223022537402507 stroke=""black"" stroke-width=""1.5"" fill=""none"" />
    <circle cx=893.0420862335533 cy=384 r=16.223022537402507 stroke=""black"" stroke-width=""1.5"" fill=""none"" />
    <circle cx=814.53 cy=462.5120862335533 r=16.223022537402507 stroke=""black"" stroke-width=""1.5"" fill=""none"" />
    <circle cx=736.0179137664467 cy=384 r=16.223022537402507 stroke=""black"" stroke-width=""1.5"" fill=""none"" />
    <circle cx=814.53 cy=305.4879137664467 r=16.223022537402507 stroke=""black"" stroke-width=""1.5"" fill=""none"" />
    <polygon points = ""814.53,384 819.0934551246586,367.7769774625975 809.9665448753414,367.7769774625975"" stroke=""white"" stroke-width=""3"" fill = ""white"" />
    
    </svg>
    </div>
        ",,,,,,,,,,,,stimulus,,,,,,,,,,,,,,,,,,22
48,html-keyboard-response,48,444532,0.0-48.0,333.40000000596046,arrowup,,"
    <div style="" display: block;  position: relative;"">
    
    <svg width=1366 height=768>
    <circle cx=620 cy=384 r=11.356115776181754 stroke=""black"" stroke-width=""1"" fill=""black"" />
    <circle cx=893.0420862335533 cy=384 r=16.223022537402507 stroke=""none"" stroke-width=""1.5"" fill=""none"" />
    <circle cx=814.53 cy=462.5120862335533 r=16.223022537402507 stroke=""none"" stroke-width=""1.5"" fill=""none"" />
    <circle cx=736.0179137664467 cy=384 r=16.223022537402507 stroke=""none"" stroke-width=""1.5"" fill=""none"" />
    <circle cx=814.53 cy=305.4879137664467 r=16.223022537402507 stroke=""none"" stroke-width=""1.5"" fill=""none"" />
    <polygon points = ""814.53,384 819.0934551246586,367.7769774625975 809.9665448753414,367.7769774625975"" stroke=""none"" stroke-width=""3"" fill = ""none"" />
    
    </svg>
    </div>
        ",,,,,,,,,,,,get_response,True,t6CGd8n4800pN4X3,,,False,True,False,194.53,6.0,465.0280000000001,78.51208623355332,2.41,1.0,0.0,,,,22
49,html-keyboard-response,49,445045,0.0-49.0,,,,"
    <div style="" display: block;  position: relative;"">
    
    <svg width=1366 height=768>
    <circle cx=620 cy=384 r=11.356115776181754 stroke=""black"" stroke-width=""1"" fill=""black"" />
    <circle cx=893.0420862335533 cy=384 r=16.223022537402507 stroke=""none"" stroke-width=""1.5"" fill=""none"" />
    <circle cx=814.53 cy=462.5120862335533 r=16.223022537402507 stroke=""none"" stroke-width=""1.5"" fill=""none"" />
    <circle cx=736.0179137664467 cy=384 r=16.223022537402507 stroke=""none"" stroke-width=""1.5"" fill=""none"" />
    <circle cx=814.53 cy=305.4879137664467 r=16.223022537402507 stroke=""none"" stroke-width=""1.5"" fill=""none"" />
    <polygon points = ""814.53,384 819.0934551246586,367.7769774625975 809.9665448753414,367.7769774625975"" stroke=""none"" stroke-width=""3"" fill = ""none"" />
    
    </svg>
    </div>
        ",,,,,,,,,,,,,,,,,,,,,,,,,,,,,,22
50,html-keyboard-response,50,445200,0.0-50.0,,,,"
    <div style="" display: block;  position: relative;"">
    <svg width=1366 height=768>
    
    <circle cx=620 cy=384 r=11.356115776181754 stroke=""black"" stroke-width=""1"" fill=""black"" />
    <circle cx=814.53 cy=384 r=16.223022537402507 stroke=""black"" stroke-width=""1.5"" fill=""none"" />
    <circle cx=885.9046238486848 cy=384 r=16.223022537402507 stroke=""black"" stroke-width=""1.5"" fill=""none"" />
    <circle cx=814.53 cy=455.37462384868485 r=16.223022537402507 stroke=""black"" stroke-width=""1.5"" fill=""none"" />
    <circle cx=743.1553761513152 cy=384 r=16.223022537402507 stroke=""black"" stroke-width=""1.5"" fill=""none"" />
    <circle cx=814.53 cy=312.62537615131515 r=16.223022537402507 stroke=""black"" stroke-width=""1.5"" fill=""none"" />
    <polygon points = ""814.53,384 819.0934551246586,367.7769774625975 809.9665448753414,367.7769774625975"" stroke=""white"" stroke-width=""3"" fill = ""white"" />
    
    </svg>
    </div>
        ",,,,,,,,,,,,stimulus,,,,,,,,,,,,,,,,,,22
51,html-keyboard-response,51,445496,0.0-51.0,295.0,arrowup,,"
    <div style="" display: block;  position: relative;"">
    
    <svg width=1366 height=768>
    <circle cx=620 cy=384 r=11.356115776181754 stroke=""black"" stroke-width=""1"" fill=""black"" />
    <circle cx=885.9046238486848 cy=384 r=16.223022537402507 stroke=""none"" stroke-width=""1.5"" fill=""none"" />
    <circle cx=814.53 cy=455.37462384868485 r=16.223022537402507 stroke=""none"" stroke-width=""1.5"" fill=""none"" />
    <circle cx=743.1553761513152 cy=384 r=16.223022537402507 stroke=""none"" stroke-width=""1.5"" fill=""none"" />
    <circle cx=814.53 cy=312.62537615131515 r=16.223022537402507 stroke=""none"" stroke-width=""1.5"" fill=""none"" />
    <polygon points = ""814.53,384 819.0934551246586,367.7769774625975 809.9665448753414,367.7769774625975"" stroke=""none"" stroke-width=""3"" fill = ""none"" />
    
    </svg>
    </div>
        ",,,,,,,,,,,,get_response,True,t6CGd8n4800pN4X3,,,False,True,False,194.53,6.0,465.0280000000001,71.37462384868483,2.19,1.0,0.0,,,,22
52,html-keyboard-response,52,446000,0.0-52.0,,,,"
    <div style="" display: block;  position: relative;"">
    
    <svg width=1366 height=768>
    <circle cx=620 cy=384 r=11.356115776181754 stroke=""black"" stroke-width=""1"" fill=""black"" />
    <circle cx=885.9046238486848 cy=384 r=16.223022537402507 stroke=""none"" stroke-width=""1.5"" fill=""none"" />
    <circle cx=814.53 cy=455.37462384868485 r=16.223022537402507 stroke=""none"" stroke-width=""1.5"" fill=""none"" />
    <circle cx=743.1553761513152 cy=384 r=16.223022537402507 stroke=""none"" stroke-width=""1.5"" fill=""none"" />
    <circle cx=814.53 cy=312.62537615131515 r=16.223022537402507 stroke=""none"" stroke-width=""1.5"" fill=""none"" />
    <polygon points = ""814.53,384 819.0934551246586,367.7769774625975 809.9665448753414,367.7769774625975"" stroke=""none"" stroke-width=""3"" fill = ""none"" />
    
    </svg>
    </div>
        ",,,,,,,,,,,,,,,,,,,,,,,,,,,,,,22
53,html-keyboard-response,53,446163,0.0-53.0,,,,"
    <div style="" display: block;  position: relative;"">
    <svg width=1366 height=768>
    
    <circle cx=620 cy=384 r=11.356115776181754 stroke=""black"" stroke-width=""1"" fill=""black"" />
    <circle cx=814.53 cy=384 r=16.223022537402507 stroke=""black"" stroke-width=""1.5"" fill=""none"" />
    <circle cx=879.4160216806225 cy=384 r=16.223022537402507 stroke=""black"" stroke-width=""1.5"" fill=""none"" />
    <circle cx=814.53 cy=448.88602168062255 r=16.223022537402507 stroke=""black"" stroke-width=""1.5"" fill=""none"" />
    <circle cx=749.6439783193774 cy=384 r=16.223022537402507 stroke=""black"" stroke-width=""1.5"" fill=""none"" />
    <circle cx=814.53 cy=319.11397831937745 r=16.223022537402507 stroke=""black"" stroke-width=""1.5"" fill=""none"" />
    <polygon points = ""814.53,384 819.0934551246586,400.2230225374025 809.9665448753414,400.2230225374025"" stroke=""white"" stroke-width=""3"" fill = ""white"" />
    
    </svg>
    </div>
        ",,,,,,,,,,,,stimulus,,,,,,,,,,,,,,,,,,22
54,html-keyboard-response,54,446562,0.0-54.0,397.79999999701977,arrowdown,,"
    <div style="" display: block;  position: relative;"">
    
    <svg width=1366 height=768>
    <circle cx=620 cy=384 r=11.356115776181754 stroke=""black"" stroke-width=""1"" fill=""black"" />
    <circle cx=879.4160216806225 cy=384 r=16.223022537402507 stroke=""none"" stroke-width=""1.5"" fill=""none"" />
    <circle cx=814.53 cy=448.88602168062255 r=16.223022537402507 stroke=""none"" stroke-width=""1.5"" fill=""none"" />
    <circle cx=749.6439783193774 cy=384 r=16.223022537402507 stroke=""none"" stroke-width=""1.5"" fill=""none"" />
    <circle cx=814.53 cy=319.11397831937745 r=16.223022537402507 stroke=""none"" stroke-width=""1.5"" fill=""none"" />
    <polygon points = ""814.53,384 819.0934551246586,400.2230225374025 809.9665448753414,400.2230225374025"" stroke=""none"" stroke-width=""3"" fill = ""none"" />
    
    </svg>
    </div>
        ",,,,,,,,,,,,get_response,True,t6CGd8n4800pN4X3,,,False,False,False,194.53,6.0,465.0280000000001,64.88602168062258,1.99,1.0,0.0,,,,22
55,html-keyboard-response,55,447065,0.0-55.0,,,,"
    <div style="" display: block;  position: relative;"">
    
    <svg width=1366 height=768>
    <circle cx=620 cy=384 r=11.356115776181754 stroke=""black"" stroke-width=""1"" fill=""black"" />
    <circle cx=879.4160216806225 cy=384 r=16.223022537402507 stroke=""none"" stroke-width=""1.5"" fill=""none"" />
    <circle cx=814.53 cy=448.88602168062255 r=16.223022537402507 stroke=""none"" stroke-width=""1.5"" fill=""none"" />
    <circle cx=749.6439783193774 cy=384 r=16.223022537402507 stroke=""none"" stroke-width=""1.5"" fill=""none"" />
    <circle cx=814.53 cy=319.11397831937745 r=16.223022537402507 stroke=""none"" stroke-width=""1.5"" fill=""none"" />
    <polygon points = ""814.53,384 819.0934551246586,400.2230225374025 809.9665448753414,400.2230225374025"" stroke=""none"" stroke-width=""3"" fill = ""none"" />
    
    </svg>
    </div>
        ",,,,,,,,,,,,,,,,,,,,,,,,,,,,,,22
56,html-keyboard-response,56,447218,0.0-56.0,,,,"
    <div style="" display: block;  position: relative;"">
    <svg width=1366 height=768>
    
    <circle cx=620 cy=384 r=11.356115776181754 stroke=""black"" stroke-width=""1"" fill=""black"" />
    <circle cx=425.47 cy=384 r=16.223022537402507 stroke=""black"" stroke-width=""1.5"" fill=""none"" />
    <circle cx=484.4572924369296 cy=384 r=16.223022537402507 stroke=""black"" stroke-width=""1.5"" fill=""none"" />
    <circle cx=425.47 cy=442.9872924369296 r=16.223022537402507 stroke=""black"" stroke-width=""1.5"" fill=""none"" />
    <circle cx=366.48270756307045 cy=384 r=16.223022537402507 stroke=""black"" stroke-width=""1.5"" fill=""none"" />
    <circle cx=425.47 cy=325.0127075630704 r=16.223022537402507 stroke=""black"" stroke-width=""1.5"" fill=""none"" />
    <polygon points = ""425.47,384 430.03345512465864,367.7769774625975 420.9065448753414,367.7769774625975"" stroke=""white"" stroke-width=""3"" fill = ""white"" />
    
    </svg>
    </div>
        ",,,,,,,,,,,,stimulus,,,,,,,,,,,,,,,,,,22
57,html-keyboard-response,57,447519,0.0-57.0,299.69999999552965,arrowup,,"
    <div style="" display: block;  position: relative;"">
    
    <svg width=1366 height=768>
    <circle cx=620 cy=384 r=11.356115776181754 stroke=""black"" stroke-width=""1"" fill=""black"" />
    <circle cx=484.4572924369296 cy=384 r=16.223022537402507 stroke=""none"" stroke-width=""1.5"" fill=""none"" />
    <circle cx=425.47 cy=442.9872924369296 r=16.223022537402507 stroke=""none"" stroke-width=""1.5"" fill=""none"" />
    <circle cx=366.48270756307045 cy=384 r=16.223022537402507 stroke=""none"" stroke-width=""1.5"" fill=""none"" />
    <circle cx=425.47 cy=325.0127075630704 r=16.223022537402507 stroke=""none"" stroke-width=""1.5"" fill=""none"" />
    <polygon points = ""425.47,384 430.03345512465864,367.7769774625975 420.9065448753414,367.7769774625975"" stroke=""none"" stroke-width=""3"" fill = ""none"" />
    
    </svg>
    </div>
        ",,,,,,,,,,,,get_response,True,t6CGd8n4800pN4X3,,,True,True,False,194.53,6.0,465.0280000000001,58.98729243692961,1.81,1.0,0.0,,,,22
58,html-keyboard-response,58,448034,0.0-58.0,,,,"
    <div style="" display: block;  position: relative;"">
    
    <svg width=1366 height=768>
    <circle cx=620 cy=384 r=11.356115776181754 stroke=""black"" stroke-width=""1"" fill=""black"" />
    <circle cx=484.4572924369296 cy=384 r=16.223022537402507 stroke=""none"" stroke-width=""1.5"" fill=""none"" />
    <circle cx=425.47 cy=442.9872924369296 r=16.223022537402507 stroke=""none"" stroke-width=""1.5"" fill=""none"" />
    <circle cx=366.48270756307045 cy=384 r=16.223022537402507 stroke=""none"" stroke-width=""1.5"" fill=""none"" />
    <circle cx=425.47 cy=325.0127075630704 r=16.223022537402507 stroke=""none"" stroke-width=""1.5"" fill=""none"" />
    <polygon points = ""425.47,384 430.03345512465864,367.7769774625975 420.9065448753414,367.7769774625975"" stroke=""none"" stroke-width=""3"" fill = ""none"" />
    
    </svg>
    </div>
        ",,,,,,,,,,,,,,,,,,,,,,,,,,,,,,22
59,html-keyboard-response,59,448204,0.0-59.0,,,,"
    <div style="" display: block;  position: relative;"">
    <svg width=1366 height=768>
    
    <circle cx=620 cy=384 r=11.356115776181754 stroke=""black"" stroke-width=""1"" fill=""black"" />
    <circle cx=425.47 cy=384 r=16.223022537402507 stroke=""black"" stroke-width=""1.5"" fill=""none"" />
    <circle cx=479.0948113062997 cy=384 r=16.223022537402507 stroke=""black"" stroke-width=""1.5"" fill=""none"" />
    <circle cx=425.47 cy=437.62481130629965 r=16.223022537402507 stroke=""black"" stroke-width=""1.5"" fill=""none"" />
    <circle cx=371.8451886937004 cy=384 r=16.223022537402507 stroke=""black"" stroke-width=""1.5"" fill=""none"" />
    <circle cx=425.47 cy=330.37518869370035 r=16.223022537402507 stroke=""black"" stroke-width=""1.5"" fill=""none"" />
    <polygon points = ""425.47,384 430.03345512465864,400.2230225374025 420.9065448753414,400.2230225374025"" stroke=""white"" stroke-width=""3"" fill = ""white"" />
    
    </svg>
    </div>
        ",,,,,,,,,,,,stimulus,,,,,,,,,,,,,,,,,,22
60,html-keyboard-response,60,448434,0.0-60.0,229.20000000298023,arrowup,,"
    <div style="" display: block;  position: relative;"">
    
    <svg width=1366 height=768>
    <circle cx=620 cy=384 r=11.356115776181754 stroke=""black"" stroke-width=""1"" fill=""black"" />
    <circle cx=479.0948113062997 cy=384 r=16.223022537402507 stroke=""none"" stroke-width=""1.5"" fill=""none"" />
    <circle cx=425.47 cy=437.62481130629965 r=16.223022537402507 stroke=""none"" stroke-width=""1.5"" fill=""none"" />
    <circle cx=371.8451886937004 cy=384 r=16.223022537402507 stroke=""none"" stroke-width=""1.5"" fill=""none"" />
    <circle cx=425.47 cy=330.37518869370035 r=16.223022537402507 stroke=""none"" stroke-width=""1.5"" fill=""none"" />
    <polygon points = ""425.47,384 430.03345512465864,400.2230225374025 420.9065448753414,400.2230225374025"" stroke=""none"" stroke-width=""3"" fill = ""none"" />
    
    </svg>
    </div>
        ",,,,,,,,,,,,get_response,False,t6CGd8n4800pN4X3,,,True,False,False,194.53,6.0,465.0280000000001,53.62481130629964,1.65,1.0,0.0,,,,22
61,html-keyboard-response,61,448936,0.0-61.0,,,,"
    <div style="" display: block;  position: relative;"">
    
    <svg width=1366 height=768>
    <circle cx=620 cy=384 r=11.356115776181754 stroke=""black"" stroke-width=""1"" fill=""black"" />
    <circle cx=479.0948113062997 cy=384 r=16.223022537402507 stroke=""none"" stroke-width=""1.5"" fill=""none"" />
    <circle cx=425.47 cy=437.62481130629965 r=16.223022537402507 stroke=""none"" stroke-width=""1.5"" fill=""none"" />
    <circle cx=371.8451886937004 cy=384 r=16.223022537402507 stroke=""none"" stroke-width=""1.5"" fill=""none"" />
    <circle cx=425.47 cy=330.37518869370035 r=16.223022537402507 stroke=""none"" stroke-width=""1.5"" fill=""none"" />
    <polygon points = ""425.47,384 430.03345512465864,400.2230225374025 420.9065448753414,400.2230225374025"" stroke=""none"" stroke-width=""3"" fill = ""none"" />
    
    </svg>
    </div>
        ",,,,,,,,,,,,,,,,,,,,,,,,,,,,,,22
62,html-keyboard-response,62,449105,0.0-62.0,,,,"
    <div style="" display: block;  position: relative;"">
    <svg width=1366 height=768>
    
    <circle cx=620 cy=384 r=11.356115776181754 stroke=""black"" stroke-width=""1"" fill=""black"" />
    <circle cx=425.47 cy=384 r=16.223022537402507 stroke=""black"" stroke-width=""1.5"" fill=""none"" />
    <circle cx=495.1822546981896 cy=384 r=16.223022537402507 stroke=""black"" stroke-width=""1.5"" fill=""none"" />
    <circle cx=425.47 cy=453.71225469818955 r=16.223022537402507 stroke=""black"" stroke-width=""1.5"" fill=""none"" />
    <circle cx=355.7577453018105 cy=384 r=16.223022537402507 stroke=""black"" stroke-width=""1.5"" fill=""none"" />
    <circle cx=425.47 cy=314.28774530181045 r=16.223022537402507 stroke=""black"" stroke-width=""1.5"" fill=""none"" />
    <polygon points = ""425.47,384 430.03345512465864,400.2230225374025 420.9065448753414,400.2230225374025"" stroke=""white"" stroke-width=""3"" fill = ""white"" />
    
    </svg>
    </div>
        ",,,,,,,,,,,,stimulus,,,,,,,,,,,,,,,,,,22
63,html-keyboard-response,63,449488,0.0-63.0,382.59999999403954,arrowdown,,"
    <div style="" display: block;  position: relative;"">
    
    <svg width=1366 height=768>
    <circle cx=620 cy=384 r=11.356115776181754 stroke=""black"" stroke-width=""1"" fill=""black"" />
    <circle cx=495.1822546981896 cy=384 r=16.223022537402507 stroke=""none"" stroke-width=""1.5"" fill=""none"" />
    <circle cx=425.47 cy=453.71225469818955 r=16.223022537402507 stroke=""none"" stroke-width=""1.5"" fill=""none"" />
    <circle cx=355.7577453018105 cy=384 r=16.223022537402507 stroke=""none"" stroke-width=""1.5"" fill=""none"" />
    <circle cx=425.47 cy=314.28774530181045 r=16.223022537402507 stroke=""none"" stroke-width=""1.5"" fill=""none"" />
    <polygon points = ""425.47,384 430.03345512465864,400.2230225374025 420.9065448753414,400.2230225374025"" stroke=""none"" stroke-width=""3"" fill = ""none"" />
    
    </svg>
    </div>
        ",,,,,,,,,,,,get_response,True,t6CGd8n4800pN4X3,,,True,False,False,194.53,6.0,465.0280000000001,69.71225469818954,2.14,1.0,0.0,,,,22
64,html-keyboard-response,64,450007,0.0-64.0,,,,"
    <div style="" display: block;  position: relative;"">
    
    <svg width=1366 height=768>
    <circle cx=620 cy=384 r=11.356115776181754 stroke=""black"" stroke-width=""1"" fill=""black"" />
    <circle cx=495.1822546981896 cy=384 r=16.223022537402507 stroke=""none"" stroke-width=""1.5"" fill=""none"" />
    <circle cx=425.47 cy=453.71225469818955 r=16.223022537402507 stroke=""none"" stroke-width=""1.5"" fill=""none"" />
    <circle cx=355.7577453018105 cy=384 r=16.223022537402507 stroke=""none"" stroke-width=""1.5"" fill=""none"" />
    <circle cx=425.47 cy=314.28774530181045 r=16.223022537402507 stroke=""none"" stroke-width=""1.5"" fill=""none"" />
    <polygon points = ""425.47,384 430.03345512465864,400.2230225374025 420.9065448753414,400.2230225374025"" stroke=""none"" stroke-width=""3"" fill = ""none"" />
    
    </svg>
    </div>
        ",,,,,,,,,,,,,,,,,,,,,,,,,,,,,,22
65,html-keyboard-response,65,450170,0.0-65.0,,,,"
    <div style="" display: block;  position: relative;"">
    <svg width=1366 height=768>
    
    <circle cx=620 cy=384 r=11.356115776181754 stroke=""black"" stroke-width=""1"" fill=""black"" />
    <circle cx=814.53 cy=384 r=16.223022537402507 stroke=""black"" stroke-width=""1.5"" fill=""none"" />
    <circle cx=884.2422546981895 cy=384 r=16.223022537402507 stroke=""black"" stroke-width=""1.5"" fill=""none"" />
    <circle cx=814.53 cy=453.71225469818955 r=16.223022537402507 stroke=""black"" stroke-width=""1.5"" fill=""none"" />
    <circle cx=744.8177453018104 cy=384 r=16.223022537402507 stroke=""black"" stroke-width=""1.5"" fill=""none"" />
    <circle cx=814.53 cy=314.28774530181045 r=16.223022537402507 stroke=""black"" stroke-width=""1.5"" fill=""none"" />
    <polygon points = ""814.53,384 819.0934551246586,400.2230225374025 809.9665448753414,400.2230225374025"" stroke=""white"" stroke-width=""3"" fill = ""white"" />
    
    </svg>
    </div>
        ",,,,,,,,,,,,stimulus,,,,,,,,,,,,,,,,,,22
66,html-keyboard-response,66,450588,0.0-66.0,417.7000000029802,arrowdown,,"
    <div style="" display: block;  position: relative;"">
    
    <svg width=1366 height=768>
    <circle cx=620 cy=384 r=11.356115776181754 stroke=""black"" stroke-width=""1"" fill=""black"" />
    <circle cx=884.2422546981895 cy=384 r=16.223022537402507 stroke=""none"" stroke-width=""1.5"" fill=""none"" />
    <circle cx=814.53 cy=453.71225469818955 r=16.223022537402507 stroke=""none"" stroke-width=""1.5"" fill=""none"" />
    <circle cx=744.8177453018104 cy=384 r=16.223022537402507 stroke=""none"" stroke-width=""1.5"" fill=""none"" />
    <circle cx=814.53 cy=314.28774530181045 r=16.223022537402507 stroke=""none"" stroke-width=""1.5"" fill=""none"" />
    <polygon points = ""814.53,384 819.0934551246586,400.2230225374025 809.9665448753414,400.2230225374025"" stroke=""none"" stroke-width=""3"" fill = ""none"" />
    
    </svg>
    </div>
        ",,,,,,,,,,,,get_response,True,t6CGd8n4800pN4X3,,,False,False,False,194.53,6.0,465.0280000000001,69.71225469818954,2.14,1.0,0.0,,,,22
67,html-keyboard-response,67,451108,0.0-67.0,,,,"
    <div style="" display: block;  position: relative;"">
    
    <svg width=1366 height=768>
    <circle cx=620 cy=384 r=11.356115776181754 stroke=""black"" stroke-width=""1"" fill=""black"" />
    <circle cx=884.2422546981895 cy=384 r=16.223022537402507 stroke=""none"" stroke-width=""1.5"" fill=""none"" />
    <circle cx=814.53 cy=453.71225469818955 r=16.223022537402507 stroke=""none"" stroke-width=""1.5"" fill=""none"" />
    <circle cx=744.8177453018104 cy=384 r=16.223022537402507 stroke=""none"" stroke-width=""1.5"" fill=""none"" />
    <circle cx=814.53 cy=314.28774530181045 r=16.223022537402507 stroke=""none"" stroke-width=""1.5"" fill=""none"" />
    <polygon points = ""814.53,384 819.0934551246586,400.2230225374025 809.9665448753414,400.2230225374025"" stroke=""none"" stroke-width=""3"" fill = ""none"" />
    
    </svg>
    </div>
        ",,,,,,,,,,,,,,,,,,,,,,,,,,,,,,22
68,html-keyboard-response,68,451271,0.0-68.0,,,,"
    <div style="" display: block;  position: relative;"">
    <svg width=1366 height=768>
    
    <circle cx=620 cy=384 r=11.356115776181754 stroke=""black"" stroke-width=""1"" fill=""black"" />
    <circle cx=814.53 cy=384 r=16.223022537402507 stroke=""black"" stroke-width=""1.5"" fill=""none"" />
    <circle cx=884.2422546981895 cy=384 r=16.223022537402507 stroke=""black"" stroke-width=""1.5"" fill=""none"" />
    <circle cx=814.53 cy=453.71225469818955 r=16.223022537402507 stroke=""black"" stroke-width=""1.5"" fill=""none"" />
    <circle cx=744.8177453018104 cy=384 r=16.223022537402507 stroke=""black"" stroke-width=""1.5"" fill=""none"" />
    <circle cx=814.53 cy=314.28774530181045 r=16.223022537402507 stroke=""black"" stroke-width=""1.5"" fill=""none"" />
    <polygon points = ""814.53,384 819.0934551246586,400.2230225374025 809.9665448753414,400.2230225374025"" stroke=""white"" stroke-width=""3"" fill = ""white"" />
    
    </svg>
    </div>
        ",,,,,,,,,,,,stimulus,,,,,,,,,,,,,,,,,,22
69,html-keyboard-response,69,451667,0.0-69.0,395.29999999701977,arrowdown,,"
    <div style="" display: block;  position: relative;"">
    
    <svg width=1366 height=768>
    <circle cx=620 cy=384 r=11.356115776181754 stroke=""black"" stroke-width=""1"" fill=""black"" />
    <circle cx=884.2422546981895 cy=384 r=16.223022537402507 stroke=""none"" stroke-width=""1.5"" fill=""none"" />
    <circle cx=814.53 cy=453.71225469818955 r=16.223022537402507 stroke=""none"" stroke-width=""1.5"" fill=""none"" />
    <circle cx=744.8177453018104 cy=384 r=16.223022537402507 stroke=""none"" stroke-width=""1.5"" fill=""none"" />
    <circle cx=814.53 cy=314.28774530181045 r=16.223022537402507 stroke=""none"" stroke-width=""1.5"" fill=""none"" />
    <polygon points = ""814.53,384 819.0934551246586,400.2230225374025 809.9665448753414,400.2230225374025"" stroke=""none"" stroke-width=""3"" fill = ""none"" />
    
    </svg>
    </div>
        ",,,,,,,,,,,,get_response,True,t6CGd8n4800pN4X3,,,False,False,False,194.53,6.0,465.0280000000001,69.71225469818954,2.14,1.0,0.0,,,,22
70,html-keyboard-response,70,452172,0.0-70.0,,,,"
    <div style="" display: block;  position: relative;"">
    
    <svg width=1366 height=768>
    <circle cx=620 cy=384 r=11.356115776181754 stroke=""black"" stroke-width=""1"" fill=""black"" />
    <circle cx=884.2422546981895 cy=384 r=16.223022537402507 stroke=""none"" stroke-width=""1.5"" fill=""none"" />
    <circle cx=814.53 cy=453.71225469818955 r=16.223022537402507 stroke=""none"" stroke-width=""1.5"" fill=""none"" />
    <circle cx=744.8177453018104 cy=384 r=16.223022537402507 stroke=""none"" stroke-width=""1.5"" fill=""none"" />
    <circle cx=814.53 cy=314.28774530181045 r=16.223022537402507 stroke=""none"" stroke-width=""1.5"" fill=""none"" />
    <polygon points = ""814.53,384 819.0934551246586,400.2230225374025 809.9665448753414,400.2230225374025"" stroke=""none"" stroke-width=""3"" fill = ""none"" />
    
    </svg>
    </div>
        ",,,,,,,,,,,,,,,,,,,,,,,,,,,,,,22
71,html-keyboard-response,71,452326,0.0-71.0,,,,"
    <div style="" display: block;  position: relative;"">
    <svg width=1366 height=768>
    
    <circle cx=620 cy=384 r=11.356115776181754 stroke=""black"" stroke-width=""1"" fill=""black"" />
    <circle cx=814.53 cy=384 r=16.223022537402507 stroke=""black"" stroke-width=""1.5"" fill=""none"" />
    <circle cx=877.9047769983541 cy=384 r=16.223022537402507 stroke=""black"" stroke-width=""1.5"" fill=""none"" />
    <circle cx=814.53 cy=447.37477699835415 r=16.223022537402507 stroke=""black"" stroke-width=""1.5"" fill=""none"" />
    <circle cx=751.1552230016458 cy=384 r=16.223022537402507 stroke=""black"" stroke-width=""1.5"" fill=""none"" />
    <circle cx=814.53 cy=320.62522300164585 r=16.223022537402507 stroke=""black"" stroke-width=""1.5"" fill=""none"" />
    <polygon points = ""814.53,384 819.0934551246586,400.2230225374025 809.9665448753414,400.2230225374025"" stroke=""white"" stroke-width=""3"" fill = ""white"" />
    
    </svg>
    </div>
        ",,,,,,,,,,,,stimulus,,,,,,,,,,,,,,,,,,22
72,html-keyboard-response,72,452651,0.0-72.0,323.79999999701977,arrowdown,,"
    <div style="" display: block;  position: relative;"">
    
    <svg width=1366 height=768>
    <circle cx=620 cy=384 r=11.356115776181754 stroke=""black"" stroke-width=""1"" fill=""black"" />
    <circle cx=877.9047769983541 cy=384 r=16.223022537402507 stroke=""none"" stroke-width=""1.5"" fill=""none"" />
    <circle cx=814.53 cy=447.37477699835415 r=16.223022537402507 stroke=""none"" stroke-width=""1.5"" fill=""none"" />
    <circle cx=751.1552230016458 cy=384 r=16.223022537402507 stroke=""none"" stroke-width=""1.5"" fill=""none"" />
    <circle cx=814.53 cy=320.62522300164585 r=16.223022537402507 stroke=""none"" stroke-width=""1.5"" fill=""none"" />
    <polygon points = ""814.53,384 819.0934551246586,400.2230225374025 809.9665448753414,400.2230225374025"" stroke=""none"" stroke-width=""3"" fill = ""none"" />
    
    </svg>
    </div>
        ",,,,,,,,,,,,get_response,True,t6CGd8n4800pN4X3,,,False,False,False,194.53,6.0,465.0280000000001,63.37477699835412,1.95,1.0,0.0,,,,22
73,html-keyboard-response,73,453159,0.0-73.0,,,,"
    <div style="" display: block;  position: relative;"">
    
    <svg width=1366 height=768>
    <circle cx=620 cy=384 r=11.356115776181754 stroke=""black"" stroke-width=""1"" fill=""black"" />
    <circle cx=877.9047769983541 cy=384 r=16.223022537402507 stroke=""none"" stroke-width=""1.5"" fill=""none"" />
    <circle cx=814.53 cy=447.37477699835415 r=16.223022537402507 stroke=""none"" stroke-width=""1.5"" fill=""none"" />
    <circle cx=751.1552230016458 cy=384 r=16.223022537402507 stroke=""none"" stroke-width=""1.5"" fill=""none"" />
    <circle cx=814.53 cy=320.62522300164585 r=16.223022537402507 stroke=""none"" stroke-width=""1.5"" fill=""none"" />
    <polygon points = ""814.53,384 819.0934551246586,400.2230225374025 809.9665448753414,400.2230225374025"" stroke=""none"" stroke-width=""3"" fill = ""none"" />
    
    </svg>
    </div>
        ",,,,,,,,,,,,,,,,,,,,,,,,,,,,,,22
74,html-keyboard-response,74,453312,0.0-74.0,,,,"
    <div style="" display: block;  position: relative;"">
    <svg width=1366 height=768>
    
    <circle cx=620 cy=384 r=11.356115776181754 stroke=""black"" stroke-width=""1"" fill=""black"" />
    <circle cx=814.53 cy=384 r=16.223022537402507 stroke=""black"" stroke-width=""1.5"" fill=""none"" />
    <circle cx=872.1434336348674 cy=384 r=16.223022537402507 stroke=""black"" stroke-width=""1.5"" fill=""none"" />
    <circle cx=814.53 cy=441.61343363486736 r=16.223022537402507 stroke=""black"" stroke-width=""1.5"" fill=""none"" />
    <circle cx=756.9165663651326 cy=384 r=16.223022537402507 stroke=""black"" stroke-width=""1.5"" fill=""none"" />
    <circle cx=814.53 cy=326.38656636513264 r=16.223022537402507 stroke=""black"" stroke-width=""1.5"" fill=""none"" />
    <polygon points = ""814.53,384 819.0934551246586,400.2230225374025 809.9665448753414,400.2230225374025"" stroke=""white"" stroke-width=""3"" fill = ""white"" />
    
    </svg>
    </div>
        ",,,,,,,,,,,,stimulus,,,,,,,,,,,,,,,,,,22
75,html-keyboard-response,75,453730,0.0-75.0,416.1000000014901,arrowdown,,"
    <div style="" display: block;  position: relative;"">
    
    <svg width=1366 height=768>
    <circle cx=620 cy=384 r=11.356115776181754 stroke=""black"" stroke-width=""1"" fill=""black"" />
    <circle cx=872.1434336348674 cy=384 r=16.223022537402507 stroke=""none"" stroke-width=""1.5"" fill=""none"" />
    <circle cx=814.53 cy=441.61343363486736 r=16.223022537402507 stroke=""none"" stroke-width=""1.5"" fill=""none"" />
    <circle cx=756.9165663651326 cy=384 r=16.223022537402507 stroke=""none"" stroke-width=""1.5"" fill=""none"" />
    <circle cx=814.53 cy=326.38656636513264 r=16.223022537402507 stroke=""none"" stroke-width=""1.5"" fill=""none"" />
    <polygon points = ""814.53,384 819.0934551246586,400.2230225374025 809.9665448753414,400.2230225374025"" stroke=""none"" stroke-width=""3"" fill = ""none"" />
    
    </svg>
    </div>
        ",,,,,,,,,,,,get_response,True,t6CGd8n4800pN4X3,,,False,False,False,194.53,6.0,465.0280000000001,57.61343363486738,1.77,1.0,0.0,,,,22
76,html-keyboard-response,76,454244,0.0-76.0,,,,"
    <div style="" display: block;  position: relative;"">
    
    <svg width=1366 height=768>
    <circle cx=620 cy=384 r=11.356115776181754 stroke=""black"" stroke-width=""1"" fill=""black"" />
    <circle cx=872.1434336348674 cy=384 r=16.223022537402507 stroke=""none"" stroke-width=""1.5"" fill=""none"" />
    <circle cx=814.53 cy=441.61343363486736 r=16.223022537402507 stroke=""none"" stroke-width=""1.5"" fill=""none"" />
    <circle cx=756.9165663651326 cy=384 r=16.223022537402507 stroke=""none"" stroke-width=""1.5"" fill=""none"" />
    <circle cx=814.53 cy=326.38656636513264 r=16.223022537402507 stroke=""none"" stroke-width=""1.5"" fill=""none"" />
    <polygon points = ""814.53,384 819.0934551246586,400.2230225374025 809.9665448753414,400.2230225374025"" stroke=""none"" stroke-width=""3"" fill = ""none"" />
    
    </svg>
    </div>
        ",,,,,,,,,,,,,,,,,,,,,,,,,,,,,,22
77,html-keyboard-response,77,454413,0.0-77.0,,,,"
    <div style="" display: block;  position: relative;"">
    <svg width=1366 height=768>
    
    <circle cx=620 cy=384 r=11.356115776181754 stroke=""black"" stroke-width=""1"" fill=""black"" />
    <circle cx=425.47 cy=384 r=16.223022537402507 stroke=""black"" stroke-width=""1.5"" fill=""none"" />
    <circle cx=477.84584875897036 cy=384 r=16.223022537402507 stroke=""black"" stroke-width=""1.5"" fill=""none"" />
    <circle cx=425.47 cy=436.37584875897033 r=16.223022537402507 stroke=""black"" stroke-width=""1.5"" fill=""none"" />
    <circle cx=373.0941512410297 cy=384 r=16.223022537402507 stroke=""black"" stroke-width=""1.5"" fill=""none"" />
    <circle cx=425.47 cy=331.62415124102967 r=16.223022537402507 stroke=""black"" stroke-width=""1.5"" fill=""none"" />
    <polygon points = ""425.47,384 430.03345512465864,400.2230225374025 420.9065448753414,400.2230225374025"" stroke=""white"" stroke-width=""3"" fill = ""white"" />
    
    </svg>
    </div>
        ",,,,,,,,,,,,stimulus,,,,,,,,,,,,,,,,,,22
78,html-keyboard-response,78,455327,0.0-78.0,913.3000000044703,arrowdown,,"
    <div style="" display: block;  position: relative;"">
    
    <svg width=1366 height=768>
    <circle cx=620 cy=384 r=11.356115776181754 stroke=""black"" stroke-width=""1"" fill=""black"" />
    <circle cx=477.84584875897036 cy=384 r=16.223022537402507 stroke=""none"" stroke-width=""1.5"" fill=""none"" />
    <circle cx=425.47 cy=436.37584875897033 r=16.223022537402507 stroke=""none"" stroke-width=""1.5"" fill=""none"" />
    <circle cx=373.0941512410297 cy=384 r=16.223022537402507 stroke=""none"" stroke-width=""1.5"" fill=""none"" />
    <circle cx=425.47 cy=331.62415124102967 r=16.223022537402507 stroke=""none"" stroke-width=""1.5"" fill=""none"" />
    <polygon points = ""425.47,384 430.03345512465864,400.2230225374025 420.9065448753414,400.2230225374025"" stroke=""none"" stroke-width=""3"" fill = ""none"" />
    
    </svg>
    </div>
        ",,,,,,,,,,,,get_response,True,t6CGd8n4800pN4X3,,,True,False,False,194.53,6.0,465.0280000000001,52.375848758970335,1.61,1.0,0.0,,,,22
79,html-keyboard-response,79,455830,0.0-79.0,,,,"
    <div style="" display: block;  position: relative;"">
    
    <svg width=1366 height=768>
    <circle cx=620 cy=384 r=11.356115776181754 stroke=""black"" stroke-width=""1"" fill=""black"" />
    <circle cx=477.84584875897036 cy=384 r=16.223022537402507 stroke=""none"" stroke-width=""1.5"" fill=""none"" />
    <circle cx=425.47 cy=436.37584875897033 r=16.223022537402507 stroke=""none"" stroke-width=""1.5"" fill=""none"" />
    <circle cx=373.0941512410297 cy=384 r=16.223022537402507 stroke=""none"" stroke-width=""1.5"" fill=""none"" />
    <circle cx=425.47 cy=331.62415124102967 r=16.223022537402507 stroke=""none"" stroke-width=""1.5"" fill=""none"" />
    <polygon points = ""425.47,384 430.03345512465864,400.2230225374025 420.9065448753414,400.2230225374025"" stroke=""none"" stroke-width=""3"" fill = ""none"" />
    
    </svg>
    </div>
        ",,,,,,,,,,,,,,,,,,,,,,,,,,,,,,22
80,html-keyboard-response,80,455993,0.0-80.0,,,,"
    <div style="" display: block;  position: relative;"">
    <svg width=1366 height=768>
    
    <circle cx=620 cy=384 r=11.356115776181754 stroke=""black"" stroke-width=""1"" fill=""black"" />
    <circle cx=425.47 cy=384 r=16.223022537402507 stroke=""black"" stroke-width=""1.5"" fill=""none"" />
    <circle cx=473.0844079627003 cy=384 r=16.223022537402507 stroke=""black"" stroke-width=""1.5"" fill=""none"" />
    <circle cx=425.47 cy=431.6144079627003 r=16.223022537402507 stroke=""black"" stroke-width=""1.5"" fill=""none"" />
    <circle cx=377.85559203729974 cy=384 r=16.223022537402507 stroke=""black"" stroke-width=""1.5"" fill=""none"" />
    <circle cx=425.47 cy=336.3855920372997 r=16.223022537402507 stroke=""black"" stroke-width=""1.5"" fill=""none"" />
    <polygon points = ""425.47,384 430.03345512465864,400.2230225374025 420.9065448753414,400.2230225374025"" stroke=""white"" stroke-width=""3"" fill = ""white"" />
    
    </svg>
    </div>
        ",,,,,,,,,,,,stimulus,,,,,,,,,,,,,,,,,,22
81,html-keyboard-response,81,456472,0.0-81.0,478.3999999985099,arrowdown,,"
    <div style="" display: block;  position: relative;"">
    
    <svg width=1366 height=768>
    <circle cx=620 cy=384 r=11.356115776181754 stroke=""black"" stroke-width=""1"" fill=""black"" />
    <circle cx=473.0844079627003 cy=384 r=16.223022537402507 stroke=""none"" stroke-width=""1.5"" fill=""none"" />
    <circle cx=425.47 cy=431.6144079627003 r=16.223022537402507 stroke=""none"" stroke-width=""1.5"" fill=""none"" />
    <circle cx=377.85559203729974 cy=384 r=16.223022537402507 stroke=""none"" stroke-width=""1.5"" fill=""none"" />
    <circle cx=425.47 cy=336.3855920372997 r=16.223022537402507 stroke=""none"" stroke-width=""1.5"" fill=""none"" />
    <polygon points = ""425.47,384 430.03345512465864,400.2230225374025 420.9065448753414,400.2230225374025"" stroke=""none"" stroke-width=""3"" fill = ""none"" />
    
    </svg>
    </div>
        ",,,,,,,,,,,,get_response,True,t6CGd8n4800pN4X3,,,True,False,False,194.53,6.0,465.0280000000001,47.6144079627003,1.46,1.0,0.0,,,,22
82,html-keyboard-response,82,456979,0.0-82.0,,,,"
    <div style="" display: block;  position: relative;"">
    
    <svg width=1366 height=768>
    <circle cx=620 cy=384 r=11.356115776181754 stroke=""black"" stroke-width=""1"" fill=""black"" />
    <circle cx=473.0844079627003 cy=384 r=16.223022537402507 stroke=""none"" stroke-width=""1.5"" fill=""none"" />
    <circle cx=425.47 cy=431.6144079627003 r=16.223022537402507 stroke=""none"" stroke-width=""1.5"" fill=""none"" />
    <circle cx=377.85559203729974 cy=384 r=16.223022537402507 stroke=""none"" stroke-width=""1.5"" fill=""none"" />
    <circle cx=425.47 cy=336.3855920372997 r=16.223022537402507 stroke=""none"" stroke-width=""1.5"" fill=""none"" />
    <polygon points = ""425.47,384 430.03345512465864,400.2230225374025 420.9065448753414,400.2230225374025"" stroke=""none"" stroke-width=""3"" fill = ""none"" />
    
    </svg>
    </div>
        ",,,,,,,,,,,,,,,,,,,,,,,,,,,,,,22
83,html-keyboard-response,83,457133,0.0-83.0,,,,"
    <div style="" display: block;  position: relative;"">
    <svg width=1366 height=768>
    
    <circle cx=620 cy=384 r=11.356115776181754 stroke=""black"" stroke-width=""1"" fill=""black"" />
    <circle cx=814.53 cy=384 r=16.223022537402507 stroke=""black"" stroke-width=""1.5"" fill=""none"" />
    <circle cx=857.8158254206367 cy=384 r=16.223022537402507 stroke=""black"" stroke-width=""1.5"" fill=""none"" />
    <circle cx=814.53 cy=427.2858254206366 r=16.223022537402507 stroke=""black"" stroke-width=""1.5"" fill=""none"" />
    <circle cx=771.2441745793633 cy=384 r=16.223022537402507 stroke=""black"" stroke-width=""1.5"" fill=""none"" />
    <circle cx=814.53 cy=340.7141745793634 r=16.223022537402507 stroke=""black"" stroke-width=""1.5"" fill=""none"" />
    <polygon points = ""814.53,384 819.0934551246586,400.2230225374025 809.9665448753414,400.2230225374025"" stroke=""white"" stroke-width=""3"" fill = ""white"" />
    
    </svg>
    </div>
        ",,,,,,,,,,,,stimulus,,,,,,,,,,,,,,,,,,22
84,html-keyboard-response,84,457569,0.0-84.0,434.7000000029802,arrowdown,,"
    <div style="" display: block;  position: relative;"">
    
    <svg width=1366 height=768>
    <circle cx=620 cy=384 r=11.356115776181754 stroke=""black"" stroke-width=""1"" fill=""black"" />
    <circle cx=857.8158254206367 cy=384 r=16.223022537402507 stroke=""none"" stroke-width=""1.5"" fill=""none"" />
    <circle cx=814.53 cy=427.2858254206366 r=16.223022537402507 stroke=""none"" stroke-width=""1.5"" fill=""none"" />
    <circle cx=771.2441745793633 cy=384 r=16.223022537402507 stroke=""none"" stroke-width=""1.5"" fill=""none"" />
    <circle cx=814.53 cy=340.7141745793634 r=16.223022537402507 stroke=""none"" stroke-width=""1.5"" fill=""none"" />
    <polygon points = ""814.53,384 819.0934551246586,400.2230225374025 809.9665448753414,400.2230225374025"" stroke=""none"" stroke-width=""3"" fill = ""none"" />
    
    </svg>
    </div>
        ",,,,,,,,,,,,get_response,True,t6CGd8n4800pN4X3,,,False,False,False,194.53,6.0,465.0280000000001,43.28582542063664,1.33,1.0,0.0,,,,22
85,html-keyboard-response,85,458080,0.0-85.0,,,,"
    <div style="" display: block;  position: relative;"">
    
    <svg width=1366 height=768>
    <circle cx=620 cy=384 r=11.356115776181754 stroke=""black"" stroke-width=""1"" fill=""black"" />
    <circle cx=857.8158254206367 cy=384 r=16.223022537402507 stroke=""none"" stroke-width=""1.5"" fill=""none"" />
    <circle cx=814.53 cy=427.2858254206366 r=16.223022537402507 stroke=""none"" stroke-width=""1.5"" fill=""none"" />
    <circle cx=771.2441745793633 cy=384 r=16.223022537402507 stroke=""none"" stroke-width=""1.5"" fill=""none"" />
    <circle cx=814.53 cy=340.7141745793634 r=16.223022537402507 stroke=""none"" stroke-width=""1.5"" fill=""none"" />
    <polygon points = ""814.53,384 819.0934551246586,400.2230225374025 809.9665448753414,400.2230225374025"" stroke=""none"" stroke-width=""3"" fill = ""none"" />
    
    </svg>
    </div>
        ",,,,,,,,,,,,,,,,,,,,,,,,,,,,,,22
86,html-keyboard-response,86,458234,0.0-86.0,,,,"
    <div style="" display: block;  position: relative;"">
    <svg width=1366 height=768>
    
    <circle cx=620 cy=384 r=11.356115776181754 stroke=""black"" stroke-width=""1"" fill=""black"" />
    <circle cx=814.53 cy=384 r=16.223022537402507 stroke=""black"" stroke-width=""1.5"" fill=""none"" />
    <circle cx=853.8807503823969 cy=384 r=16.223022537402507 stroke=""black"" stroke-width=""1.5"" fill=""none"" />
    <circle cx=814.53 cy=423.35075038239694 r=16.223022537402507 stroke=""black"" stroke-width=""1.5"" fill=""none"" />
    <circle cx=775.1792496176031 cy=384 r=16.223022537402507 stroke=""black"" stroke-width=""1.5"" fill=""none"" />
    <circle cx=814.53 cy=344.64924961760306 r=16.223022537402507 stroke=""black"" stroke-width=""1.5"" fill=""none"" />
    <polygon points = ""814.53,384 819.0934551246586,367.7769774625975 809.9665448753414,367.7769774625975"" stroke=""white"" stroke-width=""3"" fill = ""white"" />
    
    </svg>
    </div>
        ",,,,,,,,,,,,stimulus,,,,,,,,,,,,,,,,,,22
87,html-keyboard-response,87,458588,0.0-87.0,353.29999999701977,arrowup,,"
    <div style="" display: block;  position: relative;"">
    
    <svg width=1366 height=768>
    <circle cx=620 cy=384 r=11.356115776181754 stroke=""black"" stroke-width=""1"" fill=""black"" />
    <circle cx=853.8807503823969 cy=384 r=16.223022537402507 stroke=""none"" stroke-width=""1.5"" fill=""none"" />
    <circle cx=814.53 cy=423.35075038239694 r=16.223022537402507 stroke=""none"" stroke-width=""1.5"" fill=""none"" />
    <circle cx=775.1792496176031 cy=384 r=16.223022537402507 stroke=""none"" stroke-width=""1.5"" fill=""none"" />
    <circle cx=814.53 cy=344.64924961760306 r=16.223022537402507 stroke=""none"" stroke-width=""1.5"" fill=""none"" />
    <polygon points = ""814.53,384 819.0934551246586,367.7769774625975 809.9665448753414,367.7769774625975"" stroke=""none"" stroke-width=""3"" fill = ""none"" />
    
    </svg>
    </div>
        ",,,,,,,,,,,,get_response,True,t6CGd8n4800pN4X3,,,False,True,False,194.53,6.0,465.0280000000001,39.35075038239694,1.21,1.0,0.0,,,,22
88,html-keyboard-response,88,459097,0.0-88.0,,,,"
    <div style="" display: block;  position: relative;"">
    
    <svg width=1366 height=768>
    <circle cx=620 cy=384 r=11.356115776181754 stroke=""black"" stroke-width=""1"" fill=""black"" />
    <circle cx=853.8807503823969 cy=384 r=16.223022537402507 stroke=""none"" stroke-width=""1.5"" fill=""none"" />
    <circle cx=814.53 cy=423.35075038239694 r=16.223022537402507 stroke=""none"" stroke-width=""1.5"" fill=""none"" />
    <circle cx=775.1792496176031 cy=384 r=16.223022537402507 stroke=""none"" stroke-width=""1.5"" fill=""none"" />
    <circle cx=814.53 cy=344.64924961760306 r=16.223022537402507 stroke=""none"" stroke-width=""1.5"" fill=""none"" />
    <polygon points = ""814.53,384 819.0934551246586,367.7769774625975 809.9665448753414,367.7769774625975"" stroke=""none"" stroke-width=""3"" fill = ""none"" />
    
    </svg>
    </div>
        ",,,,,,,,,,,,,,,,,,,,,,,,,,,,,,22
89,html-keyboard-response,89,459252,0.0-89.0,,,,"
    <div style="" display: block;  position: relative;"">
    <svg width=1366 height=768>
    
    <circle cx=620 cy=384 r=11.356115776181754 stroke=""black"" stroke-width=""1"" fill=""black"" />
    <circle cx=814.53 cy=384 r=16.223022537402507 stroke=""black"" stroke-width=""1.5"" fill=""none"" />
    <circle cx=850.3034094385426 cy=384 r=16.223022537402507 stroke=""black"" stroke-width=""1.5"" fill=""none"" />
    <circle cx=814.53 cy=419.77340943854267 r=16.223022537402507 stroke=""black"" stroke-width=""1.5"" fill=""none"" />
    <circle cx=778.7565905614573 cy=384 r=16.223022537402507 stroke=""black"" stroke-width=""1.5"" fill=""none"" />
    <circle cx=814.53 cy=348.22659056145733 r=16.223022537402507 stroke=""black"" stroke-width=""1.5"" fill=""none"" />
    <polygon points = ""814.53,384 819.0934551246586,400.2230225374025 809.9665448753414,400.2230225374025"" stroke=""white"" stroke-width=""3"" fill = ""white"" />
    
    </svg>
    </div>
        ",,,,,,,,,,,,stimulus,,,,,,,,,,,,,,,,,,22
90,html-keyboard-response,90,459651,0.0-90.0,397.3999999985099,arrowdown,,"
    <div style="" display: block;  position: relative;"">
    
    <svg width=1366 height=768>
    <circle cx=620 cy=384 r=11.356115776181754 stroke=""black"" stroke-width=""1"" fill=""black"" />
    <circle cx=850.3034094385426 cy=384 r=16.223022537402507 stroke=""none"" stroke-width=""1.5"" fill=""none"" />
    <circle cx=814.53 cy=419.77340943854267 r=16.223022537402507 stroke=""none"" stroke-width=""1.5"" fill=""none"" />
    <circle cx=778.7565905614573 cy=384 r=16.223022537402507 stroke=""none"" stroke-width=""1.5"" fill=""none"" />
    <circle cx=814.53 cy=348.22659056145733 r=16.223022537402507 stroke=""none"" stroke-width=""1.5"" fill=""none"" />
    <polygon points = ""814.53,384 819.0934551246586,400.2230225374025 809.9665448753414,400.2230225374025"" stroke=""none"" stroke-width=""3"" fill = ""none"" />
    
    </svg>
    </div>
        ",,,,,,,,,,,,get_response,True,t6CGd8n4800pN4X3,,,False,False,False,194.53,6.0,465.0280000000001,35.77340943854267,1.1,1.0,0.0,,,,22
91,html-keyboard-response,91,460153,0.0-91.0,,,,"
    <div style="" display: block;  position: relative;"">
    
    <svg width=1366 height=768>
    <circle cx=620 cy=384 r=11.356115776181754 stroke=""black"" stroke-width=""1"" fill=""black"" />
    <circle cx=850.3034094385426 cy=384 r=16.223022537402507 stroke=""none"" stroke-width=""1.5"" fill=""none"" />
    <circle cx=814.53 cy=419.77340943854267 r=16.223022537402507 stroke=""none"" stroke-width=""1.5"" fill=""none"" />
    <circle cx=778.7565905614573 cy=384 r=16.223022537402507 stroke=""none"" stroke-width=""1.5"" fill=""none"" />
    <circle cx=814.53 cy=348.22659056145733 r=16.223022537402507 stroke=""none"" stroke-width=""1.5"" fill=""none"" />
    <polygon points = ""814.53,384 819.0934551246586,400.2230225374025 809.9665448753414,400.2230225374025"" stroke=""none"" stroke-width=""3"" fill = ""none"" />
    
    </svg>
    </div>
        ",,,,,,,,,,,,,,,,,,,,,,,,,,,,,,22
92,html-keyboard-response,92,460322,0.0-92.0,,,,"
    <div style="" display: block;  position: relative;"">
    <svg width=1366 height=768>
    
    <circle cx=620 cy=384 r=11.356115776181754 stroke=""black"" stroke-width=""1"" fill=""black"" />
    <circle cx=425.47 cy=384 r=16.223022537402507 stroke=""black"" stroke-width=""1.5"" fill=""none"" />
    <circle cx=457.9912813077661 cy=384 r=16.223022537402507 stroke=""black"" stroke-width=""1.5"" fill=""none"" />
    <circle cx=425.47 cy=416.52128130776606 r=16.223022537402507 stroke=""black"" stroke-width=""1.5"" fill=""none"" />
    <circle cx=392.94871869223397 cy=384 r=16.223022537402507 stroke=""black"" stroke-width=""1.5"" fill=""none"" />
    <circle cx=425.47 cy=351.47871869223394 r=16.223022537402507 stroke=""black"" stroke-width=""1.5"" fill=""none"" />
    <polygon points = ""425.47,384 430.03345512465864,367.7769774625975 420.9065448753414,367.7769774625975"" stroke=""white"" stroke-width=""3"" fill = ""white"" />
    
    </svg>
    </div>
        ",,,,,,,,,,,,stimulus,,,,,,,,,,,,,,,,,,22
93,html-keyboard-response,93,460825,0.0-93.0,501.6000000014901,arrowup,,"
    <div style="" display: block;  position: relative;"">
    
    <svg width=1366 height=768>
    <circle cx=620 cy=384 r=11.356115776181754 stroke=""black"" stroke-width=""1"" fill=""black"" />
    <circle cx=457.9912813077661 cy=384 r=16.223022537402507 stroke=""none"" stroke-width=""1.5"" fill=""none"" />
    <circle cx=425.47 cy=416.52128130776606 r=16.223022537402507 stroke=""none"" stroke-width=""1.5"" fill=""none"" />
    <circle cx=392.94871869223397 cy=384 r=16.223022537402507 stroke=""none"" stroke-width=""1.5"" fill=""none"" />
    <circle cx=425.47 cy=351.47871869223394 r=16.223022537402507 stroke=""none"" stroke-width=""1.5"" fill=""none"" />
    <polygon points = ""425.47,384 430.03345512465864,367.7769774625975 420.9065448753414,367.7769774625975"" stroke=""none"" stroke-width=""3"" fill = ""none"" />
    
    </svg>
    </div>
        ",,,,,,,,,,,,get_response,True,t6CGd8n4800pN4X3,,,True,True,False,194.53,6.0,465.0280000000001,32.52128130776606,1.0,1.0,0.0,,,,22
94,html-keyboard-response,94,461339,0.0-94.0,,,,"
    <div style="" display: block;  position: relative;"">
    
    <svg width=1366 height=768>
    <circle cx=620 cy=384 r=11.356115776181754 stroke=""black"" stroke-width=""1"" fill=""black"" />
    <circle cx=457.9912813077661 cy=384 r=16.223022537402507 stroke=""none"" stroke-width=""1.5"" fill=""none"" />
    <circle cx=425.47 cy=416.52128130776606 r=16.223022537402507 stroke=""none"" stroke-width=""1.5"" fill=""none"" />
    <circle cx=392.94871869223397 cy=384 r=16.223022537402507 stroke=""none"" stroke-width=""1.5"" fill=""none"" />
    <circle cx=425.47 cy=351.47871869223394 r=16.223022537402507 stroke=""none"" stroke-width=""1.5"" fill=""none"" />
    <polygon points = ""425.47,384 430.03345512465864,367.7769774625975 420.9065448753414,367.7769774625975"" stroke=""none"" stroke-width=""3"" fill = ""none"" />
    
    </svg>
    </div>
        ",,,,,,,,,,,,,,,,,,,,,,,,,,,,,,22
95,html-keyboard-response,95,461502,0.0-95.0,,,,"
    <div style="" display: block;  position: relative;"">
    <svg width=1366 height=768>
    
    <circle cx=620 cy=384 r=11.356115776181754 stroke=""black"" stroke-width=""1"" fill=""black"" />
    <circle cx=425.47 cy=384 r=16.223022537402507 stroke=""black"" stroke-width=""1.5"" fill=""none"" />
    <circle cx=457.916045074805 cy=384 r=16.223022537402507 stroke=""black"" stroke-width=""1.5"" fill=""none"" />
    <circle cx=425.47 cy=416.446045074805 r=16.223022537402507 stroke=""black"" stroke-width=""1.5"" fill=""none"" />
    <circle cx=393.023954925195 cy=384 r=16.223022537402507 stroke=""black"" stroke-width=""1.5"" fill=""none"" />
    <circle cx=425.47 cy=351.553954925195 r=16.223022537402507 stroke=""black"" stroke-width=""1.5"" fill=""none"" />
    <polygon points = ""425.47,384 430.03345512465864,367.7769774625975 420.9065448753414,367.7769774625975"" stroke=""white"" stroke-width=""3"" fill = ""white"" />
    
    </svg>
    </div>
        ",,,,,,,,,,,,stimulus,,,,,,,,,,,,,,,,,,22
96,html-keyboard-response,96,462013,0.0-96.0,510.79999999701977,arrowup,,"
    <div style="" display: block;  position: relative;"">
    
    <svg width=1366 height=768>
    <circle cx=620 cy=384 r=11.356115776181754 stroke=""black"" stroke-width=""1"" fill=""black"" />
    <circle cx=457.916045074805 cy=384 r=16.223022537402507 stroke=""none"" stroke-width=""1.5"" fill=""none"" />
    <circle cx=425.47 cy=416.446045074805 r=16.223022537402507 stroke=""none"" stroke-width=""1.5"" fill=""none"" />
    <circle cx=393.023954925195 cy=384 r=16.223022537402507 stroke=""none"" stroke-width=""1.5"" fill=""none"" />
    <circle cx=425.47 cy=351.553954925195 r=16.223022537402507 stroke=""none"" stroke-width=""1.5"" fill=""none"" />
    <polygon points = ""425.47,384 430.03345512465864,367.7769774625975 420.9065448753414,367.7769774625975"" stroke=""none"" stroke-width=""3"" fill = ""none"" />
    
    </svg>
    </div>
        ",,,,,,,,,,,,get_response,True,t6CGd8n4800pN4X3,,,True,True,False,194.53,6.0,465.0280000000001,32.44604507480501,1.0,1.0,0.0,,,,22
97,html-keyboard-response,97,462526,0.0-97.0,,,,"
    <div style="" display: block;  position: relative;"">
    
    <svg width=1366 height=768>
    <circle cx=620 cy=384 r=11.356115776181754 stroke=""black"" stroke-width=""1"" fill=""black"" />
    <circle cx=457.916045074805 cy=384 r=16.223022537402507 stroke=""none"" stroke-width=""1.5"" fill=""none"" />
    <circle cx=425.47 cy=416.446045074805 r=16.223022537402507 stroke=""none"" stroke-width=""1.5"" fill=""none"" />
    <circle cx=393.023954925195 cy=384 r=16.223022537402507 stroke=""none"" stroke-width=""1.5"" fill=""none"" />
    <circle cx=425.47 cy=351.553954925195 r=16.223022537402507 stroke=""none"" stroke-width=""1.5"" fill=""none"" />
    <polygon points = ""425.47,384 430.03345512465864,367.7769774625975 420.9065448753414,367.7769774625975"" stroke=""none"" stroke-width=""3"" fill = ""none"" />
    
    </svg>
    </div>
        ",,,,,,,,,,,,,,,,,,,,,,,,,,,,,,22
98,html-keyboard-response,98,462689,0.0-98.0,,,,"
    <div style="" display: block;  position: relative;"">
    <svg width=1366 height=768>
    
    <circle cx=620 cy=384 r=11.356115776181754 stroke=""black"" stroke-width=""1"" fill=""black"" />
    <circle cx=425.47 cy=384 r=16.223022537402507 stroke=""black"" stroke-width=""1.5"" fill=""none"" />
    <circle cx=457.916045074805 cy=384 r=16.223022537402507 stroke=""black"" stroke-width=""1.5"" fill=""none"" />
    <circle cx=425.47 cy=416.446045074805 r=16.223022537402507 stroke=""black"" stroke-width=""1.5"" fill=""none"" />
    <circle cx=393.023954925195 cy=384 r=16.223022537402507 stroke=""black"" stroke-width=""1.5"" fill=""none"" />
    <circle cx=425.47 cy=351.553954925195 r=16.223022537402507 stroke=""black"" stroke-width=""1.5"" fill=""none"" />
    <polygon points = ""425.47,384 430.03345512465864,367.7769774625975 420.9065448753414,367.7769774625975"" stroke=""white"" stroke-width=""3"" fill = ""white"" />
    
    </svg>
    </div>
        ",,,,,,,,,,,,stimulus,,,,,,,,,,,,,,,,,,22
99,html-keyboard-response,99,463048,0.0-99.0,357.8999999985099,arrowup,,"
    <div style="" display: block;  position: relative;"">
    
    <svg width=1366 height=768>
    <circle cx=620 cy=384 r=11.356115776181754 stroke=""black"" stroke-width=""1"" fill=""black"" />
    <circle cx=457.916045074805 cy=384 r=16.223022537402507 stroke=""none"" stroke-width=""1.5"" fill=""none"" />
    <circle cx=425.47 cy=416.446045074805 r=16.223022537402507 stroke=""none"" stroke-width=""1.5"" fill=""none"" />
    <circle cx=393.023954925195 cy=384 r=16.223022537402507 stroke=""none"" stroke-width=""1.5"" fill=""none"" />
    <circle cx=425.47 cy=351.553954925195 r=16.223022537402507 stroke=""none"" stroke-width=""1.5"" fill=""none"" />
    <polygon points = ""425.47,384 430.03345512465864,367.7769774625975 420.9065448753414,367.7769774625975"" stroke=""none"" stroke-width=""3"" fill = ""none"" />
    
    </svg>
    </div>
        ",,,,,,,,,,,,get_response,True,t6CGd8n4800pN4X3,,,True,True,False,194.53,6.0,465.0280000000001,32.44604507480501,1.0,1.0,0.96,,,,22
100,html-keyboard-response,100,472196,0.0-100.0,9147.29999999702,arrowdown,,"<div id=""continue""> 
<h2 class=""bolded-blue"">Great Job! You have completed half of the study!</h2>
<p>Before you start the session 2, let&#39;s measure your viewing distance again using the virtual chinrest.</p>
<p>Please press the <b>down</b> arrow key to continue. </p>
</div>",,,,,,,,,,,,,,,,,,,,,,,,,,,,,,22
101,virtual-chinrest,101,566020,0.0-101.0,93823.10000000148,,,,,,85.6,53.98,343.0,4.01,629.55,7.778545680695008,44.09564642028986,30.978114868307237,17.41668537251827,,,,,,,,,,,,,,,,,,,22
102,html-keyboard-response,102,580668,0.0-102.0,14646.20000000298,arrowdown,,"<div><h2 class=""bolded-blue"">Alright, let&#39;s do the peripheral vision test one more time!</h2>
<p>Please do not move around and keep your eye on the <b>black dot</b> all the time. Click <b>up</b> or <b>down</b> to indicate the opening
    of the center circle. The test is difficult for everyone, so if you are not sure, just take your best guess! </p> 
    <p>Now, press the <b>down</b> arrow key to start the task when you are ready!</p></div>",,,,,,,,,,,,,,,,,,,,,,,,,,,,,,22
103,html-keyboard-response,103,581175,0.0-103.0,,,,"
    <div style="" display: block;  position: relative;"">
    
    <svg width=1366 height=768>
    <circle cx=620 cy=384 r=15.62645825941545 stroke=""black"" stroke-width=""1"" fill=""black"" />
    <circle cx=473.626045074805 cy=384 r=22.32351179916493 stroke=""none"" stroke-width=""1.5"" fill=""none"" />
    <circle cx=441.18 cy=416.446045074805 r=22.32351179916493 stroke=""none"" stroke-width=""1.5"" fill=""none"" />
    <circle cx=408.733954925195 cy=384 r=22.32351179916493 stroke=""none"" stroke-width=""1.5"" fill=""none"" />
    <circle cx=441.18 cy=351.553954925195 r=22.32351179916493 stroke=""none"" stroke-width=""1.5"" fill=""none"" />
    <polygon points = ""441.18,384 447.4594922515461,406.3235117991649 434.9005077484539,406.3235117991649"" stroke=""none"" stroke-width=""3"" fill = ""none"" />
    
    </svg>
    </div>
        ",,,,,,,,,,,,,,,,,,,,,,,,,,,,,,22
104,html-keyboard-response,104,581329,0.0-104.0,,,,"
    <div style="" display: block;  position: relative;"">
    <svg width=1366 height=768>
    
    <circle cx=620 cy=384 r=15.62645825941545 stroke=""black"" stroke-width=""1"" fill=""black"" />
    <circle cx=441.18 cy=384 r=22.32351179916493 stroke=""black"" stroke-width=""1.5"" fill=""none"" />
    <circle cx=557.413 cy=384 r=22.32351179916493 stroke=""black"" stroke-width=""1.5"" fill=""none"" />
    <circle cx=441.18 cy=500.233 r=22.32351179916493 stroke=""black"" stroke-width=""1.5"" fill=""none"" />
    <circle cx=324.947 cy=384 r=22.32351179916493 stroke=""black"" stroke-width=""1.5"" fill=""none"" />
    <circle cx=441.18 cy=267.767 r=22.32351179916493 stroke=""black"" stroke-width=""1.5"" fill=""none"" />
    <polygon points = ""441.18,384 447.4594922515461,406.3235117991649 434.9005077484539,406.3235117991649"" stroke=""white"" stroke-width=""3"" fill = ""white"" />
    
    </svg>
    </div>
        ",,,,,,,,,,,,stimulus,,,,,,,,,,,,,,,,,,22
105,html-keyboard-response,105,581733,0.0-105.0,403.3999999985099,arrowdown,,"
    <div style="" display: block;  position: relative;"">
    
    <svg width=1366 height=768>
    <circle cx=620 cy=384 r=15.62645825941545 stroke=""black"" stroke-width=""1"" fill=""black"" />
    <circle cx=557.413 cy=384 r=22.32351179916493 stroke=""none"" stroke-width=""1.5"" fill=""none"" />
