"trial_type","trial_index","time_elapsed","internal_node_id","rt","response","success","stimulus","start_time","start_time_unix","item_width_mm","item_height_mm","item_width_px","px2mm","view_dist_mm","item_width_deg","px2deg","win_width_deg","win_height_deg","trialType","correct","participantID","criticalSpacing","criticalSpacing_deg","isLeft","isUp","isEccen4","eccentricity","eccentricity_deg","viewingDistanceMean","critical_spacing","critical_spacing_deg","crowding_session","correctRate","viewDistance_1","viewDistance_2","viewDistance_3"
"pavlovia","0","7","0.0-0.0","","","","","","","","","","","","","","","","","","","","","","","","","","","","","","","","",""
"survey-text","1","3509","0.0-1.0","3460.5","{""Q0"":""""}","","","","","","","","","","","","","","","","","","","","","","","","","","","","","","",""
"fullscreen","2","7485","0.0-2.0","","","true","","","","","","","","","","","","","","","","","","","","","","","","","","","","","",""
"html-keyboard-response","3","14527","0.0-3.0","7039.800000011921","enter","","<h1>Consent Form</h1>
       <p>By answering the following questions, you are participating in a study being performed by cognitive scientists in the Stanford Department of Psychology. If you have questions about this research, please contact us at stanfordpsych251@gmail.com. You must be at least 18 years old to participate. Your participation in this research is voluntary. You may decline to answer any or all of the following questions. You may decline further participation by closing the window, at any time, without adverse consequences. Your anonymity is assured; the researchers who have requested your participation will not receive any personal information about you.</p>
       <p>Press <b>any key</b> to start the experiment!</p>","","","","","","","","","","","","","","","","","","","","","","","","","","","","",""
"html-keyboard-response","4","17210","0.0-4.0","2682.4000000059605","enter","","<h1>Welcome to the Visual Crowding Experiment!</h1>
       <p>This test will take <b>10-12</b> minutes to complete.</p>
       <p>Press any key to start the experiment!</p>","01/12/2021, 09:19:35","1638343175055","","","","","","","","","","","","","","","","","","","","","","","","","","",""
"html-keyboard-response","5","33907","0.0-5.0","16695.80000001192","arrowdown","","<div> 
<p> Before you begin this study, let&#39;s quickly test how far away you are sitting. You might know that vision tests at a doctor&#39;s practice often involve chinrests, the doctor basically asks you to sit away from a screen in a specific distance. We do this here with a <b>virtual chinrest</b>. </p>
<p> Please press the <b>down</b> arrow to continue.
</p>
</div>","","","","","","","","","","","","","","","","","","","","","","","","","","","","",""
"virtual-chinrest","6","241763","0.0-6.0","207853.69999998808","","","","","","85.6","53.98","321","3.75","611.6","8.006108478786576","40.09438553706076","31.924669323510333","19.1548015941062","","","","","","","","","","","","","","","","","",""
"html-keyboard-response","7","326937","0.0-7.0","85170.79999998212","arrowdown","","
	<h2 class=""bolded-blue"">Now, you will take a peripheral vision test!</h2>
<p> 
	<b>
		<font size=""140%"">1. </font>
	</b>
	<em><b>Please use both eyes for the following task.</b></em> First, you will see a screen (like the one in the image below) showing a <b>black dot</b> in the middle of the screen, with a group of circles displayed on either the <span class=""bolded-blue"">left</span> or <span class=""bolded-blue"">right</span> of the black dot for 150 ms. <span class=""bolded-blue"">Please make sure to focus on the black dot all the time!</span>

	<div>
		<img src=""example.png"" alt=""example"" style=""border: 2px solid black"" width=""600""/> 
	</div>
	
	<b>
		<font size=""140%"">2. </font>
	</b>
	Your task is to identify whether the opening of the <b class=""bolded-blue"">center circle</b> is upward by pressing UP or downward by pressing DOWN on your keyboard. The opening of the circle will only be upward or downward, not towards left or right.

	<div>
		<img src=""arrow_keys+.png"" alt=""arrows"" style=""border: 2px solid black"" width=""600""/>
	</div>
	<br>

<p>Please press the <b>down</b> arrow key to start the <span class=""bolded-blue"">practice task</span> (this first practice task will not count toward your final results).</p>
</p>
","","","","","","","","","","","","","","","","","","","","","","","","","","","","",""
"html-keyboard-response","8","327441","0.0-8.0","null","null","","
    <div style="" display: block;  position: relative;"">
    
    <svg width=1280 height=768>
    <circle cx=577 cy=384 r=14.38995677371828 stroke=""black"" stroke-width=""1"" fill=""black"" />
    <circle cx=NaN cy=384 r=20.55708110531183 stroke=""none"" stroke-width=""1.5"" fill=""none"" />
    <circle cx=412.33000000000004 cy=NaN r=20.55708110531183 stroke=""none"" stroke-width=""1.5"" fill=""none"" />
    <circle cx=NaN cy=384 r=20.55708110531183 stroke=""none"" stroke-width=""1.5"" fill=""none"" />
    <circle cx=412.33000000000004 cy=NaN r=20.55708110531183 stroke=""none"" stroke-width=""1.5"" fill=""none"" />
    <polygon points = ""412.33000000000004,384 418.11260412951873,404.55708110531185 406.54739587048135,404.55708110531185"" stroke=""none"" stroke-width=""3"" fill = ""none"" />
    
    </svg>
    </div>
        ","","","","","","","","","","","","","","","","","","","","","","","","","","","","",""
"html-keyboard-response","9","327599","0.0-9.0","null","null","","
    <div style="" display: block;  position: relative;"">
    <svg width=1280 height=768>
    
    <circle cx=577 cy=384 r=14.38995677371828 stroke=""black"" stroke-width=""1"" fill=""black"" />
    <circle cx=412.33000000000004 cy=384 r=20.55708110531183 stroke=""black"" stroke-width=""1.5"" fill=""none"" />
    <circle cx=519.3655 cy=384 r=20.55708110531183 stroke=""black"" stroke-width=""1.5"" fill=""none"" />
    <circle cx=412.33000000000004 cy=491.0355 r=20.55708110531183 stroke=""black"" stroke-width=""1.5"" fill=""none"" />
    <circle cx=305.2945 cy=384 r=20.55708110531183 stroke=""black"" stroke-width=""1.5"" fill=""none"" />
    <circle cx=412.33000000000004 cy=276.9645 r=20.55708110531183 stroke=""black"" stroke-width=""1.5"" fill=""none"" />
    <polygon points = ""412.33000000000004,384 418.11260412951873,363.44291889468815 406.54739587048135,363.44291889468815"" stroke=""white"" stroke-width=""3"" fill = ""white"" />
    
    </svg>
    </div>
        ","","","","","","","","","","","","stimulus","","","","","","","","","","","","","","","","",""
"html-keyboard-response","10","328424","0.0-10.0","823.5","arrowup","","
    <div style="" display: block;  position: relative;"">
    
    <svg width=1280 height=768>
    <circle cx=577 cy=384 r=14.38995677371828 stroke=""black"" stroke-width=""1"" fill=""black"" />
    <circle cx=519.3655 cy=384 r=20.55708110531183 stroke=""none"" stroke-width=""1.5"" fill=""none"" />
    <circle cx=412.33000000000004 cy=491.0355 r=20.55708110531183 stroke=""none"" stroke-width=""1.5"" fill=""none"" />
    <circle cx=305.2945 cy=384 r=20.55708110531183 stroke=""none"" stroke-width=""1.5"" fill=""none"" />
    <circle cx=412.33000000000004 cy=276.9645 r=20.55708110531183 stroke=""none"" stroke-width=""1.5"" fill=""none"" />
    <polygon points = ""412.33000000000004,384 418.11260412951873,363.44291889468815 406.54739587048135,363.44291889468815"" stroke=""none"" stroke-width=""3"" fill = ""none"" />
    
    </svg>
    </div>
        ","","","","","","","","","","","","practice_get_response","true","KWlh4a0dAwZLVier","107.0355","2.6","true","true","false","164.67","4","630.1179999999999","","","","","","",""
"html-keyboard-response","11","328942","0.0-11.0","null","null","","
    <div style="" display: block;  position: relative;"">
    
    <svg width=1280 height=768>
    <circle cx=577 cy=384 r=14.38995677371828 stroke=""black"" stroke-width=""1"" fill=""black"" />
    <circle cx=519.3655 cy=384 r=20.55708110531183 stroke=""none"" stroke-width=""1.5"" fill=""none"" />
    <circle cx=412.33000000000004 cy=491.0355 r=20.55708110531183 stroke=""none"" stroke-width=""1.5"" fill=""none"" />
    <circle cx=305.2945 cy=384 r=20.55708110531183 stroke=""none"" stroke-width=""1.5"" fill=""none"" />
    <circle cx=412.33000000000004 cy=276.9645 r=20.55708110531183 stroke=""none"" stroke-width=""1.5"" fill=""none"" />
    <polygon points = ""412.33000000000004,384 418.11260412951873,363.44291889468815 406.54739587048135,363.44291889468815"" stroke=""none"" stroke-width=""3"" fill = ""none"" />
    
    </svg>
    </div>
        ","","","","","","","","","","","","","","","","","","","","","","","","","","","","",""
"html-keyboard-response","12","329101","0.0-12.0","null","null","","
    <div style="" display: block;  position: relative;"">
    <svg width=1280 height=768>
    
    <circle cx=577 cy=384 r=14.38995677371828 stroke=""black"" stroke-width=""1"" fill=""black"" />
    <circle cx=741.67 cy=384 r=20.55708110531183 stroke=""black"" stroke-width=""1.5"" fill=""none"" />
    <circle cx=848.7054999999999 cy=384 r=20.55708110531183 stroke=""black"" stroke-width=""1.5"" fill=""none"" />
    <circle cx=741.67 cy=491.0355 r=20.55708110531183 stroke=""black"" stroke-width=""1.5"" fill=""none"" />
    <circle cx=634.6345 cy=384 r=20.55708110531183 stroke=""black"" stroke-width=""1.5"" fill=""none"" />
    <circle cx=741.67 cy=276.9645 r=20.55708110531183 stroke=""black"" stroke-width=""1.5"" fill=""none"" />
    <polygon points = ""741.67,384 747.4526041295187,363.44291889468815 735.8873958704812,363.44291889468815"" stroke=""white"" stroke-width=""3"" fill = ""white"" />
    
    </svg>
    </div>
        ","","","","","","","","","","","","stimulus","","","","","","","","","","","","","","","","",""
"html-keyboard-response","13","329744","0.0-13.0","641.4000000059605","arrowup","","
    <div style="" display: block;  position: relative;"">
    
    <svg width=1280 height=768>
    <circle cx=577 cy=384 r=14.38995677371828 stroke=""black"" stroke-width=""1"" fill=""black"" />
    <circle cx=848.7054999999999 cy=384 r=20.55708110531183 stroke=""none"" stroke-width=""1.5"" fill=""none"" />
    <circle cx=741.67 cy=491.0355 r=20.55708110531183 stroke=""none"" stroke-width=""1.5"" fill=""none"" />
    <circle cx=634.6345 cy=384 r=20.55708110531183 stroke=""none"" stroke-width=""1.5"" fill=""none"" />
    <circle cx=741.67 cy=276.9645 r=20.55708110531183 stroke=""none"" stroke-width=""1.5"" fill=""none"" />
    <polygon points = ""741.67,384 747.4526041295187,363.44291889468815 735.8873958704812,363.44291889468815"" stroke=""none"" stroke-width=""3"" fill = ""none"" />
    
    </svg>
    </div>
        ","","","","","","","","","","","","practice_get_response","true","KWlh4a0dAwZLVier","107.0355","2.6","false","true","false","164.67","4","630.1179999999999","","","","","","",""
"html-keyboard-response","14","330247","0.0-14.0","null","null","","
    <div style="" display: block;  position: relative;"">
    
    <svg width=1280 height=768>
    <circle cx=577 cy=384 r=14.38995677371828 stroke=""black"" stroke-width=""1"" fill=""black"" />
    <circle cx=848.7054999999999 cy=384 r=20.55708110531183 stroke=""none"" stroke-width=""1.5"" fill=""none"" />
    <circle cx=741.67 cy=491.0355 r=20.55708110531183 stroke=""none"" stroke-width=""1.5"" fill=""none"" />
    <circle cx=634.6345 cy=384 r=20.55708110531183 stroke=""none"" stroke-width=""1.5"" fill=""none"" />
    <circle cx=741.67 cy=276.9645 r=20.55708110531183 stroke=""none"" stroke-width=""1.5"" fill=""none"" />
    <polygon points = ""741.67,384 747.4526041295187,363.44291889468815 735.8873958704812,363.44291889468815"" stroke=""none"" stroke-width=""3"" fill = ""none"" />
    
    </svg>
    </div>
        ","","","","","","","","","","","","","","","","","","","","","","","","","","","","",""
"html-keyboard-response","15","330404","0.0-15.0","null","null","","
    <div style="" display: block;  position: relative;"">
    <svg width=1280 height=768>
    
    <circle cx=577 cy=384 r=14.38995677371828 stroke=""black"" stroke-width=""1"" fill=""black"" />
    <circle cx=412.33000000000004 cy=384 r=20.55708110531183 stroke=""black"" stroke-width=""1.5"" fill=""none"" />
    <circle cx=519.3655 cy=384 r=20.55708110531183 stroke=""black"" stroke-width=""1.5"" fill=""none"" />
    <circle cx=412.33000000000004 cy=491.0355 r=20.55708110531183 stroke=""black"" stroke-width=""1.5"" fill=""none"" />
    <circle cx=305.2945 cy=384 r=20.55708110531183 stroke=""black"" stroke-width=""1.5"" fill=""none"" />
    <circle cx=412.33000000000004 cy=276.9645 r=20.55708110531183 stroke=""black"" stroke-width=""1.5"" fill=""none"" />
    <polygon points = ""412.33000000000004,384 418.11260412951873,404.55708110531185 406.54739587048135,404.55708110531185"" stroke=""white"" stroke-width=""3"" fill = ""white"" />
    
    </svg>
    </div>
        ","","","","","","","","","","","","stimulus","","","","","","","","","","","","","","","","",""
"html-keyboard-response","16","330920","0.0-16.0","514.5","arrowdown","","
    <div style="" display: block;  position: relative;"">
    
    <svg width=1280 height=768>
    <circle cx=577 cy=384 r=14.38995677371828 stroke=""black"" stroke-width=""1"" fill=""black"" />
    <circle cx=519.3655 cy=384 r=20.55708110531183 stroke=""none"" stroke-width=""1.5"" fill=""none"" />
    <circle cx=412.33000000000004 cy=491.0355 r=20.55708110531183 stroke=""none"" stroke-width=""1.5"" fill=""none"" />
    <circle cx=305.2945 cy=384 r=20.55708110531183 stroke=""none"" stroke-width=""1.5"" fill=""none"" />
    <circle cx=412.33000000000004 cy=276.9645 r=20.55708110531183 stroke=""none"" stroke-width=""1.5"" fill=""none"" />
    <polygon points = ""412.33000000000004,384 418.11260412951873,404.55708110531185 406.54739587048135,404.55708110531185"" stroke=""none"" stroke-width=""3"" fill = ""none"" />
    
    </svg>
    </div>
        ","","","","","","","","","","","","practice_get_response","true","KWlh4a0dAwZLVier","107.0355","2.6","true","false","false","164.67","4","630.1179999999999","","","","","","",""
"html-keyboard-response","17","331430","0.0-17.0","null","null","","
    <div style="" display: block;  position: relative;"">
    
    <svg width=1280 height=768>
    <circle cx=577 cy=384 r=14.38995677371828 stroke=""black"" stroke-width=""1"" fill=""black"" />
    <circle cx=519.3655 cy=384 r=20.55708110531183 stroke=""none"" stroke-width=""1.5"" fill=""none"" />
    <circle cx=412.33000000000004 cy=491.0355 r=20.55708110531183 stroke=""none"" stroke-width=""1.5"" fill=""none"" />
    <circle cx=305.2945 cy=384 r=20.55708110531183 stroke=""none"" stroke-width=""1.5"" fill=""none"" />
    <circle cx=412.33000000000004 cy=276.9645 r=20.55708110531183 stroke=""none"" stroke-width=""1.5"" fill=""none"" />
    <polygon points = ""412.33000000000004,384 418.11260412951873,404.55708110531185 406.54739587048135,404.55708110531185"" stroke=""none"" stroke-width=""3"" fill = ""none"" />
    
    </svg>
    </div>
        ","","","","","","","","","","","","","","","","","","","","","","","","","","","","",""
"html-keyboard-response","18","331588","0.0-18.0","null","null","","
    <div style="" display: block;  position: relative;"">
    <svg width=1280 height=768>
    
    <circle cx=577 cy=384 r=14.38995677371828 stroke=""black"" stroke-width=""1"" fill=""black"" />
    <circle cx=412.33000000000004 cy=384 r=20.55708110531183 stroke=""black"" stroke-width=""1.5"" fill=""none"" />
    <circle cx=509.63500000000005 cy=384 r=20.55708110531183 stroke=""black"" stroke-width=""1.5"" fill=""none"" />
    <circle cx=412.33000000000004 cy=481.305 r=20.55708110531183 stroke=""black"" stroke-width=""1.5"" fill=""none"" />
    <circle cx=315.02500000000003 cy=384 r=20.55708110531183 stroke=""black"" stroke-width=""1.5"" fill=""none"" />
    <circle cx=412.33000000000004 cy=286.695 r=20.55708110531183 stroke=""black"" stroke-width=""1.5"" fill=""none"" />
    <polygon points = ""412.33000000000004,384 418.11260412951873,363.44291889468815 406.54739587048135,363.44291889468815"" stroke=""white"" stroke-width=""3"" fill = ""white"" />
    
    </svg>
    </div>
        ","","","","","","","","","","","","stimulus","","","","","","","","","","","","","","","","",""
"html-keyboard-response","19","331992","0.0-19.0","402.59999999403954","arrowup","","
    <div style="" display: block;  position: relative;"">
    
    <svg width=1280 height=768>
    <circle cx=577 cy=384 r=14.38995677371828 stroke=""black"" stroke-width=""1"" fill=""black"" />
    <circle cx=509.63500000000005 cy=384 r=20.55708110531183 stroke=""none"" stroke-width=""1.5"" fill=""none"" />
    <circle cx=412.33000000000004 cy=481.305 r=20.55708110531183 stroke=""none"" stroke-width=""1.5"" fill=""none"" />
    <circle cx=315.02500000000003 cy=384 r=20.55708110531183 stroke=""none"" stroke-width=""1.5"" fill=""none"" />
    <circle cx=412.33000000000004 cy=286.695 r=20.55708110531183 stroke=""none"" stroke-width=""1.5"" fill=""none"" />
    <polygon points = ""412.33000000000004,384 418.11260412951873,363.44291889468815 406.54739587048135,363.44291889468815"" stroke=""none"" stroke-width=""3"" fill = ""none"" />
    
    </svg>
    </div>
        ","","","","","","","","","","","","practice_get_response","true","KWlh4a0dAwZLVier","97.30499999999999","2.36","true","true","false","164.67","4","630.1179999999999","","","","","","",""
"html-keyboard-response","20","332500","0.0-20.0","null","null","","
    <div style="" display: block;  position: relative;"">
    
    <svg width=1280 height=768>
    <circle cx=577 cy=384 r=14.38995677371828 stroke=""black"" stroke-width=""1"" fill=""black"" />
    <circle cx=509.63500000000005 cy=384 r=20.55708110531183 stroke=""none"" stroke-width=""1.5"" fill=""none"" />
    <circle cx=412.33000000000004 cy=481.305 r=20.55708110531183 stroke=""none"" stroke-width=""1.5"" fill=""none"" />
    <circle cx=315.02500000000003 cy=384 r=20.55708110531183 stroke=""none"" stroke-width=""1.5"" fill=""none"" />
    <circle cx=412.33000000000004 cy=286.695 r=20.55708110531183 stroke=""none"" stroke-width=""1.5"" fill=""none"" />
    <polygon points = ""412.33000000000004,384 418.11260412951873,363.44291889468815 406.54739587048135,363.44291889468815"" stroke=""none"" stroke-width=""3"" fill = ""none"" />
    
    </svg>
    </div>
        ","","","","","","","","","","","","","","","","","","","","","","","","","","","","",""
"html-keyboard-response","21","332657","0.0-21.0","null","null","","
    <div style="" display: block;  position: relative;"">
    <svg width=1280 height=768>
    
    <circle cx=577 cy=384 r=14.38995677371828 stroke=""black"" stroke-width=""1"" fill=""black"" />
    <circle cx=741.67 cy=384 r=20.55708110531183 stroke=""black"" stroke-width=""1.5"" fill=""none"" />
    <circle cx=830.1290909090908 cy=384 r=20.55708110531183 stroke=""black"" stroke-width=""1.5"" fill=""none"" />
    <circle cx=741.67 cy=472.4590909090909 r=20.55708110531183 stroke=""black"" stroke-width=""1.5"" fill=""none"" />
    <circle cx=653.2109090909091 cy=384 r=20.55708110531183 stroke=""black"" stroke-width=""1.5"" fill=""none"" />
    <circle cx=741.67 cy=295.5409090909091 r=20.55708110531183 stroke=""black"" stroke-width=""1.5"" fill=""none"" />
    <polygon points = ""741.67,384 747.4526041295187,404.55708110531185 735.8873958704812,404.55708110531185"" stroke=""white"" stroke-width=""3"" fill = ""white"" />
    
    </svg>
    </div>
        ","","","","","","","","","","","","stimulus","","","","","","","","","","","","","","","","",""
"html-keyboard-response","22","332976","0.0-22.0","318","arrowdown","","
    <div style="" display: block;  position: relative;"">
    
    <svg width=1280 height=768>
    <circle cx=577 cy=384 r=14.38995677371828 stroke=""black"" stroke-width=""1"" fill=""black"" />
    <circle cx=830.1290909090908 cy=384 r=20.55708110531183 stroke=""none"" stroke-width=""1.5"" fill=""none"" />
    <circle cx=741.67 cy=472.4590909090909 r=20.55708110531183 stroke=""none"" stroke-width=""1.5"" fill=""none"" />
    <circle cx=653.2109090909091 cy=384 r=20.55708110531183 stroke=""none"" stroke-width=""1.5"" fill=""none"" />
    <circle cx=741.67 cy=295.5409090909091 r=20.55708110531183 stroke=""none"" stroke-width=""1.5"" fill=""none"" />
    <polygon points = ""741.67,384 747.4526041295187,404.55708110531185 735.8873958704812,404.55708110531185"" stroke=""none"" stroke-width=""3"" fill = ""none"" />
    
    </svg>
    </div>
        ","","","","","","","","","","","","practice_get_response","true","KWlh4a0dAwZLVier","88.45909090909089","2.15","false","false","false","164.67","4","630.1179999999999","","","","","","",""
"html-keyboard-response","23","338472","0.0-23.0","5495","arrowdown","","<div> 
<h2 class=""bolded-blue"">Well done!</h2>
<p> Now that you have the hang of it, we&#39;ll start the study. This session has 25 trials and takes about 2 minute to complete. </p> 
<p>If you are ready for the real deal, please press the <b>down</b> arrow to continue.
</p>
</div>","","","","","","","","","","","","","","","","","","","","","","","","","","","","",""
"html-keyboard-response","24","343784","0.0-24.0","5309.9000000059605","arrowdown","","<div id=""continue""> 
<p>Again, please keep the <b>full screen</b> mode for the best experience.</p>
<p>Please do not move around and keep your eye on the black dot. Click <b>up</b> or <b>down</b> key on your keyboard to indicate the opening of the center circle. Make your best guess!</p>
<p>Please press the <b>down</b> arrow key to start the session 1. </p>
</div>","","","","","","","","","","","","","","","","","","","","","","","","","","","","",""
"html-keyboard-response","25","344301","0.0-25.0","null","null","","
    <div style="" display: block;  position: relative;"">
    
    <svg width=1280 height=768>
    <circle cx=577 cy=384 r=14.38995677371828 stroke=""black"" stroke-width=""1"" fill=""black"" />
    <circle cx=500.78909090909093 cy=384 r=20.55708110531183 stroke=""none"" stroke-width=""1.5"" fill=""none"" />
    <circle cx=412.33000000000004 cy=472.4590909090909 r=20.55708110531183 stroke=""none"" stroke-width=""1.5"" fill=""none"" />
    <circle cx=323.87090909090915 cy=384 r=20.55708110531183 stroke=""none"" stroke-width=""1.5"" fill=""none"" />
    <circle cx=412.33000000000004 cy=295.5409090909091 r=20.55708110531183 stroke=""none"" stroke-width=""1.5"" fill=""none"" />
    <polygon points = ""412.33000000000004,384 418.11260412951873,404.55708110531185 406.54739587048135,404.55708110531185"" stroke=""none"" stroke-width=""3"" fill = ""none"" />
    
    </svg>
    </div>
        ","","","","","","","","","","","","","","","","","","","","","","","","","","","","",""
"html-keyboard-response","26","344459","0.0-26.0","null","null","","
    <div style="" display: block;  position: relative;"">
    <svg width=1280 height=768>
    
    <circle cx=577 cy=384 r=14.38995677371828 stroke=""black"" stroke-width=""1"" fill=""black"" />
    <circle cx=741.67 cy=384 r=20.55708110531183 stroke=""black"" stroke-width=""1.5"" fill=""none"" />
    <circle cx=848.7054999999999 cy=384 r=20.55708110531183 stroke=""black"" stroke-width=""1.5"" fill=""none"" />
    <circle cx=741.67 cy=491.0355 r=20.55708110531183 stroke=""black"" stroke-width=""1.5"" fill=""none"" />
    <circle cx=634.6345 cy=384 r=20.55708110531183 stroke=""black"" stroke-width=""1.5"" fill=""none"" />
    <circle cx=741.67 cy=276.9645 r=20.55708110531183 stroke=""black"" stroke-width=""1.5"" fill=""none"" />
    <polygon points = ""741.67,384 747.4526041295187,363.44291889468815 735.8873958704812,363.44291889468815"" stroke=""white"" stroke-width=""3"" fill = ""white"" />
    
    </svg>
    </div>
        ","","","","","","","","","","","","stimulus","","","","","","","","","","","","","","","","",""
"html-keyboard-response","27","344904","0.0-27.0","443.2000000178814","arrowup","","
    <div style="" display: block;  position: relative;"">
    
    <svg width=1280 height=768>
    <circle cx=577 cy=384 r=14.38995677371828 stroke=""black"" stroke-width=""1"" fill=""black"" />
    <circle cx=848.7054999999999 cy=384 r=20.55708110531183 stroke=""none"" stroke-width=""1.5"" fill=""none"" />
    <circle cx=741.67 cy=491.0355 r=20.55708110531183 stroke=""none"" stroke-width=""1.5"" fill=""none"" />
    <circle cx=634.6345 cy=384 r=20.55708110531183 stroke=""none"" stroke-width=""1.5"" fill=""none"" />
    <circle cx=741.67 cy=276.9645 r=20.55708110531183 stroke=""none"" stroke-width=""1.5"" fill=""none"" />
    <polygon points = ""741.67,384 747.4526041295187,363.44291889468815 735.8873958704812,363.44291889468815"" stroke=""none"" stroke-width=""3"" fill = ""none"" />
    
    </svg>
    </div>
        ","","","","","","","","","","","","get_response","true","KWlh4a0dAwZLVier","","","false","true","false","164.67","4","630.1179999999999","107.0355","2.6","1","0","","",""
"html-keyboard-response","28","345420","0.0-28.0","null","null","","
    <div style="" display: block;  position: relative;"">
    
    <svg width=1280 height=768>
    <circle cx=577 cy=384 r=14.38995677371828 stroke=""black"" stroke-width=""1"" fill=""black"" />
    <circle cx=848.7054999999999 cy=384 r=20.55708110531183 stroke=""none"" stroke-width=""1.5"" fill=""none"" />
    <circle cx=741.67 cy=491.0355 r=20.55708110531183 stroke=""none"" stroke-width=""1.5"" fill=""none"" />
    <circle cx=634.6345 cy=384 r=20.55708110531183 stroke=""none"" stroke-width=""1.5"" fill=""none"" />
    <circle cx=741.67 cy=276.9645 r=20.55708110531183 stroke=""none"" stroke-width=""1.5"" fill=""none"" />
    <polygon points = ""741.67,384 747.4526041295187,363.44291889468815 735.8873958704812,363.44291889468815"" stroke=""none"" stroke-width=""3"" fill = ""none"" />
    
    </svg>
    </div>
        ","","","","","","","","","","","","","","","","","","","","","","","","","","","","",""
"html-keyboard-response","29","345577","0.0-29.0","null","null","","
    <div style="" display: block;  position: relative;"">
    <svg width=1280 height=768>
    
    <circle cx=577 cy=384 r=14.38995677371828 stroke=""black"" stroke-width=""1"" fill=""black"" />
    <circle cx=412.33000000000004 cy=384 r=20.55708110531183 stroke=""black"" stroke-width=""1.5"" fill=""none"" />
    <circle cx=519.3655 cy=384 r=20.55708110531183 stroke=""black"" stroke-width=""1.5"" fill=""none"" />
    <circle cx=412.33000000000004 cy=491.0355 r=20.55708110531183 stroke=""black"" stroke-width=""1.5"" fill=""none"" />
    <circle cx=305.2945 cy=384 r=20.55708110531183 stroke=""black"" stroke-width=""1.5"" fill=""none"" />
    <circle cx=412.33000000000004 cy=276.9645 r=20.55708110531183 stroke=""black"" stroke-width=""1.5"" fill=""none"" />
    <polygon points = ""412.33000000000004,384 418.11260412951873,363.44291889468815 406.54739587048135,363.44291889468815"" stroke=""white"" stroke-width=""3"" fill = ""white"" />
    
    </svg>
    </div>
        ","","","","","","","","","","","","stimulus","","","","","","","","","","","","","","","","",""
"html-keyboard-response","30","345960","0.0-30.0","381.7000000178814","arrowup","","
    <div style="" display: block;  position: relative;"">
    
    <svg width=1280 height=768>
    <circle cx=577 cy=384 r=14.38995677371828 stroke=""black"" stroke-width=""1"" fill=""black"" />
    <circle cx=519.3655 cy=384 r=20.55708110531183 stroke=""none"" stroke-width=""1.5"" fill=""none"" />
    <circle cx=412.33000000000004 cy=491.0355 r=20.55708110531183 stroke=""none"" stroke-width=""1.5"" fill=""none"" />
    <circle cx=305.2945 cy=384 r=20.55708110531183 stroke=""none"" stroke-width=""1.5"" fill=""none"" />
    <circle cx=412.33000000000004 cy=276.9645 r=20.55708110531183 stroke=""none"" stroke-width=""1.5"" fill=""none"" />
    <polygon points = ""412.33000000000004,384 418.11260412951873,363.44291889468815 406.54739587048135,363.44291889468815"" stroke=""none"" stroke-width=""3"" fill = ""none"" />
    
    </svg>
    </div>
        ","","","","","","","","","","","","get_response","true","KWlh4a0dAwZLVier","","","true","true","false","164.67","4","630.1179999999999","107.0355","2.6","1","0","","",""
"html-keyboard-response","31","346471","0.0-31.0","null","null","","
    <div style="" display: block;  position: relative;"">
    
    <svg width=1280 height=768>
    <circle cx=577 cy=384 r=14.38995677371828 stroke=""black"" stroke-width=""1"" fill=""black"" />
    <circle cx=519.3655 cy=384 r=20.55708110531183 stroke=""none"" stroke-width=""1.5"" fill=""none"" />
    <circle cx=412.33000000000004 cy=491.0355 r=20.55708110531183 stroke=""none"" stroke-width=""1.5"" fill=""none"" />
    <circle cx=305.2945 cy=384 r=20.55708110531183 stroke=""none"" stroke-width=""1.5"" fill=""none"" />
    <circle cx=412.33000000000004 cy=276.9645 r=20.55708110531183 stroke=""none"" stroke-width=""1.5"" fill=""none"" />
    <polygon points = ""412.33000000000004,384 418.11260412951873,363.44291889468815 406.54739587048135,363.44291889468815"" stroke=""none"" stroke-width=""3"" fill = ""none"" />
    
    </svg>
    </div>
        ","","","","","","","","","","","","","","","","","","","","","","","","","","","","",""
"html-keyboard-response","32","346630","0.0-32.0","null","null","","
    <div style="" display: block;  position: relative;"">
    <svg width=1280 height=768>
    
    <circle cx=577 cy=384 r=14.38995677371828 stroke=""black"" stroke-width=""1"" fill=""black"" />
    <circle cx=741.67 cy=384 r=20.55708110531183 stroke=""black"" stroke-width=""1.5"" fill=""none"" />
    <circle cx=848.7054999999999 cy=384 r=20.55708110531183 stroke=""black"" stroke-width=""1.5"" fill=""none"" />
    <circle cx=741.67 cy=491.0355 r=20.55708110531183 stroke=""black"" stroke-width=""1.5"" fill=""none"" />
    <circle cx=634.6345 cy=384 r=20.55708110531183 stroke=""black"" stroke-width=""1.5"" fill=""none"" />
    <circle cx=741.67 cy=276.9645 r=20.55708110531183 stroke=""black"" stroke-width=""1.5"" fill=""none"" />
    <polygon points = ""741.67,384 747.4526041295187,363.44291889468815 735.8873958704812,363.44291889468815"" stroke=""white"" stroke-width=""3"" fill = ""white"" />
    
    </svg>
    </div>
        ","","","","","","","","","","","","stimulus","","","","","","","","","","","","","","","","",""
"html-keyboard-response","33","347200","0.0-33.0","568.9000000059605","arrowup","","
    <div style="" display: block;  position: relative;"">
    
    <svg width=1280 height=768>
    <circle cx=577 cy=384 r=14.38995677371828 stroke=""black"" stroke-width=""1"" fill=""black"" />
    <circle cx=848.7054999999999 cy=384 r=20.55708110531183 stroke=""none"" stroke-width=""1.5"" fill=""none"" />
    <circle cx=741.67 cy=491.0355 r=20.55708110531183 stroke=""none"" stroke-width=""1.5"" fill=""none"" />
    <circle cx=634.6345 cy=384 r=20.55708110531183 stroke=""none"" stroke-width=""1.5"" fill=""none"" />
    <circle cx=741.67 cy=276.9645 r=20.55708110531183 stroke=""none"" stroke-width=""1.5"" fill=""none"" />
    <polygon points = ""741.67,384 747.4526041295187,363.44291889468815 735.8873958704812,363.44291889468815"" stroke=""none"" stroke-width=""3"" fill = ""none"" />
    
    </svg>
    </div>
        ","","","","","","","","","","","","get_response","true","KWlh4a0dAwZLVier","","","false","true","false","164.67","4","630.1179999999999","107.0355","2.6","1","0","","",""
"html-keyboard-response","34","347708","0.0-34.0","null","null","","
    <div style="" display: block;  position: relative;"">
    
    <svg width=1280 height=768>
    <circle cx=577 cy=384 r=14.38995677371828 stroke=""black"" stroke-width=""1"" fill=""black"" />
    <circle cx=848.7054999999999 cy=384 r=20.55708110531183 stroke=""none"" stroke-width=""1.5"" fill=""none"" />
    <circle cx=741.67 cy=491.0355 r=20.55708110531183 stroke=""none"" stroke-width=""1.5"" fill=""none"" />
    <circle cx=634.6345 cy=384 r=20.55708110531183 stroke=""none"" stroke-width=""1.5"" fill=""none"" />
    <circle cx=741.67 cy=276.9645 r=20.55708110531183 stroke=""none"" stroke-width=""1.5"" fill=""none"" />
    <polygon points = ""741.67,384 747.4526041295187,363.44291889468815 735.8873958704812,363.44291889468815"" stroke=""none"" stroke-width=""3"" fill = ""none"" />
    
    </svg>
    </div>
        ","","","","","","","","","","","","","","","","","","","","","","","","","","","","",""
"html-keyboard-response","35","347866","0.0-35.0","null","null","","
    <div style="" display: block;  position: relative;"">
    <svg width=1280 height=768>
    
    <circle cx=577 cy=384 r=14.38995677371828 stroke=""black"" stroke-width=""1"" fill=""black"" />
    <circle cx=412.33000000000004 cy=384 r=20.55708110531183 stroke=""black"" stroke-width=""1.5"" fill=""none"" />
    <circle cx=509.63500000000005 cy=384 r=20.55708110531183 stroke=""black"" stroke-width=""1.5"" fill=""none"" />
    <circle cx=412.33000000000004 cy=481.305 r=20.55708110531183 stroke=""black"" stroke-width=""1.5"" fill=""none"" />
    <circle cx=315.02500000000003 cy=384 r=20.55708110531183 stroke=""black"" stroke-width=""1.5"" fill=""none"" />
    <circle cx=412.33000000000004 cy=286.695 r=20.55708110531183 stroke=""black"" stroke-width=""1.5"" fill=""none"" />
    <polygon points = ""412.33000000000004,384 418.11260412951873,363.44291889468815 406.54739587048135,363.44291889468815"" stroke=""white"" stroke-width=""3"" fill = ""white"" />
    
    </svg>
    </div>
        ","","","","","","","","","","","","stimulus","","","","","","","","","","","","","","","","",""
"html-keyboard-response","36","348296","0.0-36.0","428.40000000596046","arrowup","","
    <div style="" display: block;  position: relative;"">
    
    <svg width=1280 height=768>
    <circle cx=577 cy=384 r=14.38995677371828 stroke=""black"" stroke-width=""1"" fill=""black"" />
    <circle cx=509.63500000000005 cy=384 r=20.55708110531183 stroke=""none"" stroke-width=""1.5"" fill=""none"" />
    <circle cx=412.33000000000004 cy=481.305 r=20.55708110531183 stroke=""none"" stroke-width=""1.5"" fill=""none"" />
    <circle cx=315.02500000000003 cy=384 r=20.55708110531183 stroke=""none"" stroke-width=""1.5"" fill=""none"" />
    <circle cx=412.33000000000004 cy=286.695 r=20.55708110531183 stroke=""none"" stroke-width=""1.5"" fill=""none"" />
    <polygon points = ""412.33000000000004,384 418.11260412951873,363.44291889468815 406.54739587048135,363.44291889468815"" stroke=""none"" stroke-width=""3"" fill = ""none"" />
    
    </svg>
    </div>
        ","","","","","","","","","","","","get_response","true","KWlh4a0dAwZLVier","","","true","true","false","164.67","4","630.1179999999999","97.30499999999999","2.36","1","0","","",""
"html-keyboard-response","37","348809","0.0-37.0","null","null","","
    <div style="" display: block;  position: relative;"">
    
    <svg width=1280 height=768>
    <circle cx=577 cy=384 r=14.38995677371828 stroke=""black"" stroke-width=""1"" fill=""black"" />
    <circle cx=509.63500000000005 cy=384 r=20.55708110531183 stroke=""none"" stroke-width=""1.5"" fill=""none"" />
    <circle cx=412.33000000000004 cy=481.305 r=20.55708110531183 stroke=""none"" stroke-width=""1.5"" fill=""none"" />
    <circle cx=315.02500000000003 cy=384 r=20.55708110531183 stroke=""none"" stroke-width=""1.5"" fill=""none"" />
    <circle cx=412.33000000000004 cy=286.695 r=20.55708110531183 stroke=""none"" stroke-width=""1.5"" fill=""none"" />
    <polygon points = ""412.33000000000004,384 418.11260412951873,363.44291889468815 406.54739587048135,363.44291889468815"" stroke=""none"" stroke-width=""3"" fill = ""none"" />
    
    </svg>
    </div>
        ","","","","","","","","","","","","","","","","","","","","","","","","","","","","",""
"html-keyboard-response","38","348968","0.0-38.0","null","null","","
    <div style="" display: block;  position: relative;"">
    <svg width=1280 height=768>
    
    <circle cx=577 cy=384 r=14.38995677371828 stroke=""black"" stroke-width=""1"" fill=""black"" />
    <circle cx=412.33000000000004 cy=384 r=20.55708110531183 stroke=""black"" stroke-width=""1.5"" fill=""none"" />
    <circle cx=500.78909090909093 cy=384 r=20.55708110531183 stroke=""black"" stroke-width=""1.5"" fill=""none"" />
    <circle cx=412.33000000000004 cy=472.4590909090909 r=20.55708110531183 stroke=""black"" stroke-width=""1.5"" fill=""none"" />
    <circle cx=323.87090909090915 cy=384 r=20.55708110531183 stroke=""black"" stroke-width=""1.5"" fill=""none"" />
    <circle cx=412.33000000000004 cy=295.5409090909091 r=20.55708110531183 stroke=""black"" stroke-width=""1.5"" fill=""none"" />
    <polygon points = ""412.33000000000004,384 418.11260412951873,404.55708110531185 406.54739587048135,404.55708110531185"" stroke=""white"" stroke-width=""3"" fill = ""white"" />
    
    </svg>
    </div>
        ","","","","","","","","","","","","stimulus","","","","","","","","","","","","","","","","",""
"html-keyboard-response","39","349448","0.0-39.0","479.19999998807907","arrowdown","","
    <div style="" display: block;  position: relative;"">
    
    <svg width=1280 height=768>
    <circle cx=577 cy=384 r=14.38995677371828 stroke=""black"" stroke-width=""1"" fill=""black"" />
    <circle cx=500.78909090909093 cy=384 r=20.55708110531183 stroke=""none"" stroke-width=""1.5"" fill=""none"" />
    <circle cx=412.33000000000004 cy=472.4590909090909 r=20.55708110531183 stroke=""none"" stroke-width=""1.5"" fill=""none"" />
    <circle cx=323.87090909090915 cy=384 r=20.55708110531183 stroke=""none"" stroke-width=""1.5"" fill=""none"" />
    <circle cx=412.33000000000004 cy=295.5409090909091 r=20.55708110531183 stroke=""none"" stroke-width=""1.5"" fill=""none"" />
    <polygon points = ""412.33000000000004,384 418.11260412951873,404.55708110531185 406.54739587048135,404.55708110531185"" stroke=""none"" stroke-width=""3"" fill = ""none"" />
    
    </svg>
    </div>
        ","","","","","","","","","","","","get_response","true","KWlh4a0dAwZLVier","","","true","false","false","164.67","4","630.1179999999999","88.45909090909089","2.15","1","0","","",""
"html-keyboard-response","40","349951","0.0-40.0","null","null","","
    <div style="" display: block;  position: relative;"">
    
    <svg width=1280 height=768>
    <circle cx=577 cy=384 r=14.38995677371828 stroke=""black"" stroke-width=""1"" fill=""black"" />
    <circle cx=500.78909090909093 cy=384 r=20.55708110531183 stroke=""none"" stroke-width=""1.5"" fill=""none"" />
    <circle cx=412.33000000000004 cy=472.4590909090909 r=20.55708110531183 stroke=""none"" stroke-width=""1.5"" fill=""none"" />
    <circle cx=323.87090909090915 cy=384 r=20.55708110531183 stroke=""none"" stroke-width=""1.5"" fill=""none"" />
    <circle cx=412.33000000000004 cy=295.5409090909091 r=20.55708110531183 stroke=""none"" stroke-width=""1.5"" fill=""none"" />
    <polygon points = ""412.33000000000004,384 418.11260412951873,404.55708110531185 406.54739587048135,404.55708110531185"" stroke=""none"" stroke-width=""3"" fill = ""none"" />
    
    </svg>
    </div>
        ","","","","","","","","","","","","","","","","","","","","","","","","","","","","",""
"html-keyboard-response","41","350124","0.0-41.0","null","null","","
    <div style="" display: block;  position: relative;"">
    <svg width=1280 height=768>
    
    <circle cx=577 cy=384 r=14.38995677371828 stroke=""black"" stroke-width=""1"" fill=""black"" />
    <circle cx=741.67 cy=384 r=20.55708110531183 stroke=""black"" stroke-width=""1.5"" fill=""none"" />
    <circle cx=822.0873553719008 cy=384 r=20.55708110531183 stroke=""black"" stroke-width=""1.5"" fill=""none"" />
    <circle cx=741.67 cy=464.4173553719008 r=20.55708110531183 stroke=""black"" stroke-width=""1.5"" fill=""none"" />
    <circle cx=661.2526446280991 cy=384 r=20.55708110531183 stroke=""black"" stroke-width=""1.5"" fill=""none"" />
    <circle cx=741.67 cy=303.5826446280992 r=20.55708110531183 stroke=""black"" stroke-width=""1.5"" fill=""none"" />
    <polygon points = ""741.67,384 747.4526041295187,363.44291889468815 735.8873958704812,363.44291889468815"" stroke=""white"" stroke-width=""3"" fill = ""white"" />
    
    </svg>
    </div>
        ","","","","","","","","","","","","stimulus","","","","","","","","","","","","","","","","",""
"html-keyboard-response","42","350481","0.0-42.0","355.90000000596046","arrowup","","
    <div style="" display: block;  position: relative;"">
    
    <svg width=1280 height=768>
    <circle cx=577 cy=384 r=14.38995677371828 stroke=""black"" stroke-width=""1"" fill=""black"" />
    <circle cx=822.0873553719008 cy=384 r=20.55708110531183 stroke=""none"" stroke-width=""1.5"" fill=""none"" />
    <circle cx=741.67 cy=464.4173553719008 r=20.55708110531183 stroke=""none"" stroke-width=""1.5"" fill=""none"" />
    <circle cx=661.2526446280991 cy=384 r=20.55708110531183 stroke=""none"" stroke-width=""1.5"" fill=""none"" />
    <circle cx=741.67 cy=303.5826446280992 r=20.55708110531183 stroke=""none"" stroke-width=""1.5"" fill=""none"" />
    <polygon points = ""741.67,384 747.4526041295187,363.44291889468815 735.8873958704812,363.44291889468815"" stroke=""none"" stroke-width=""3"" fill = ""none"" />
    
    </svg>
    </div>
        ","","","","","","","","","","","","get_response","true","KWlh4a0dAwZLVier","","","false","true","false","164.67","4","630.1179999999999","80.4173553719008","1.95","1","0","","",""
"html-keyboard-response","43","350995","0.0-43.0","null","null","","
    <div style="" display: block;  position: relative;"">
    
    <svg width=1280 height=768>
    <circle cx=577 cy=384 r=14.38995677371828 stroke=""black"" stroke-width=""1"" fill=""black"" />
    <circle cx=822.0873553719008 cy=384 r=20.55708110531183 stroke=""none"" stroke-width=""1.5"" fill=""none"" />
    <circle cx=741.67 cy=464.4173553719008 r=20.55708110531183 stroke=""none"" stroke-width=""1.5"" fill=""none"" />
    <circle cx=661.2526446280991 cy=384 r=20.55708110531183 stroke=""none"" stroke-width=""1.5"" fill=""none"" />
    <circle cx=741.67 cy=303.5826446280992 r=20.55708110531183 stroke=""none"" stroke-width=""1.5"" fill=""none"" />
    <polygon points = ""741.67,384 747.4526041295187,363.44291889468815 735.8873958704812,363.44291889468815"" stroke=""none"" stroke-width=""3"" fill = ""none"" />
    
    </svg>
    </div>
        ","","","","","","","","","","","","","","","","","","","","","","","","","","","","",""
"html-keyboard-response","44","351154","0.0-44.0","null","null","","
    <div style="" display: block;  position: relative;"">
    <svg width=1280 height=768>
    
    <circle cx=577 cy=384 r=14.38995677371828 stroke=""black"" stroke-width=""1"" fill=""black"" />
    <circle cx=412.33000000000004 cy=384 r=20.55708110531183 stroke=""black"" stroke-width=""1.5"" fill=""none"" />
    <circle cx=485.43668670172804 cy=384 r=20.55708110531183 stroke=""black"" stroke-width=""1.5"" fill=""none"" />
    <circle cx=412.33000000000004 cy=457.106686701728 r=20.55708110531183 stroke=""black"" stroke-width=""1.5"" fill=""none"" />
    <circle cx=339.22331329827205 cy=384 r=20.55708110531183 stroke=""black"" stroke-width=""1.5"" fill=""none"" />
    <circle cx=412.33000000000004 cy=310.893313298272 r=20.55708110531183 stroke=""black"" stroke-width=""1.5"" fill=""none"" />
    <polygon points = ""412.33000000000004,384 418.11260412951873,404.55708110531185 406.54739587048135,404.55708110531185"" stroke=""white"" stroke-width=""3"" fill = ""white"" />
    
    </svg>
    </div>
        ","","","","","","","","","","","","stimulus","","","","","","","","","","","","","","","","",""
"html-keyboard-response","45","351480","0.0-45.0","324.5","arrowdown","","
    <div style="" display: block;  position: relative;"">
    
    <svg width=1280 height=768>
    <circle cx=577 cy=384 r=14.38995677371828 stroke=""black"" stroke-width=""1"" fill=""black"" />
    <circle cx=485.43668670172804 cy=384 r=20.55708110531183 stroke=""none"" stroke-width=""1.5"" fill=""none"" />
    <circle cx=412.33000000000004 cy=457.106686701728 r=20.55708110531183 stroke=""none"" stroke-width=""1.5"" fill=""none"" />
    <circle cx=339.22331329827205 cy=384 r=20.55708110531183 stroke=""none"" stroke-width=""1.5"" fill=""none"" />
    <circle cx=412.33000000000004 cy=310.893313298272 r=20.55708110531183 stroke=""none"" stroke-width=""1.5"" fill=""none"" />
    <polygon points = ""412.33000000000004,384 418.11260412951873,404.55708110531185 406.54739587048135,404.55708110531185"" stroke=""none"" stroke-width=""3"" fill = ""none"" />
    
    </svg>
    </div>
        ","","","","","","","","","","","","get_response","true","KWlh4a0dAwZLVier","","","true","false","false","164.67","4","630.1179999999999","73.106686701728","1.77","1","0","","",""
"html-keyboard-response","46","351992","0.0-46.0","null","null","","
    <div style="" display: block;  position: relative;"">
    
    <svg width=1280 height=768>
    <circle cx=577 cy=384 r=14.38995677371828 stroke=""black"" stroke-width=""1"" fill=""black"" />
    <circle cx=485.43668670172804 cy=384 r=20.55708110531183 stroke=""none"" stroke-width=""1.5"" fill=""none"" />
    <circle cx=412.33000000000004 cy=457.106686701728 r=20.55708110531183 stroke=""none"" stroke-width=""1.5"" fill=""none"" />
    <circle cx=339.22331329827205 cy=384 r=20.55708110531183 stroke=""none"" stroke-width=""1.5"" fill=""none"" />
    <circle cx=412.33000000000004 cy=310.893313298272 r=20.55708110531183 stroke=""none"" stroke-width=""1.5"" fill=""none"" />
    <polygon points = ""412.33000000000004,384 418.11260412951873,404.55708110531185 406.54739587048135,404.55708110531185"" stroke=""none"" stroke-width=""3"" fill = ""none"" />
    
    </svg>
    </div>
        ","","","","","","","","","","","","","","","","","","","","","","","","","","","","",""
"html-keyboard-response","47","352146","0.0-47.0","null","null","","
    <div style="" display: block;  position: relative;"">
    <svg width=1280 height=768>
    
    <circle cx=577 cy=384 r=14.38995677371828 stroke=""black"" stroke-width=""1"" fill=""black"" />
    <circle cx=412.33000000000004 cy=384 r=20.55708110531183 stroke=""black"" stroke-width=""1.5"" fill=""none"" />
    <circle cx=478.79062427429824 cy=384 r=20.55708110531183 stroke=""black"" stroke-width=""1.5"" fill=""none"" />
    <circle cx=412.33000000000004 cy=450.4606242742982 r=20.55708110531183 stroke=""black"" stroke-width=""1.5"" fill=""none"" />
    <circle cx=345.86937572570184 cy=384 r=20.55708110531183 stroke=""black"" stroke-width=""1.5"" fill=""none"" />
    <circle cx=412.33000000000004 cy=317.5393757257018 r=20.55708110531183 stroke=""black"" stroke-width=""1.5"" fill=""none"" />
    <polygon points = ""412.33000000000004,384 418.11260412951873,404.55708110531185 406.54739587048135,404.55708110531185"" stroke=""white"" stroke-width=""3"" fill = ""white"" />
    
    </svg>
    </div>
        ","","","","","","","","","","","","stimulus","","","","","","","","","","","","","","","","",""
"html-keyboard-response","48","352488","0.0-48.0","340.2999999821186","arrowdown","","
    <div style="" display: block;  position: relative;"">
    
    <svg width=1280 height=768>
    <circle cx=577 cy=384 r=14.38995677371828 stroke=""black"" stroke-width=""1"" fill=""black"" />
    <circle cx=478.79062427429824 cy=384 r=20.55708110531183 stroke=""none"" stroke-width=""1.5"" fill=""none"" />
    <circle cx=412.33000000000004 cy=450.4606242742982 r=20.55708110531183 stroke=""none"" stroke-width=""1.5"" fill=""none"" />
    <circle cx=345.86937572570184 cy=384 r=20.55708110531183 stroke=""none"" stroke-width=""1.5"" fill=""none"" />
    <circle cx=412.33000000000004 cy=317.5393757257018 r=20.55708110531183 stroke=""none"" stroke-width=""1.5"" fill=""none"" />
    <polygon points = ""412.33000000000004,384 418.11260412951873,404.55708110531185 406.54739587048135,404.55708110531185"" stroke=""none"" stroke-width=""3"" fill = ""none"" />
    
    </svg>
    </div>
        ","","","","","","","","","","","","get_response","true","KWlh4a0dAwZLVier","","","true","false","false","164.67","4","630.1179999999999","66.46062427429817","1.61","1","0","","",""
"html-keyboard-response","49","352996","0.0-49.0","null","null","","
    <div style="" display: block;  position: relative;"">
    
    <svg width=1280 height=768>
    <circle cx=577 cy=384 r=14.38995677371828 stroke=""black"" stroke-width=""1"" fill=""black"" />
    <circle cx=478.79062427429824 cy=384 r=20.55708110531183 stroke=""none"" stroke-width=""1.5"" fill=""none"" />
    <circle cx=412.33000000000004 cy=450.4606242742982 r=20.55708110531183 stroke=""none"" stroke-width=""1.5"" fill=""none"" />
    <circle cx=345.86937572570184 cy=384 r=20.55708110531183 stroke=""none"" stroke-width=""1.5"" fill=""none"" />
    <circle cx=412.33000000000004 cy=317.5393757257018 r=20.55708110531183 stroke=""none"" stroke-width=""1.5"" fill=""none"" />
    <polygon points = ""412.33000000000004,384 418.11260412951873,404.55708110531185 406.54739587048135,404.55708110531185"" stroke=""none"" stroke-width=""3"" fill = ""none"" />
    
    </svg>
    </div>
        ","","","","","","","","","","","","","","","","","","","","","","","","","","","","",""
"html-keyboard-response","50","353149","0.0-50.0","null","null","","
    <div style="" display: block;  position: relative;"">
    <svg width=1280 height=768>
    
    <circle cx=577 cy=384 r=14.38995677371828 stroke=""black"" stroke-width=""1"" fill=""black"" />
    <circle cx=741.67 cy=384 r=20.55708110531183 stroke=""black"" stroke-width=""1.5"" fill=""none"" />
    <circle cx=802.088749340271 cy=384 r=20.55708110531183 stroke=""black"" stroke-width=""1.5"" fill=""none"" />
    <circle cx=741.67 cy=444.41874934027106 r=20.55708110531183 stroke=""black"" stroke-width=""1.5"" fill=""none"" />
    <circle cx=681.251250659729 cy=384 r=20.55708110531183 stroke=""black"" stroke-width=""1.5"" fill=""none"" />
    <circle cx=741.67 cy=323.58125065972894 r=20.55708110531183 stroke=""black"" stroke-width=""1.5"" fill=""none"" />
    <polygon points = ""741.67,384 747.4526041295187,404.55708110531185 735.8873958704812,404.55708110531185"" stroke=""white"" stroke-width=""3"" fill = ""white"" />
    
    </svg>
    </div>
        ","","","","","","","","","","","","stimulus","","","","","","","","","","","","","","","","",""
"html-keyboard-response","51","353736","0.0-51.0","585.7999999821186","arrowdown","","
    <div style="" display: block;  position: relative;"">
    
    <svg width=1280 height=768>
    <circle cx=577 cy=384 r=14.38995677371828 stroke=""black"" stroke-width=""1"" fill=""black"" />
    <circle cx=802.088749340271 cy=384 r=20.55708110531183 stroke=""none"" stroke-width=""1.5"" fill=""none"" />
    <circle cx=741.67 cy=444.41874934027106 r=20.55708110531183 stroke=""none"" stroke-width=""1.5"" fill=""none"" />
    <circle cx=681.251250659729 cy=384 r=20.55708110531183 stroke=""none"" stroke-width=""1.5"" fill=""none"" />
    <circle cx=741.67 cy=323.58125065972894 r=20.55708110531183 stroke=""none"" stroke-width=""1.5"" fill=""none"" />
    <polygon points = ""741.67,384 747.4526041295187,404.55708110531185 735.8873958704812,404.55708110531185"" stroke=""none"" stroke-width=""3"" fill = ""none"" />
    
    </svg>
    </div>
        ","","","","","","","","","","","","get_response","true","KWlh4a0dAwZLVier","","","false","false","false","164.67","4","630.1179999999999","60.418749340271056","1.47","1","0","","",""
"html-keyboard-response","52","354241","0.0-52.0","null","null","","
    <div style="" display: block;  position: relative;"">
    
    <svg width=1280 height=768>
    <circle cx=577 cy=384 r=14.38995677371828 stroke=""black"" stroke-width=""1"" fill=""black"" />
    <circle cx=802.088749340271 cy=384 r=20.55708110531183 stroke=""none"" stroke-width=""1.5"" fill=""none"" />
    <circle cx=741.67 cy=444.41874934027106 r=20.55708110531183 stroke=""none"" stroke-width=""1.5"" fill=""none"" />
    <circle cx=681.251250659729 cy=384 r=20.55708110531183 stroke=""none"" stroke-width=""1.5"" fill=""none"" />
    <circle cx=741.67 cy=323.58125065972894 r=20.55708110531183 stroke=""none"" stroke-width=""1.5"" fill=""none"" />
    <polygon points = ""741.67,384 747.4526041295187,404.55708110531185 735.8873958704812,404.55708110531185"" stroke=""none"" stroke-width=""3"" fill = ""none"" />
    
    </svg>
    </div>
        ","","","","","","","","","","","","","","","","","","","","","","","","","","","","",""
"html-keyboard-response","53","354395","0.0-53.0","null","null","","
    <div style="" display: block;  position: relative;"">
    <svg width=1280 height=768>
    
    <circle cx=577 cy=384 r=14.38995677371828 stroke=""black"" stroke-width=""1"" fill=""black"" />
    <circle cx=741.67 cy=384 r=20.55708110531183 stroke=""black"" stroke-width=""1.5"" fill=""none"" />
    <circle cx=796.5961357638828 cy=384 r=20.55708110531183 stroke=""black"" stroke-width=""1.5"" fill=""none"" />
    <circle cx=741.67 cy=438.92613576388277 r=20.55708110531183 stroke=""black"" stroke-width=""1.5"" fill=""none"" />
    <circle cx=686.7438642361171 cy=384 r=20.55708110531183 stroke=""black"" stroke-width=""1.5"" fill=""none"" />
    <circle cx=741.67 cy=329.07386423611723 r=20.55708110531183 stroke=""black"" stroke-width=""1.5"" fill=""none"" />
    <polygon points = ""741.67,384 747.4526041295187,404.55708110531185 735.8873958704812,404.55708110531185"" stroke=""white"" stroke-width=""3"" fill = ""white"" />
    
    </svg>
    </div>
        ","","","","","","","","","","","","stimulus","","","","","","","","","","","","","","","","",""
"html-keyboard-response","54","354904","0.0-54.0","507.40000000596046","arrowdown","","
    <div style="" display: block;  position: relative;"">
    
    <svg width=1280 height=768>
    <circle cx=577 cy=384 r=14.38995677371828 stroke=""black"" stroke-width=""1"" fill=""black"" />
    <circle cx=796.5961357638828 cy=384 r=20.55708110531183 stroke=""none"" stroke-width=""1.5"" fill=""none"" />
    <circle cx=741.67 cy=438.92613576388277 r=20.55708110531183 stroke=""none"" stroke-width=""1.5"" fill=""none"" />
    <circle cx=686.7438642361171 cy=384 r=20.55708110531183 stroke=""none"" stroke-width=""1.5"" fill=""none"" />
    <circle cx=741.67 cy=329.07386423611723 r=20.55708110531183 stroke=""none"" stroke-width=""1.5"" fill=""none"" />
    <polygon points = ""741.67,384 747.4526041295187,404.55708110531185 735.8873958704812,404.55708110531185"" stroke=""none"" stroke-width=""3"" fill = ""none"" />
    
    </svg>
    </div>
        ","","","","","","","","","","","","get_response","true","KWlh4a0dAwZLVier","","","false","false","false","164.67","4","630.1179999999999","54.926135763882776","1.33","1","0","","",""
"html-keyboard-response","55","355407","0.0-55.0","null","null","","
    <div style="" display: block;  position: relative;"">
    
    <svg width=1280 height=768>
    <circle cx=577 cy=384 r=14.38995677371828 stroke=""black"" stroke-width=""1"" fill=""black"" />
    <circle cx=796.5961357638828 cy=384 r=20.55708110531183 stroke=""none"" stroke-width=""1.5"" fill=""none"" />
    <circle cx=741.67 cy=438.92613576388277 r=20.55708110531183 stroke=""none"" stroke-width=""1.5"" fill=""none"" />
    <circle cx=686.7438642361171 cy=384 r=20.55708110531183 stroke=""none"" stroke-width=""1.5"" fill=""none"" />
    <circle cx=741.67 cy=329.07386423611723 r=20.55708110531183 stroke=""none"" stroke-width=""1.5"" fill=""none"" />
    <polygon points = ""741.67,384 747.4526041295187,404.55708110531185 735.8873958704812,404.55708110531185"" stroke=""none"" stroke-width=""3"" fill = ""none"" />
    
    </svg>
    </div>
        ","","","","","","","","","","","","","","","","","","","","","","","","","","","","",""
"html-keyboard-response","56","355562","0.0-56.0","null","null","","
    <div style="" display: block;  position: relative;"">
    <svg width=1280 height=768>
    
    <circle cx=577 cy=384 r=14.38995677371828 stroke=""black"" stroke-width=""1"" fill=""black"" />
    <circle cx=412.33000000000004 cy=384 r=20.55708110531183 stroke=""black"" stroke-width=""1.5"" fill=""none"" />
    <circle cx=462.26285069443895 cy=384 r=20.55708110531183 stroke=""black"" stroke-width=""1.5"" fill=""none"" />
    <circle cx=412.33000000000004 cy=433.9328506944389 r=20.55708110531183 stroke=""black"" stroke-width=""1.5"" fill=""none"" />
    <circle cx=362.39714930556113 cy=384 r=20.55708110531183 stroke=""black"" stroke-width=""1.5"" fill=""none"" />
    <circle cx=412.33000000000004 cy=334.0671493055611 r=20.55708110531183 stroke=""black"" stroke-width=""1.5"" fill=""none"" />
    <polygon points = ""412.33000000000004,384 418.11260412951873,404.55708110531185 406.54739587048135,404.55708110531185"" stroke=""white"" stroke-width=""3"" fill = ""white"" />
    
    </svg>
    </div>
        ","","","","","","","","","","","","stimulus","","","","","","","","","","","","","","","","",""
"html-keyboard-response","57","355968","0.0-57.0","404.7999999821186","arrowdown","","
    <div style="" display: block;  position: relative;"">
    
    <svg width=1280 height=768>
    <circle cx=577 cy=384 r=14.38995677371828 stroke=""black"" stroke-width=""1"" fill=""black"" />
    <circle cx=462.26285069443895 cy=384 r=20.55708110531183 stroke=""none"" stroke-width=""1.5"" fill=""none"" />
    <circle cx=412.33000000000004 cy=433.9328506944389 r=20.55708110531183 stroke=""none"" stroke-width=""1.5"" fill=""none"" />
    <circle cx=362.39714930556113 cy=384 r=20.55708110531183 stroke=""none"" stroke-width=""1.5"" fill=""none"" />
    <circle cx=412.33000000000004 cy=334.0671493055611 r=20.55708110531183 stroke=""none"" stroke-width=""1.5"" fill=""none"" />
    <polygon points = ""412.33000000000004,384 418.11260412951873,404.55708110531185 406.54739587048135,404.55708110531185"" stroke=""none"" stroke-width=""3"" fill = ""none"" />
    
    </svg>
    </div>
        ","","","","","","","","","","","","get_response","true","KWlh4a0dAwZLVier","","","true","false","false","164.67","4","630.1179999999999","49.93285069443888","1.21","1","0","","",""
"html-keyboard-response","58","356471","0.0-58.0","null","null","","
    <div style="" display: block;  position: relative;"">
    
    <svg width=1280 height=768>
    <circle cx=577 cy=384 r=14.38995677371828 stroke=""black"" stroke-width=""1"" fill=""black"" />
    <circle cx=462.26285069443895 cy=384 r=20.55708110531183 stroke=""none"" stroke-width=""1.5"" fill=""none"" />
    <circle cx=412.33000000000004 cy=433.9328506944389 r=20.55708110531183 stroke=""none"" stroke-width=""1.5"" fill=""none"" />
    <circle cx=362.39714930556113 cy=384 r=20.55708110531183 stroke=""none"" stroke-width=""1.5"" fill=""none"" />
    <circle cx=412.33000000000004 cy=334.0671493055611 r=20.55708110531183 stroke=""none"" stroke-width=""1.5"" fill=""none"" />
    <polygon points = ""412.33000000000004,384 418.11260412951873,404.55708110531185 406.54739587048135,404.55708110531185"" stroke=""none"" stroke-width=""3"" fill = ""none"" />
    
    </svg>
    </div>
        ","","","","","","","","","","","","","","","","","","","","","","","","","","","","",""
"html-keyboard-response","59","356626","0.0-59.0","null","null","","
    <div style="" display: block;  position: relative;"">
    <svg width=1280 height=768>
    
    <circle cx=577 cy=384 r=14.38995677371828 stroke=""black"" stroke-width=""1"" fill=""black"" />
    <circle cx=412.33000000000004 cy=384 r=20.55708110531183 stroke=""black"" stroke-width=""1.5"" fill=""none"" />
    <circle cx=457.7235006313081 cy=384 r=20.55708110531183 stroke=""black"" stroke-width=""1.5"" fill=""none"" />
    <circle cx=412.33000000000004 cy=429.3935006313081 r=20.55708110531183 stroke=""black"" stroke-width=""1.5"" fill=""none"" />
    <circle cx=366.93649936869195 cy=384 r=20.55708110531183 stroke=""black"" stroke-width=""1.5"" fill=""none"" />
    <circle cx=412.33000000000004 cy=338.6064993686919 r=20.55708110531183 stroke=""black"" stroke-width=""1.5"" fill=""none"" />
    <polygon points = ""412.33000000000004,384 418.11260412951873,404.55708110531185 406.54739587048135,404.55708110531185"" stroke=""white"" stroke-width=""3"" fill = ""white"" />
    
    </svg>
    </div>
        ","","","","","","","","","","","","stimulus","","","","","","","","","","","","","","","","",""
"html-keyboard-response","60","357200","0.0-60.0","572.2999999821186","arrowdown","","
    <div style="" display: block;  position: relative;"">
    
    <svg width=1280 height=768>
    <circle cx=577 cy=384 r=14.38995677371828 stroke=""black"" stroke-width=""1"" fill=""black"" />
    <circle cx=457.7235006313081 cy=384 r=20.55708110531183 stroke=""none"" stroke-width=""1.5"" fill=""none"" />
    <circle cx=412.33000000000004 cy=429.3935006313081 r=20.55708110531183 stroke=""none"" stroke-width=""1.5"" fill=""none"" />
    <circle cx=366.93649936869195 cy=384 r=20.55708110531183 stroke=""none"" stroke-width=""1.5"" fill=""none"" />
    <circle cx=412.33000000000004 cy=338.6064993686919 r=20.55708110531183 stroke=""none"" stroke-width=""1.5"" fill=""none"" />
    <polygon points = ""412.33000000000004,384 418.11260412951873,404.55708110531185 406.54739587048135,404.55708110531185"" stroke=""none"" stroke-width=""3"" fill = ""none"" />
    
    </svg>
    </div>
        ","","","","","","","","","","","","get_response","true","KWlh4a0dAwZLVier","","","true","false","false","164.67","4","630.1179999999999","45.39350063130807","1.1","1","0","","",""
"html-keyboard-response","61","357714","0.0-61.0","null","null","","
    <div style="" display: block;  position: relative;"">
    
    <svg width=1280 height=768>
    <circle cx=577 cy=384 r=14.38995677371828 stroke=""black"" stroke-width=""1"" fill=""black"" />
    <circle cx=457.7235006313081 cy=384 r=20.55708110531183 stroke=""none"" stroke-width=""1.5"" fill=""none"" />
    <circle cx=412.33000000000004 cy=429.3935006313081 r=20.55708110531183 stroke=""none"" stroke-width=""1.5"" fill=""none"" />
    <circle cx=366.93649936869195 cy=384 r=20.55708110531183 stroke=""none"" stroke-width=""1.5"" fill=""none"" />
    <circle cx=412.33000000000004 cy=338.6064993686919 r=20.55708110531183 stroke=""none"" stroke-width=""1.5"" fill=""none"" />
    <polygon points = ""412.33000000000004,384 418.11260412951873,404.55708110531185 406.54739587048135,404.55708110531185"" stroke=""none"" stroke-width=""3"" fill = ""none"" />
    
    </svg>
    </div>
        ","","","","","","","","","","","","","","","","","","","","","","","","","","","","",""
"html-keyboard-response","62","357870","0.0-62.0","null","null","","
    <div style="" display: block;  position: relative;"">
    <svg width=1280 height=768>
    
    <circle cx=577 cy=384 r=14.38995677371828 stroke=""black"" stroke-width=""1"" fill=""black"" />
    <circle cx=412.33000000000004 cy=384 r=20.55708110531183 stroke=""black"" stroke-width=""1.5"" fill=""none"" />
    <circle cx=453.59681875573466 cy=384 r=20.55708110531183 stroke=""black"" stroke-width=""1.5"" fill=""none"" />
    <circle cx=412.33000000000004 cy=425.2668187557346 r=20.55708110531183 stroke=""black"" stroke-width=""1.5"" fill=""none"" />
    <circle cx=371.0631812442654 cy=384 r=20.55708110531183 stroke=""black"" stroke-width=""1.5"" fill=""none"" />
    <circle cx=412.33000000000004 cy=342.7331812442654 r=20.55708110531183 stroke=""black"" stroke-width=""1.5"" fill=""none"" />
    <polygon points = ""412.33000000000004,384 418.11260412951873,404.55708110531185 406.54739587048135,404.55708110531185"" stroke=""white"" stroke-width=""3"" fill = ""white"" />
    
    </svg>
    </div>
        ","","","","","","","","","","","","stimulus","","","","","","","","","","","","","","","","",""
"html-keyboard-response","63","358368","0.0-63.0","495.59999999403954","arrowdown","","
    <div style="" display: block;  position: relative;"">
    
    <svg width=1280 height=768>
    <circle cx=577 cy=384 r=14.38995677371828 stroke=""black"" stroke-width=""1"" fill=""black"" />
    <circle cx=453.59681875573466 cy=384 r=20.55708110531183 stroke=""none"" stroke-width=""1.5"" fill=""none"" />
    <circle cx=412.33000000000004 cy=425.2668187557346 r=20.55708110531183 stroke=""none"" stroke-width=""1.5"" fill=""none"" />
    <circle cx=371.0631812442654 cy=384 r=20.55708110531183 stroke=""none"" stroke-width=""1.5"" fill=""none"" />
    <circle cx=412.33000000000004 cy=342.7331812442654 r=20.55708110531183 stroke=""none"" stroke-width=""1.5"" fill=""none"" />
    <polygon points = ""412.33000000000004,384 418.11260412951873,404.55708110531185 406.54739587048135,404.55708110531185"" stroke=""none"" stroke-width=""3"" fill = ""none"" />
    
    </svg>
    </div>
        ","","","","","","","","","","","","get_response","true","KWlh4a0dAwZLVier","","","true","false","false","164.67","4","630.1179999999999","41.266818755734604","1","1","0","","",""
"html-keyboard-response","64","358870","0.0-64.0","null","null","","
    <div style="" display: block;  position: relative;"">
    
    <svg width=1280 height=768>
    <circle cx=577 cy=384 r=14.38995677371828 stroke=""black"" stroke-width=""1"" fill=""black"" />
    <circle cx=453.59681875573466 cy=384 r=20.55708110531183 stroke=""none"" stroke-width=""1.5"" fill=""none"" />
    <circle cx=412.33000000000004 cy=425.2668187557346 r=20.55708110531183 stroke=""none"" stroke-width=""1.5"" fill=""none"" />
    <circle cx=371.0631812442654 cy=384 r=20.55708110531183 stroke=""none"" stroke-width=""1.5"" fill=""none"" />
    <circle cx=412.33000000000004 cy=342.7331812442654 r=20.55708110531183 stroke=""none"" stroke-width=""1.5"" fill=""none"" />
    <polygon points = ""412.33000000000004,384 418.11260412951873,404.55708110531185 406.54739587048135,404.55708110531185"" stroke=""none"" stroke-width=""3"" fill = ""none"" />
    
    </svg>
    </div>
        ","","","","","","","","","","","","","","","","","","","","","","","","","","","","",""
"html-keyboard-response","65","359024","0.0-65.0","null","null","","
    <div style="" display: block;  position: relative;"">
    <svg width=1280 height=768>
    
    <circle cx=577 cy=384 r=14.38995677371828 stroke=""black"" stroke-width=""1"" fill=""black"" />
    <circle cx=412.33000000000004 cy=384 r=20.55708110531183 stroke=""black"" stroke-width=""1.5"" fill=""none"" />
    <circle cx=453.4441622106237 cy=384 r=20.55708110531183 stroke=""black"" stroke-width=""1.5"" fill=""none"" />
    <circle cx=412.33000000000004 cy=425.11416221062365 r=20.55708110531183 stroke=""black"" stroke-width=""1.5"" fill=""none"" />
    <circle cx=371.2158377893764 cy=384 r=20.55708110531183 stroke=""black"" stroke-width=""1.5"" fill=""none"" />
    <circle cx=412.33000000000004 cy=342.88583778937635 r=20.55708110531183 stroke=""black"" stroke-width=""1.5"" fill=""none"" />
    <polygon points = ""412.33000000000004,384 418.11260412951873,363.44291889468815 406.54739587048135,363.44291889468815"" stroke=""white"" stroke-width=""3"" fill = ""white"" />
    
    </svg>
    </div>
        ","","","","","","","","","","","","stimulus","","","","","","","","","","","","","","","","",""
"html-keyboard-response","66","359664","0.0-66.0","638.0999999940395","arrowup","","
    <div style="" display: block;  position: relative;"">
    
    <svg width=1280 height=768>
    <circle cx=577 cy=384 r=14.38995677371828 stroke=""black"" stroke-width=""1"" fill=""black"" />
    <circle cx=453.4441622106237 cy=384 r=20.55708110531183 stroke=""none"" stroke-width=""1.5"" fill=""none"" />
    <circle cx=412.33000000000004 cy=425.11416221062365 r=20.55708110531183 stroke=""none"" stroke-width=""1.5"" fill=""none"" />
    <circle cx=371.2158377893764 cy=384 r=20.55708110531183 stroke=""none"" stroke-width=""1.5"" fill=""none"" />
    <circle cx=412.33000000000004 cy=342.88583778937635 r=20.55708110531183 stroke=""none"" stroke-width=""1.5"" fill=""none"" />
    <polygon points = ""412.33000000000004,384 418.11260412951873,363.44291889468815 406.54739587048135,363.44291889468815"" stroke=""none"" stroke-width=""3"" fill = ""none"" />
    
    </svg>
    </div>
        ","","","","","","","","","","","","get_response","true","KWlh4a0dAwZLVier","","","true","true","false","164.67","4","630.1179999999999","41.11416221062366","1","1","0","","",""
"html-keyboard-response","67","360180","0.0-67.0","null","null","","
    <div style="" display: block;  position: relative;"">
    
    <svg width=1280 height=768>
    <circle cx=577 cy=384 r=14.38995677371828 stroke=""black"" stroke-width=""1"" fill=""black"" />
    <circle cx=453.4441622106237 cy=384 r=20.55708110531183 stroke=""none"" stroke-width=""1.5"" fill=""none"" />
    <circle cx=412.33000000000004 cy=425.11416221062365 r=20.55708110531183 stroke=""none"" stroke-width=""1.5"" fill=""none"" />
    <circle cx=371.2158377893764 cy=384 r=20.55708110531183 stroke=""none"" stroke-width=""1.5"" fill=""none"" />
    <circle cx=412.33000000000004 cy=342.88583778937635 r=20.55708110531183 stroke=""none"" stroke-width=""1.5"" fill=""none"" />
    <polygon points = ""412.33000000000004,384 418.11260412951873,363.44291889468815 406.54739587048135,363.44291889468815"" stroke=""none"" stroke-width=""3"" fill = ""none"" />
    
    </svg>
    </div>
        ","","","","","","","","","","","","","","","","","","","","","","","","","","","","",""
"html-keyboard-response","68","360333","0.0-68.0","null","null","","
    <div style="" display: block;  position: relative;"">
    <svg width=1280 height=768>
    
    <circle cx=577 cy=384 r=14.38995677371828 stroke=""black"" stroke-width=""1"" fill=""black"" />
    <circle cx=741.67 cy=384 r=20.55708110531183 stroke=""black"" stroke-width=""1.5"" fill=""none"" />
    <circle cx=782.7841622106237 cy=384 r=20.55708110531183 stroke=""black"" stroke-width=""1.5"" fill=""none"" />
    <circle cx=741.67 cy=425.11416221062365 r=20.55708110531183 stroke=""black"" stroke-width=""1.5"" fill=""none"" />
    <circle cx=700.5558377893763 cy=384 r=20.55708110531183 stroke=""black"" stroke-width=""1.5"" fill=""none"" />
    <circle cx=741.67 cy=342.88583778937635 r=20.55708110531183 stroke=""black"" stroke-width=""1.5"" fill=""none"" />
    <polygon points = ""741.67,384 747.4526041295187,404.55708110531185 735.8873958704812,404.55708110531185"" stroke=""white"" stroke-width=""3"" fill = ""white"" />
    
    </svg>
    </div>
        ","","","","","","","","","","","","stimulus","","","","","","","","","","","","","","","","",""
"html-keyboard-response","69","360872","0.0-69.0","537","arrowdown","","
    <div style="" display: block;  position: relative;"">
    
    <svg width=1280 height=768>
    <circle cx=577 cy=384 r=14.38995677371828 stroke=""black"" stroke-width=""1"" fill=""black"" />
    <circle cx=782.7841622106237 cy=384 r=20.55708110531183 stroke=""none"" stroke-width=""1.5"" fill=""none"" />
    <circle cx=741.67 cy=425.11416221062365 r=20.55708110531183 stroke=""none"" stroke-width=""1.5"" fill=""none"" />
    <circle cx=700.5558377893763 cy=384 r=20.55708110531183 stroke=""none"" stroke-width=""1.5"" fill=""none"" />
    <circle cx=741.67 cy=342.88583778937635 r=20.55708110531183 stroke=""none"" stroke-width=""1.5"" fill=""none"" />
    <polygon points = ""741.67,384 747.4526041295187,404.55708110531185 735.8873958704812,404.55708110531185"" stroke=""none"" stroke-width=""3"" fill = ""none"" />
    
    </svg>
    </div>
        ","","","","","","","","","","","","get_response","true","KWlh4a0dAwZLVier","","","false","false","false","164.67","4","630.1179999999999","41.11416221062366","1","1","0","","",""
"html-keyboard-response","70","361378","0.0-70.0","null","null","","
    <div style="" display: block;  position: relative;"">
    
    <svg width=1280 height=768>
    <circle cx=577 cy=384 r=14.38995677371828 stroke=""black"" stroke-width=""1"" fill=""black"" />
    <circle cx=782.7841622106237 cy=384 r=20.55708110531183 stroke=""none"" stroke-width=""1.5"" fill=""none"" />
    <circle cx=741.67 cy=425.11416221062365 r=20.55708110531183 stroke=""none"" stroke-width=""1.5"" fill=""none"" />
    <circle cx=700.5558377893763 cy=384 r=20.55708110531183 stroke=""none"" stroke-width=""1.5"" fill=""none"" />
    <circle cx=741.67 cy=342.88583778937635 r=20.55708110531183 stroke=""none"" stroke-width=""1.5"" fill=""none"" />
    <polygon points = ""741.67,384 747.4526041295187,404.55708110531185 735.8873958704812,404.55708110531185"" stroke=""none"" stroke-width=""3"" fill = ""none"" />
    
    </svg>
    </div>
        ","","","","","","","","","","","","","","","","","","","","","","","","","","","","",""
"html-keyboard-response","71","361533","0.0-71.0","null","null","","
    <div style="" display: block;  position: relative;"">
    <svg width=1280 height=768>
    
    <circle cx=577 cy=384 r=14.38995677371828 stroke=""black"" stroke-width=""1"" fill=""black"" />
    <circle cx=741.67 cy=384 r=20.55708110531183 stroke=""black"" stroke-width=""1.5"" fill=""none"" />
    <circle cx=782.7841622106237 cy=384 r=20.55708110531183 stroke=""black"" stroke-width=""1.5"" fill=""none"" />
    <circle cx=741.67 cy=425.11416221062365 r=20.55708110531183 stroke=""black"" stroke-width=""1.5"" fill=""none"" />
    <circle cx=700.5558377893763 cy=384 r=20.55708110531183 stroke=""black"" stroke-width=""1.5"" fill=""none"" />
    <circle cx=741.67 cy=342.88583778937635 r=20.55708110531183 stroke=""black"" stroke-width=""1.5"" fill=""none"" />
    <polygon points = ""741.67,384 747.4526041295187,404.55708110531185 735.8873958704812,404.55708110531185"" stroke=""white"" stroke-width=""3"" fill = ""white"" />
    
    </svg>
    </div>
        ","","","","","","","","","","","","stimulus","","","","","","","","","","","","","","","","",""
"html-keyboard-response","72","362008","0.0-72.0","473","arrowdown","","
    <div style="" display: block;  position: relative;"">
    
    <svg width=1280 height=768>
    <circle cx=577 cy=384 r=14.38995677371828 stroke=""black"" stroke-width=""1"" fill=""black"" />
    <circle cx=782.7841622106237 cy=384 r=20.55708110531183 stroke=""none"" stroke-width=""1.5"" fill=""none"" />
    <circle cx=741.67 cy=425.11416221062365 r=20.55708110531183 stroke=""none"" stroke-width=""1.5"" fill=""none"" />
    <circle cx=700.5558377893763 cy=384 r=20.55708110531183 stroke=""none"" stroke-width=""1.5"" fill=""none"" />
    <circle cx=741.67 cy=342.88583778937635 r=20.55708110531183 stroke=""none"" stroke-width=""1.5"" fill=""none"" />
    <polygon points = ""741.67,384 747.4526041295187,404.55708110531185 735.8873958704812,404.55708110531185"" stroke=""none"" stroke-width=""3"" fill = ""none"" />
    
    </svg>
    </div>
        ","","","","","","","","","","","","get_response","true","KWlh4a0dAwZLVier","","","false","false","false","164.67","4","630.1179999999999","41.11416221062366","1","1","0","","",""
"html-keyboard-response","73","362509","0.0-73.0","null","null","","
    <div style="" display: block;  position: relative;"">
    
    <svg width=1280 height=768>
    <circle cx=577 cy=384 r=14.38995677371828 stroke=""black"" stroke-width=""1"" fill=""black"" />
    <circle cx=782.7841622106237 cy=384 r=20.55708110531183 stroke=""none"" stroke-width=""1.5"" fill=""none"" />
    <circle cx=741.67 cy=425.11416221062365 r=20.55708110531183 stroke=""none"" stroke-width=""1.5"" fill=""none"" />
    <circle cx=700.5558377893763 cy=384 r=20.55708110531183 stroke=""none"" stroke-width=""1.5"" fill=""none"" />
    <circle cx=741.67 cy=342.88583778937635 r=20.55708110531183 stroke=""none"" stroke-width=""1.5"" fill=""none"" />
    <polygon points = ""741.67,384 747.4526041295187,404.55708110531185 735.8873958704812,404.55708110531185"" stroke=""none"" stroke-width=""3"" fill = ""none"" />
    
    </svg>
    </div>
        ","","","","","","","","","","","","","","","","","","","","","","","","","","","","",""
"html-keyboard-response","74","362663","0.0-74.0","null","null","","
    <div style="" display: block;  position: relative;"">
    <svg width=1280 height=768>
    
    <circle cx=577 cy=384 r=14.38995677371828 stroke=""black"" stroke-width=""1"" fill=""black"" />
    <circle cx=741.67 cy=384 r=20.55708110531183 stroke=""black"" stroke-width=""1.5"" fill=""none"" />
    <circle cx=782.7841622106237 cy=384 r=20.55708110531183 stroke=""black"" stroke-width=""1.5"" fill=""none"" />
    <circle cx=741.67 cy=425.11416221062365 r=20.55708110531183 stroke=""black"" stroke-width=""1.5"" fill=""none"" />
    <circle cx=700.5558377893763 cy=384 r=20.55708110531183 stroke=""black"" stroke-width=""1.5"" fill=""none"" />
    <circle cx=741.67 cy=342.88583778937635 r=20.55708110531183 stroke=""black"" stroke-width=""1.5"" fill=""none"" />
    <polygon points = ""741.67,384 747.4526041295187,404.55708110531185 735.8873958704812,404.55708110531185"" stroke=""white"" stroke-width=""3"" fill = ""white"" />
    
    </svg>
    </div>
        ","","","","","","","","","","","","stimulus","","","","","","","","","","","","","","","","",""
"html-keyboard-response","75","363192","0.0-75.0","527","arrowdown","","
    <div style="" display: block;  position: relative;"">
    
    <svg width=1280 height=768>
    <circle cx=577 cy=384 r=14.38995677371828 stroke=""black"" stroke-width=""1"" fill=""black"" />
    <circle cx=782.7841622106237 cy=384 r=20.55708110531183 stroke=""none"" stroke-width=""1.5"" fill=""none"" />
    <circle cx=741.67 cy=425.11416221062365 r=20.55708110531183 stroke=""none"" stroke-width=""1.5"" fill=""none"" />
    <circle cx=700.5558377893763 cy=384 r=20.55708110531183 stroke=""none"" stroke-width=""1.5"" fill=""none"" />
    <circle cx=741.67 cy=342.88583778937635 r=20.55708110531183 stroke=""none"" stroke-width=""1.5"" fill=""none"" />
    <polygon points = ""741.67,384 747.4526041295187,404.55708110531185 735.8873958704812,404.55708110531185"" stroke=""none"" stroke-width=""3"" fill = ""none"" />
    
    </svg>
    </div>
        ","","","","","","","","","","","","get_response","true","KWlh4a0dAwZLVier","","","false","false","false","164.67","4","630.1179999999999","41.11416221062366","1","1","0","","",""
"html-keyboard-response","76","363693","0.0-76.0","null","null","","
    <div style="" display: block;  position: relative;"">
    
    <svg width=1280 height=768>
    <circle cx=577 cy=384 r=14.38995677371828 stroke=""black"" stroke-width=""1"" fill=""black"" />
    <circle cx=782.7841622106237 cy=384 r=20.55708110531183 stroke=""none"" stroke-width=""1.5"" fill=""none"" />
    <circle cx=741.67 cy=425.11416221062365 r=20.55708110531183 stroke=""none"" stroke-width=""1.5"" fill=""none"" />
    <circle cx=700.5558377893763 cy=384 r=20.55708110531183 stroke=""none"" stroke-width=""1.5"" fill=""none"" />
    <circle cx=741.67 cy=342.88583778937635 r=20.55708110531183 stroke=""none"" stroke-width=""1.5"" fill=""none"" />
    <polygon points = ""741.67,384 747.4526041295187,404.55708110531185 735.8873958704812,404.55708110531185"" stroke=""none"" stroke-width=""3"" fill = ""none"" />
    
    </svg>
    </div>
        ","","","","","","","","","","","","","","","","","","","","","","","","","","","","",""
"html-keyboard-response","77","363857","0.0-77.0","null","null","","
    <div style="" display: block;  position: relative;"">
    <svg width=1280 height=768>
    
    <circle cx=577 cy=384 r=14.38995677371828 stroke=""black"" stroke-width=""1"" fill=""black"" />
    <circle cx=741.67 cy=384 r=20.55708110531183 stroke=""black"" stroke-width=""1.5"" fill=""none"" />
    <circle cx=782.7841622106237 cy=384 r=20.55708110531183 stroke=""black"" stroke-width=""1.5"" fill=""none"" />
    <circle cx=741.67 cy=425.11416221062365 r=20.55708110531183 stroke=""black"" stroke-width=""1.5"" fill=""none"" />
    <circle cx=700.5558377893763 cy=384 r=20.55708110531183 stroke=""black"" stroke-width=""1.5"" fill=""none"" />
    <circle cx=741.67 cy=342.88583778937635 r=20.55708110531183 stroke=""black"" stroke-width=""1.5"" fill=""none"" />
    <polygon points = ""741.67,384 747.4526041295187,404.55708110531185 735.8873958704812,404.55708110531185"" stroke=""white"" stroke-width=""3"" fill = ""white"" />
    
    </svg>
    </div>
        ","","","","","","","","","","","","stimulus","","","","","","","","","","","","","","","","",""
"html-keyboard-response","78","364456","0.0-78.0","597.3999999761581","arrowdown","","
    <div style="" display: block;  position: relative;"">
    
    <svg width=1280 height=768>
    <circle cx=577 cy=384 r=14.38995677371828 stroke=""black"" stroke-width=""1"" fill=""black"" />
    <circle cx=782.7841622106237 cy=384 r=20.55708110531183 stroke=""none"" stroke-width=""1.5"" fill=""none"" />
    <circle cx=741.67 cy=425.11416221062365 r=20.55708110531183 stroke=""none"" stroke-width=""1.5"" fill=""none"" />
    <circle cx=700.5558377893763 cy=384 r=20.55708110531183 stroke=""none"" stroke-width=""1.5"" fill=""none"" />
    <circle cx=741.67 cy=342.88583778937635 r=20.55708110531183 stroke=""none"" stroke-width=""1.5"" fill=""none"" />
    <polygon points = ""741.67,384 747.4526041295187,404.55708110531185 735.8873958704812,404.55708110531185"" stroke=""none"" stroke-width=""3"" fill = ""none"" />
    
    </svg>
    </div>
        ","","","","","","","","","","","","get_response","true","KWlh4a0dAwZLVier","","","false","false","false","164.67","4","630.1179999999999","41.11416221062366","1","1","0","","",""
"html-keyboard-response","79","364971","0.0-79.0","null","null","","
    <div style="" display: block;  position: relative;"">
    
    <svg width=1280 height=768>
    <circle cx=577 cy=384 r=14.38995677371828 stroke=""black"" stroke-width=""1"" fill=""black"" />
    <circle cx=782.7841622106237 cy=384 r=20.55708110531183 stroke=""none"" stroke-width=""1.5"" fill=""none"" />
    <circle cx=741.67 cy=425.11416221062365 r=20.55708110531183 stroke=""none"" stroke-width=""1.5"" fill=""none"" />
    <circle cx=700.5558377893763 cy=384 r=20.55708110531183 stroke=""none"" stroke-width=""1.5"" fill=""none"" />
    <circle cx=741.67 cy=342.88583778937635 r=20.55708110531183 stroke=""none"" stroke-width=""1.5"" fill=""none"" />
    <polygon points = ""741.67,384 747.4526041295187,404.55708110531185 735.8873958704812,404.55708110531185"" stroke=""none"" stroke-width=""3"" fill = ""none"" />
    
    </svg>
    </div>
        ","","","","","","","","","","","","","","","","","","","","","","","","","","","","",""
"html-keyboard-response","80","365125","0.0-80.0","null","null","","
    <div style="" display: block;  position: relative;"">
    <svg width=1280 height=768>
    
    <circle cx=577 cy=384 r=14.38995677371828 stroke=""black"" stroke-width=""1"" fill=""black"" />
    <circle cx=412.33000000000004 cy=384 r=20.55708110531183 stroke=""black"" stroke-width=""1.5"" fill=""none"" />
    <circle cx=453.4441622106237 cy=384 r=20.55708110531183 stroke=""black"" stroke-width=""1.5"" fill=""none"" />
    <circle cx=412.33000000000004 cy=425.11416221062365 r=20.55708110531183 stroke=""black"" stroke-width=""1.5"" fill=""none"" />
    <circle cx=371.2158377893764 cy=384 r=20.55708110531183 stroke=""black"" stroke-width=""1.5"" fill=""none"" />
    <circle cx=412.33000000000004 cy=342.88583778937635 r=20.55708110531183 stroke=""black"" stroke-width=""1.5"" fill=""none"" />
    <polygon points = ""412.33000000000004,384 418.11260412951873,363.44291889468815 406.54739587048135,363.44291889468815"" stroke=""white"" stroke-width=""3"" fill = ""white"" />
    
    </svg>
    </div>
        ","","","","","","","","","","","","stimulus","","","","","","","","","","","","","","","","",""
"html-keyboard-response","81","365743","0.0-81.0","617.5999999940395","arrowup","","
    <div style="" display: block;  position: relative;"">
    
    <svg width=1280 height=768>
    <circle cx=577 cy=384 r=14.38995677371828 stroke=""black"" stroke-width=""1"" fill=""black"" />
    <circle cx=453.4441622106237 cy=384 r=20.55708110531183 stroke=""none"" stroke-width=""1.5"" fill=""none"" />
    <circle cx=412.33000000000004 cy=425.11416221062365 r=20.55708110531183 stroke=""none"" stroke-width=""1.5"" fill=""none"" />
    <circle cx=371.2158377893764 cy=384 r=20.55708110531183 stroke=""none"" stroke-width=""1.5"" fill=""none"" />
    <circle cx=412.33000000000004 cy=342.88583778937635 r=20.55708110531183 stroke=""none"" stroke-width=""1.5"" fill=""none"" />
    <polygon points = ""412.33000000000004,384 418.11260412951873,363.44291889468815 406.54739587048135,363.44291889468815"" stroke=""none"" stroke-width=""3"" fill = ""none"" />
    
    </svg>
    </div>
        ","","","","","","","","","","","","get_response","true","KWlh4a0dAwZLVier","","","true","true","false","164.67","4","630.1179999999999","41.11416221062366","1","1","0","","",""
"html-keyboard-response","82","366247","0.0-82.0","null","null","","
    <div style="" display: block;  position: relative;"">
    
    <svg width=1280 height=768>
    <circle cx=577 cy=384 r=14.38995677371828 stroke=""black"" stroke-width=""1"" fill=""black"" />
    <circle cx=453.4441622106237 cy=384 r=20.55708110531183 stroke=""none"" stroke-width=""1.5"" fill=""none"" />
    <circle cx=412.33000000000004 cy=425.11416221062365 r=20.55708110531183 stroke=""none"" stroke-width=""1.5"" fill=""none"" />
    <circle cx=371.2158377893764 cy=384 r=20.55708110531183 stroke=""none"" stroke-width=""1.5"" fill=""none"" />
    <circle cx=412.33000000000004 cy=342.88583778937635 r=20.55708110531183 stroke=""none"" stroke-width=""1.5"" fill=""none"" />
    <polygon points = ""412.33000000000004,384 418.11260412951873,363.44291889468815 406.54739587048135,363.44291889468815"" stroke=""none"" stroke-width=""3"" fill = ""none"" />
    
    </svg>
    </div>
        ","","","","","","","","","","","","","","","","","","","","","","","","","","","","",""
"html-keyboard-response","83","366403","0.0-83.0","null","null","","
    <div style="" display: block;  position: relative;"">
    <svg width=1280 height=768>
    
    <circle cx=577 cy=384 r=14.38995677371828 stroke=""black"" stroke-width=""1"" fill=""black"" />
    <circle cx=741.67 cy=384 r=20.55708110531183 stroke=""black"" stroke-width=""1.5"" fill=""none"" />
    <circle cx=782.7841622106237 cy=384 r=20.55708110531183 stroke=""black"" stroke-width=""1.5"" fill=""none"" />
    <circle cx=741.67 cy=425.11416221062365 r=20.55708110531183 stroke=""black"" stroke-width=""1.5"" fill=""none"" />
    <circle cx=700.5558377893763 cy=384 r=20.55708110531183 stroke=""black"" stroke-width=""1.5"" fill=""none"" />
    <circle cx=741.67 cy=342.88583778937635 r=20.55708110531183 stroke=""black"" stroke-width=""1.5"" fill=""none"" />
    <polygon points = ""741.67,384 747.4526041295187,363.44291889468815 735.8873958704812,363.44291889468815"" stroke=""white"" stroke-width=""3"" fill = ""white"" />
    
    </svg>
    </div>
        ","","","","","","","","","","","","stimulus","","","","","","","","","","","","","","","","",""
"html-keyboard-response","84","366880","0.0-84.0","475.2999999821186","arrowup","","
    <div style="" display: block;  position: relative;"">
    
    <svg width=1280 height=768>
    <circle cx=577 cy=384 r=14.38995677371828 stroke=""black"" stroke-width=""1"" fill=""black"" />
    <circle cx=782.7841622106237 cy=384 r=20.55708110531183 stroke=""none"" stroke-width=""1.5"" fill=""none"" />
    <circle cx=741.67 cy=425.11416221062365 r=20.55708110531183 stroke=""none"" stroke-width=""1.5"" fill=""none"" />
    <circle cx=700.5558377893763 cy=384 r=20.55708110531183 stroke=""none"" stroke-width=""1.5"" fill=""none"" />
    <circle cx=741.67 cy=342.88583778937635 r=20.55708110531183 stroke=""none"" stroke-width=""1.5"" fill=""none"" />
    <polygon points = ""741.67,384 747.4526041295187,363.44291889468815 735.8873958704812,363.44291889468815"" stroke=""none"" stroke-width=""3"" fill = ""none"" />
    
    </svg>
    </div>
        ","","","","","","","","","","","","get_response","true","KWlh4a0dAwZLVier","","","false","true","false","164.67","4","630.1179999999999","41.11416221062366","1","1","0","","",""
"html-keyboard-response","85","367384","0.0-85.0","null","null","","
    <div style="" display: block;  position: relative;"">
    
    <svg width=1280 height=768>
    <circle cx=577 cy=384 r=14.38995677371828 stroke=""black"" stroke-width=""1"" fill=""black"" />
    <circle cx=782.7841622106237 cy=384 r=20.55708110531183 stroke=""none"" stroke-width=""1.5"" fill=""none"" />
    <circle cx=741.67 cy=425.11416221062365 r=20.55708110531183 stroke=""none"" stroke-width=""1.5"" fill=""none"" />
    <circle cx=700.5558377893763 cy=384 r=20.55708110531183 stroke=""none"" stroke-width=""1.5"" fill=""none"" />
    <circle cx=741.67 cy=342.88583778937635 r=20.55708110531183 stroke=""none"" stroke-width=""1.5"" fill=""none"" />
    <polygon points = ""741.67,384 747.4526041295187,363.44291889468815 735.8873958704812,363.44291889468815"" stroke=""none"" stroke-width=""3"" fill = ""none"" />
    
    </svg>
    </div>
        ","","","","","","","","","","","","","","","","","","","","","","","","","","","","",""
"html-keyboard-response","86","367539","0.0-86.0","null","null","","
    <div style="" display: block;  position: relative;"">
    <svg width=1280 height=768>
    
    <circle cx=577 cy=384 r=14.38995677371828 stroke=""black"" stroke-width=""1"" fill=""black"" />
    <circle cx=412.33000000000004 cy=384 r=20.55708110531183 stroke=""black"" stroke-width=""1.5"" fill=""none"" />
    <circle cx=453.4441622106237 cy=384 r=20.55708110531183 stroke=""black"" stroke-width=""1.5"" fill=""none"" />
    <circle cx=412.33000000000004 cy=425.11416221062365 r=20.55708110531183 stroke=""black"" stroke-width=""1.5"" fill=""none"" />
    <circle cx=371.2158377893764 cy=384 r=20.55708110531183 stroke=""black"" stroke-width=""1.5"" fill=""none"" />
    <circle cx=412.33000000000004 cy=342.88583778937635 r=20.55708110531183 stroke=""black"" stroke-width=""1.5"" fill=""none"" />
    <polygon points = ""412.33000000000004,384 418.11260412951873,363.44291889468815 406.54739587048135,363.44291889468815"" stroke=""white"" stroke-width=""3"" fill = ""white"" />
    
    </svg>
    </div>
        ","","","","","","","","","","","","stimulus","","","","","","","","","","","","","","","","",""
"html-keyboard-response","87","368136","0.0-87.0","595","arrowup","","
    <div style="" display: block;  position: relative;"">
    
    <svg width=1280 height=768>
    <circle cx=577 cy=384 r=14.38995677371828 stroke=""black"" stroke-width=""1"" fill=""black"" />
    <circle cx=453.4441622106237 cy=384 r=20.55708110531183 stroke=""none"" stroke-width=""1.5"" fill=""none"" />
    <circle cx=412.33000000000004 cy=425.11416221062365 r=20.55708110531183 stroke=""none"" stroke-width=""1.5"" fill=""none"" />
    <circle cx=371.2158377893764 cy=384 r=20.55708110531183 stroke=""none"" stroke-width=""1.5"" fill=""none"" />
    <circle cx=412.33000000000004 cy=342.88583778937635 r=20.55708110531183 stroke=""none"" stroke-width=""1.5"" fill=""none"" />
    <polygon points = ""412.33000000000004,384 418.11260412951873,363.44291889468815 406.54739587048135,363.44291889468815"" stroke=""none"" stroke-width=""3"" fill = ""none"" />
    
    </svg>
    </div>
        ","","","","","","","","","","","","get_response","true","KWlh4a0dAwZLVier","","","true","true","false","164.67","4","630.1179999999999","41.11416221062366","1","1","0","","",""
"html-keyboard-response","88","368641","0.0-88.0","null","null","","
    <div style="" display: block;  position: relative;"">
    
    <svg width=1280 height=768>
    <circle cx=577 cy=384 r=14.38995677371828 stroke=""black"" stroke-width=""1"" fill=""black"" />
    <circle cx=453.4441622106237 cy=384 r=20.55708110531183 stroke=""none"" stroke-width=""1.5"" fill=""none"" />
    <circle cx=412.33000000000004 cy=425.11416221062365 r=20.55708110531183 stroke=""none"" stroke-width=""1.5"" fill=""none"" />
    <circle cx=371.2158377893764 cy=384 r=20.55708110531183 stroke=""none"" stroke-width=""1.5"" fill=""none"" />
    <circle cx=412.33000000000004 cy=342.88583778937635 r=20.55708110531183 stroke=""none"" stroke-width=""1.5"" fill=""none"" />
    <polygon points = ""412.33000000000004,384 418.11260412951873,363.44291889468815 406.54739587048135,363.44291889468815"" stroke=""none"" stroke-width=""3"" fill = ""none"" />
    
    </svg>
    </div>
        ","","","","","","","","","","","","","","","","","","","","","","","","","","","","",""
"html-keyboard-response","89","368796","0.0-89.0","null","null","","
    <div style="" display: block;  position: relative;"">
    <svg width=1280 height=768>
    
    <circle cx=577 cy=384 r=14.38995677371828 stroke=""black"" stroke-width=""1"" fill=""black"" />
    <circle cx=741.67 cy=384 r=20.55708110531183 stroke=""black"" stroke-width=""1.5"" fill=""none"" />
    <circle cx=782.7841622106237 cy=384 r=20.55708110531183 stroke=""black"" stroke-width=""1.5"" fill=""none"" />
    <circle cx=741.67 cy=425.11416221062365 r=20.55708110531183 stroke=""black"" stroke-width=""1.5"" fill=""none"" />
    <circle cx=700.5558377893763 cy=384 r=20.55708110531183 stroke=""black"" stroke-width=""1.5"" fill=""none"" />
    <circle cx=741.67 cy=342.88583778937635 r=20.55708110531183 stroke=""black"" stroke-width=""1.5"" fill=""none"" />
    <polygon points = ""741.67,384 747.4526041295187,363.44291889468815 735.8873958704812,363.44291889468815"" stroke=""white"" stroke-width=""3"" fill = ""white"" />
    
    </svg>
    </div>
        ","","","","","","","","","","","","stimulus","","","","","","","","","","","","","","","","",""
"html-keyboard-response","90","369343","0.0-90.0","546.6999999880791","arrowup","","
    <div style="" display: block;  position: relative;"">
    
    <svg width=1280 height=768>
    <circle cx=577 cy=384 r=14.38995677371828 stroke=""black"" stroke-width=""1"" fill=""black"" />
    <circle cx=782.7841622106237 cy=384 r=20.55708110531183 stroke=""none"" stroke-width=""1.5"" fill=""none"" />
    <circle cx=741.67 cy=425.11416221062365 r=20.55708110531183 stroke=""none"" stroke-width=""1.5"" fill=""none"" />
    <circle cx=700.5558377893763 cy=384 r=20.55708110531183 stroke=""none"" stroke-width=""1.5"" fill=""none"" />
    <circle cx=741.67 cy=342.88583778937635 r=20.55708110531183 stroke=""none"" stroke-width=""1.5"" fill=""none"" />
    <polygon points = ""741.67,384 747.4526041295187,363.44291889468815 735.8873958704812,363.44291889468815"" stroke=""none"" stroke-width=""3"" fill = ""none"" />
    
    </svg>
    </div>
        ","","","","","","","","","","","","get_response","true","KWlh4a0dAwZLVier","","","false","true","false","164.67","4","630.1179999999999","41.11416221062366","1","1","0","","",""
"html-keyboard-response","91","369859","0.0-91.0","null","null","","
    <div style="" display: block;  position: relative;"">
    
    <svg width=1280 height=768>
    <circle cx=577 cy=384 r=14.38995677371828 stroke=""black"" stroke-width=""1"" fill=""black"" />
    <circle cx=782.7841622106237 cy=384 r=20.55708110531183 stroke=""none"" stroke-width=""1.5"" fill=""none"" />
    <circle cx=741.67 cy=425.11416221062365 r=20.55708110531183 stroke=""none"" stroke-width=""1.5"" fill=""none"" />
    <circle cx=700.5558377893763 cy=384 r=20.55708110531183 stroke=""none"" stroke-width=""1.5"" fill=""none"" />
    <circle cx=741.67 cy=342.88583778937635 r=20.55708110531183 stroke=""none"" stroke-width=""1.5"" fill=""none"" />
    <polygon points = ""741.67,384 747.4526041295187,363.44291889468815 735.8873958704812,363.44291889468815"" stroke=""none"" stroke-width=""3"" fill = ""none"" />
    
    </svg>
    </div>
        ","","","","","","","","","","","","","","","","","","","","","","","","","","","","",""
"html-keyboard-response","92","370015","0.0-92.0","null","null","","
    <div style="" display: block;  position: relative;"">
    <svg width=1280 height=768>
    
    <circle cx=577 cy=384 r=14.38995677371828 stroke=""black"" stroke-width=""1"" fill=""black"" />
    <circle cx=412.33000000000004 cy=384 r=20.55708110531183 stroke=""black"" stroke-width=""1.5"" fill=""none"" />
    <circle cx=453.4441622106237 cy=384 r=20.55708110531183 stroke=""black"" stroke-width=""1.5"" fill=""none"" />
    <circle cx=412.33000000000004 cy=425.11416221062365 r=20.55708110531183 stroke=""black"" stroke-width=""1.5"" fill=""none"" />
    <circle cx=371.2158377893764 cy=384 r=20.55708110531183 stroke=""black"" stroke-width=""1.5"" fill=""none"" />
    <circle cx=412.33000000000004 cy=342.88583778937635 r=20.55708110531183 stroke=""black"" stroke-width=""1.5"" fill=""none"" />
    <polygon points = ""412.33000000000004,384 418.11260412951873,363.44291889468815 406.54739587048135,363.44291889468815"" stroke=""white"" stroke-width=""3"" fill = ""white"" />
    
    </svg>
    </div>
        ","","","","","","","","","","","","stimulus","","","","","","","","","","","","","","","","",""
"html-keyboard-response","93","370944","0.0-93.0","927.2000000178814","arrowup","","
    <div style="" display: block;  position: relative;"">
    
    <svg width=1280 height=768>
    <circle cx=577 cy=384 r=14.38995677371828 stroke=""black"" stroke-width=""1"" fill=""black"" />
    <circle cx=453.4441622106237 cy=384 r=20.55708110531183 stroke=""none"" stroke-width=""1.5"" fill=""none"" />
    <circle cx=412.33000000000004 cy=425.11416221062365 r=20.55708110531183 stroke=""none"" stroke-width=""1.5"" fill=""none"" />
    <circle cx=371.2158377893764 cy=384 r=20.55708110531183 stroke=""none"" stroke-width=""1.5"" fill=""none"" />
    <circle cx=412.33000000000004 cy=342.88583778937635 r=20.55708110531183 stroke=""none"" stroke-width=""1.5"" fill=""none"" />
    <polygon points = ""412.33000000000004,384 418.11260412951873,363.44291889468815 406.54739587048135,363.44291889468815"" stroke=""none"" stroke-width=""3"" fill = ""none"" />
    
    </svg>
    </div>
        ","","","","","","","","","","","","get_response","true","KWlh4a0dAwZLVier","","","true","true","false","164.67","4","630.1179999999999","41.11416221062366","1","1","0","","",""
"html-keyboard-response","94","371453","0.0-94.0","null","null","","
    <div style="" display: block;  position: relative;"">
    
    <svg width=1280 height=768>
    <circle cx=577 cy=384 r=14.38995677371828 stroke=""black"" stroke-width=""1"" fill=""black"" />
    <circle cx=453.4441622106237 cy=384 r=20.55708110531183 stroke=""none"" stroke-width=""1.5"" fill=""none"" />
    <circle cx=412.33000000000004 cy=425.11416221062365 r=20.55708110531183 stroke=""none"" stroke-width=""1.5"" fill=""none"" />
    <circle cx=371.2158377893764 cy=384 r=20.55708110531183 stroke=""none"" stroke-width=""1.5"" fill=""none"" />
    <circle cx=412.33000000000004 cy=342.88583778937635 r=20.55708110531183 stroke=""none"" stroke-width=""1.5"" fill=""none"" />
    <polygon points = ""412.33000000000004,384 418.11260412951873,363.44291889468815 406.54739587048135,363.44291889468815"" stroke=""none"" stroke-width=""3"" fill = ""none"" />
    
    </svg>
    </div>
        ","","","","","","","","","","","","","","","","","","","","","","","","","","","","",""
"html-keyboard-response","95","371608","0.0-95.0","null","null","","
    <div style="" display: block;  position: relative;"">
    <svg width=1280 height=768>
    
    <circle cx=577 cy=384 r=14.38995677371828 stroke=""black"" stroke-width=""1"" fill=""black"" />
    <circle cx=412.33000000000004 cy=384 r=20.55708110531183 stroke=""black"" stroke-width=""1.5"" fill=""none"" />
    <circle cx=453.4441622106237 cy=384 r=20.55708110531183 stroke=""black"" stroke-width=""1.5"" fill=""none"" />
