"trial_type","trial_index","time_elapsed","internal_node_id","rt","response","success","stimulus","start_time","start_time_unix","item_width_mm","item_height_mm","item_width_px","px2mm","view_dist_mm","item_width_deg","px2deg","win_width_deg","win_height_deg","trialType","correct","participantID","criticalSpacing","criticalSpacing_deg","isLeft","isUp","isEccen4","eccentricity","eccentricity_deg","viewingDistanceMean","critical_spacing","critical_spacing_deg","crowding_session","correctRate","viewDistance_1","viewDistance_2","viewDistance_3"
"pavlovia","0","5","0.0-0.0","","","","","","","","","","","","","","","","","","","","","","","","","","","","","","","","",""
"survey-text","1","9268","0.0-1.0","9247.79999999993","{""Q0"":""""}","","","","","","","","","","","","","","","","","","","","","","","","","","","","","","",""
"fullscreen","2","24173","0.0-2.0","","","true","","","","","","","","","","","","","","","","","","","","","","","","","","","","","",""
"html-keyboard-response","3","27029","0.0-3.0","2853.5999999999767"," ","","<h1>Consent Form</h1>
       <p>By answering the following questions, you are participating in a study being performed by cognitive scientists in the Stanford Department of Psychology. If you have questions about this research, please contact us at stanfordpsych251@gmail.com. You must be at least 18 years old to participate. Your participation in this research is voluntary. You may decline to answer any or all of the following questions. You may decline further participation by closing the window, at any time, without adverse consequences. Your anonymity is assured; the researchers who have requested your participation will not receive any personal information about you.</p>
       <p>Press <b>any key</b> to start the experiment!</p>","","","","","","","","","","","","","","","","","","","","","","","","","","","","",""
"html-keyboard-response","4","30060","0.0-4.0","3029.5"," ","","<h1>Welcome to the Visual Crowding Experiment!</h1>
       <p>This test will take <b>10-12</b> minutes to complete.</p>
       <p>Press any key to start the experiment!</p>","1.12.2021, 08:14:22","1638342862093","","","","","","","","","","","","","","","","","","","","","","","","","","",""
"html-keyboard-response","5","36532","0.0-5.0","6470.900000000023","arrowdown","","<div> 
<p> Before you begin this study, let&#39;s quickly test how far away you are sitting. You might know that vision tests at a doctor&#39;s practice often involve chinrests, the doctor basically asks you to sit away from a screen in a specific distance. We do this here with a <b>virtual chinrest</b>. </p>
<p> Please press the <b>down</b> arrow to continue.
</p>
</div>","","","","","","","","","","","","","","","","","","","","","","","","","","","","",""
"virtual-chinrest","6","117204","0.0-6.0","80669.90000000002","","","","","","85.6","53.98","342","4","479.18","10.208143433511529","33.50266404734033","57.308875416205076","32.23624242161536","","","","","","","","","","","","","","","","","",""
"html-keyboard-response","7","143333","0.0-7.0","26124.800000000047","arrowdown","","
	<h2 class=""bolded-blue"">Now, you will take a peripheral vision test!</h2>
<p> 
	<b>
		<font size=""140%"">1. </font>
	</b>
	<em><b>Please use both eyes for the following task.</b></em> First, you will see a screen (like the one in the image below) showing a <b>black dot</b> in the middle of the screen, with a group of circles displayed on either the <span class=""bolded-blue"">left</span> or <span class=""bolded-blue"">right</span> of the black dot for 150 ms. <span class=""bolded-blue"">Please make sure to focus on the black dot all the time!</span>

	<div>
		<img src=""example.png"" alt=""example"" style=""border: 2px solid black"" width=""600""/> 
	</div>
	
	<b>
		<font size=""140%"">2. </font>
	</b>
	Your task is to identify whether the opening of the <b class=""bolded-blue"">center circle</b> is upward by pressing UP or downward by pressing DOWN on your keyboard. The opening of the circle will only be upward or downward, not towards left or right.

	<div>
		<img src=""arrow_keys+.png"" alt=""arrows"" style=""border: 2px solid black"" width=""600""/>
	</div>
	<br>

<p>Please press the <b>down</b> arrow key to start the <span class=""bolded-blue"">practice task</span> (this first practice task will not count toward your final results).</p>
</p>
","","","","","","","","","","","","","","","","","","","","","","","","","","","","",""
"html-keyboard-response","8","143837","0.0-8.0","null","null","","
    <div style="" display: block;  position: relative;"">
    
    <svg width=1920 height=1080>
    <circle cx=897 cy=540 r=12.382119205437695 stroke=""black"" stroke-width=""1"" fill=""black"" />
    <circle cx=NaN cy=540 r=17.68874172205385 stroke=""none"" stroke-width=""1.5"" fill=""none"" />
    <circle cx=684.89 cy=NaN r=17.68874172205385 stroke=""none"" stroke-width=""1.5"" fill=""none"" />
    <circle cx=NaN cy=540 r=17.68874172205385 stroke=""none"" stroke-width=""1.5"" fill=""none"" />
    <circle cx=684.89 cy=NaN r=17.68874172205385 stroke=""none"" stroke-width=""1.5"" fill=""none"" />
    <polygon points = ""684.89,540 689.8657546027051,557.6887417220538 679.9142453972948,557.6887417220538"" stroke=""none"" stroke-width=""3"" fill = ""none"" />
    
    </svg>
    </div>
        ","","","","","","","","","","","","","","","","","","","","","","","","","","","","",""
"html-keyboard-response","9","143991","0.0-9.0","null","null","","
    <div style="" display: block;  position: relative;"">
    <svg width=1920 height=1080>
    
    <circle cx=897 cy=540 r=12.382119205437695 stroke=""black"" stroke-width=""1"" fill=""black"" />
    <circle cx=1109.1100000000001 cy=540 r=17.68874172205385 stroke=""black"" stroke-width=""1.5"" fill=""none"" />
    <circle cx=1246.9815 cy=540 r=17.68874172205385 stroke=""black"" stroke-width=""1.5"" fill=""none"" />
    <circle cx=1109.1100000000001 cy=677.8715 r=17.68874172205385 stroke=""black"" stroke-width=""1.5"" fill=""none"" />
    <circle cx=971.2385000000002 cy=540 r=17.68874172205385 stroke=""black"" stroke-width=""1.5"" fill=""none"" />
    <circle cx=1109.1100000000001 cy=402.1285 r=17.68874172205385 stroke=""black"" stroke-width=""1.5"" fill=""none"" />
    <polygon points = ""1109.1100000000001,540 1114.0857546027053,522.3112582779462 1104.134245397295,522.3112582779462"" stroke=""white"" stroke-width=""3"" fill = ""white"" />
    
    </svg>
    </div>
        ","","","","","","","","","","","","stimulus","","","","","","","","","","","","","","","","",""
"html-keyboard-response","10","159212","0.0-10.0","15218.300000000047","arrowdown","","
    <div style="" display: block;  position: relative;"">
    
    <svg width=1920 height=1080>
    <circle cx=897 cy=540 r=12.382119205437695 stroke=""black"" stroke-width=""1"" fill=""black"" />
    <circle cx=1246.9815 cy=540 r=17.68874172205385 stroke=""none"" stroke-width=""1.5"" fill=""none"" />
    <circle cx=1109.1100000000001 cy=677.8715 r=17.68874172205385 stroke=""none"" stroke-width=""1.5"" fill=""none"" />
    <circle cx=971.2385000000002 cy=540 r=17.68874172205385 stroke=""none"" stroke-width=""1.5"" fill=""none"" />
    <circle cx=1109.1100000000001 cy=402.1285 r=17.68874172205385 stroke=""none"" stroke-width=""1.5"" fill=""none"" />
    <polygon points = ""1109.1100000000001,540 1114.0857546027053,522.3112582779462 1104.134245397295,522.3112582779462"" stroke=""none"" stroke-width=""3"" fill = ""none"" />
    
    </svg>
    </div>
        ","","","","","","","","","","","","practice_get_response","false","1H4fzfqkHFCs2b3h","137.87150000000003","3.89","false","true","false","212.11","6","508.31000000000006","","","","","","",""
"html-keyboard-response","11","159716","0.0-11.0","null","null","","
    <div style="" display: block;  position: relative;"">
    
    <svg width=1920 height=1080>
    <circle cx=897 cy=540 r=12.382119205437695 stroke=""black"" stroke-width=""1"" fill=""black"" />
    <circle cx=1246.9815 cy=540 r=17.68874172205385 stroke=""none"" stroke-width=""1.5"" fill=""none"" />
    <circle cx=1109.1100000000001 cy=677.8715 r=17.68874172205385 stroke=""none"" stroke-width=""1.5"" fill=""none"" />
    <circle cx=971.2385000000002 cy=540 r=17.68874172205385 stroke=""none"" stroke-width=""1.5"" fill=""none"" />
    <circle cx=1109.1100000000001 cy=402.1285 r=17.68874172205385 stroke=""none"" stroke-width=""1.5"" fill=""none"" />
    <polygon points = ""1109.1100000000001,540 1114.0857546027053,522.3112582779462 1104.134245397295,522.3112582779462"" stroke=""none"" stroke-width=""3"" fill = ""none"" />
    
    </svg>
    </div>
        ","","","","","","","","","","","","","","","","","","","","","","","","","","","","",""
"html-keyboard-response","12","159868","0.0-12.0","null","null","","
    <div style="" display: block;  position: relative;"">
    <svg width=1920 height=1080>
    
    <circle cx=897 cy=540 r=12.382119205437695 stroke=""black"" stroke-width=""1"" fill=""black"" />
    <circle cx=1109.1100000000001 cy=540 r=17.68874172205385 stroke=""black"" stroke-width=""1.5"" fill=""none"" />
    <circle cx=1263.3550331117847 cy=540 r=17.68874172205385 stroke=""black"" stroke-width=""1.5"" fill=""none"" />
    <circle cx=1109.1100000000001 cy=694.2450331117846 r=17.68874172205385 stroke=""black"" stroke-width=""1.5"" fill=""none"" />
    <circle cx=954.8649668882156 cy=540 r=17.68874172205385 stroke=""black"" stroke-width=""1.5"" fill=""none"" />
    <circle cx=1109.1100000000001 cy=385.7549668882154 r=17.68874172205385 stroke=""black"" stroke-width=""1.5"" fill=""none"" />
    <polygon points = ""1109.1100000000001,540 1114.0857546027053,522.3112582779462 1104.134245397295,522.3112582779462"" stroke=""white"" stroke-width=""3"" fill = ""white"" />
    
    </svg>
    </div>
        ","","","","","","","","","","","","stimulus","","","","","","","","","","","","","","","","",""
"html-keyboard-response","13","164757","0.0-13.0","4887.599999999977","arrowdown","","
    <div style="" display: block;  position: relative;"">
    
    <svg width=1920 height=1080>
    <circle cx=897 cy=540 r=12.382119205437695 stroke=""black"" stroke-width=""1"" fill=""black"" />
    <circle cx=1263.3550331117847 cy=540 r=17.68874172205385 stroke=""none"" stroke-width=""1.5"" fill=""none"" />
    <circle cx=1109.1100000000001 cy=694.2450331117846 r=17.68874172205385 stroke=""none"" stroke-width=""1.5"" fill=""none"" />
    <circle cx=954.8649668882156 cy=540 r=17.68874172205385 stroke=""none"" stroke-width=""1.5"" fill=""none"" />
    <circle cx=1109.1100000000001 cy=385.7549668882154 r=17.68874172205385 stroke=""none"" stroke-width=""1.5"" fill=""none"" />
    <polygon points = ""1109.1100000000001,540 1114.0857546027053,522.3112582779462 1104.134245397295,522.3112582779462"" stroke=""none"" stroke-width=""3"" fill = ""none"" />
    
    </svg>
    </div>
        ","","","","","","","","","","","","practice_get_response","false","1H4fzfqkHFCs2b3h","154.2450331117846","4.35","false","true","false","212.11","6","508.31000000000006","","","","","","",""
"html-keyboard-response","14","165260","0.0-14.0","null","null","","
    <div style="" display: block;  position: relative;"">
    
    <svg width=1920 height=1080>
    <circle cx=897 cy=540 r=12.382119205437695 stroke=""black"" stroke-width=""1"" fill=""black"" />
    <circle cx=1263.3550331117847 cy=540 r=17.68874172205385 stroke=""none"" stroke-width=""1.5"" fill=""none"" />
    <circle cx=1109.1100000000001 cy=694.2450331117846 r=17.68874172205385 stroke=""none"" stroke-width=""1.5"" fill=""none"" />
    <circle cx=954.8649668882156 cy=540 r=17.68874172205385 stroke=""none"" stroke-width=""1.5"" fill=""none"" />
    <circle cx=1109.1100000000001 cy=385.7549668882154 r=17.68874172205385 stroke=""none"" stroke-width=""1.5"" fill=""none"" />
    <polygon points = ""1109.1100000000001,540 1114.0857546027053,522.3112582779462 1104.134245397295,522.3112582779462"" stroke=""none"" stroke-width=""3"" fill = ""none"" />
    
    </svg>
    </div>
        ","","","","","","","","","","","","","","","","","","","","","","","","","","","","",""
"html-keyboard-response","15","165412","0.0-15.0","null","null","","
    <div style="" display: block;  position: relative;"">
    <svg width=1920 height=1080>
    
    <circle cx=897 cy=540 r=12.382119205437695 stroke=""black"" stroke-width=""1"" fill=""black"" />
    <circle cx=684.89 cy=540 r=17.68874172205385 stroke=""black"" stroke-width=""1.5"" fill=""none"" />
    <circle cx=839.1350331117847 cy=540 r=17.68874172205385 stroke=""black"" stroke-width=""1.5"" fill=""none"" />
    <circle cx=684.89 cy=694.2450331117846 r=17.68874172205385 stroke=""black"" stroke-width=""1.5"" fill=""none"" />
    <circle cx=530.6449668882153 cy=540 r=17.68874172205385 stroke=""black"" stroke-width=""1.5"" fill=""none"" />
    <circle cx=684.89 cy=385.7549668882154 r=17.68874172205385 stroke=""black"" stroke-width=""1.5"" fill=""none"" />
    <polygon points = ""684.89,540 689.8657546027051,522.3112582779462 679.9142453972948,522.3112582779462"" stroke=""white"" stroke-width=""3"" fill = ""white"" />
    
    </svg>
    </div>
        ","","","","","","","","","","","","stimulus","","","","","","","","","","","","","","","","",""
"html-keyboard-response","16","165915","0.0-16.0","502.20000000006985","arrowup","","
    <div style="" display: block;  position: relative;"">
    
    <svg width=1920 height=1080>
    <circle cx=897 cy=540 r=12.382119205437695 stroke=""black"" stroke-width=""1"" fill=""black"" />
    <circle cx=839.1350331117847 cy=540 r=17.68874172205385 stroke=""none"" stroke-width=""1.5"" fill=""none"" />
    <circle cx=684.89 cy=694.2450331117846 r=17.68874172205385 stroke=""none"" stroke-width=""1.5"" fill=""none"" />
    <circle cx=530.6449668882153 cy=540 r=17.68874172205385 stroke=""none"" stroke-width=""1.5"" fill=""none"" />
    <circle cx=684.89 cy=385.7549668882154 r=17.68874172205385 stroke=""none"" stroke-width=""1.5"" fill=""none"" />
    <polygon points = ""684.89,540 689.8657546027051,522.3112582779462 679.9142453972948,522.3112582779462"" stroke=""none"" stroke-width=""3"" fill = ""none"" />
    
    </svg>
    </div>
        ","","","","","","","","","","","","practice_get_response","true","1H4fzfqkHFCs2b3h","154.2450331117846","4.35","true","true","false","212.11","6","508.31000000000006","","","","","","",""
"html-keyboard-response","17","166420","0.0-17.0","null","null","","
    <div style="" display: block;  position: relative;"">
    
    <svg width=1920 height=1080>
    <circle cx=897 cy=540 r=12.382119205437695 stroke=""black"" stroke-width=""1"" fill=""black"" />
    <circle cx=839.1350331117847 cy=540 r=17.68874172205385 stroke=""none"" stroke-width=""1.5"" fill=""none"" />
    <circle cx=684.89 cy=694.2450331117846 r=17.68874172205385 stroke=""none"" stroke-width=""1.5"" fill=""none"" />
    <circle cx=530.6449668882153 cy=540 r=17.68874172205385 stroke=""none"" stroke-width=""1.5"" fill=""none"" />
    <circle cx=684.89 cy=385.7549668882154 r=17.68874172205385 stroke=""none"" stroke-width=""1.5"" fill=""none"" />
    <polygon points = ""684.89,540 689.8657546027051,522.3112582779462 679.9142453972948,522.3112582779462"" stroke=""none"" stroke-width=""3"" fill = ""none"" />
    
    </svg>
    </div>
        ","","","","","","","","","","","","","","","","","","","","","","","","","","","","",""
"html-keyboard-response","18","166573","0.0-18.0","null","null","","
    <div style="" display: block;  position: relative;"">
    <svg width=1920 height=1080>
    
    <circle cx=897 cy=540 r=12.382119205437695 stroke=""black"" stroke-width=""1"" fill=""black"" />
    <circle cx=684.89 cy=540 r=17.68874172205385 stroke=""black"" stroke-width=""1.5"" fill=""none"" />
    <circle cx=839.1350331117847 cy=540 r=17.68874172205385 stroke=""black"" stroke-width=""1.5"" fill=""none"" />
    <circle cx=684.89 cy=694.2450331117846 r=17.68874172205385 stroke=""black"" stroke-width=""1.5"" fill=""none"" />
    <circle cx=530.6449668882153 cy=540 r=17.68874172205385 stroke=""black"" stroke-width=""1.5"" fill=""none"" />
    <circle cx=684.89 cy=385.7549668882154 r=17.68874172205385 stroke=""black"" stroke-width=""1.5"" fill=""none"" />
    <polygon points = ""684.89,540 689.8657546027051,557.6887417220538 679.9142453972948,557.6887417220538"" stroke=""white"" stroke-width=""3"" fill = ""white"" />
    
    </svg>
    </div>
        ","","","","","","","","","","","","stimulus","","","","","","","","","","","","","","","","",""
"html-keyboard-response","19","166996","0.0-19.0","421.69999999995343","arrowdown","","
    <div style="" display: block;  position: relative;"">
    
    <svg width=1920 height=1080>
    <circle cx=897 cy=540 r=12.382119205437695 stroke=""black"" stroke-width=""1"" fill=""black"" />
    <circle cx=839.1350331117847 cy=540 r=17.68874172205385 stroke=""none"" stroke-width=""1.5"" fill=""none"" />
    <circle cx=684.89 cy=694.2450331117846 r=17.68874172205385 stroke=""none"" stroke-width=""1.5"" fill=""none"" />
    <circle cx=530.6449668882153 cy=540 r=17.68874172205385 stroke=""none"" stroke-width=""1.5"" fill=""none"" />
    <circle cx=684.89 cy=385.7549668882154 r=17.68874172205385 stroke=""none"" stroke-width=""1.5"" fill=""none"" />
    <polygon points = ""684.89,540 689.8657546027051,557.6887417220538 679.9142453972948,557.6887417220538"" stroke=""none"" stroke-width=""3"" fill = ""none"" />
    
    </svg>
    </div>
        ","","","","","","","","","","","","practice_get_response","true","1H4fzfqkHFCs2b3h","154.2450331117846","4.35","true","false","false","212.11","6","508.31000000000006","","","","","","",""
"html-keyboard-response","20","167498","0.0-20.0","null","null","","
    <div style="" display: block;  position: relative;"">
    
    <svg width=1920 height=1080>
    <circle cx=897 cy=540 r=12.382119205437695 stroke=""black"" stroke-width=""1"" fill=""black"" />
    <circle cx=839.1350331117847 cy=540 r=17.68874172205385 stroke=""none"" stroke-width=""1.5"" fill=""none"" />
    <circle cx=684.89 cy=694.2450331117846 r=17.68874172205385 stroke=""none"" stroke-width=""1.5"" fill=""none"" />
    <circle cx=530.6449668882153 cy=540 r=17.68874172205385 stroke=""none"" stroke-width=""1.5"" fill=""none"" />
    <circle cx=684.89 cy=385.7549668882154 r=17.68874172205385 stroke=""none"" stroke-width=""1.5"" fill=""none"" />
    <polygon points = ""684.89,540 689.8657546027051,557.6887417220538 679.9142453972948,557.6887417220538"" stroke=""none"" stroke-width=""3"" fill = ""none"" />
    
    </svg>
    </div>
        ","","","","","","","","","","","","","","","","","","","","","","","","","","","","",""
"html-keyboard-response","21","167650","0.0-21.0","null","null","","
    <div style="" display: block;  position: relative;"">
    <svg width=1920 height=1080>
    
    <circle cx=897 cy=540 r=12.382119205437695 stroke=""black"" stroke-width=""1"" fill=""black"" />
    <circle cx=1109.1100000000001 cy=540 r=17.68874172205385 stroke=""black"" stroke-width=""1.5"" fill=""none"" />
    <circle cx=1263.3550331117847 cy=540 r=17.68874172205385 stroke=""black"" stroke-width=""1.5"" fill=""none"" />
    <circle cx=1109.1100000000001 cy=694.2450331117846 r=17.68874172205385 stroke=""black"" stroke-width=""1.5"" fill=""none"" />
    <circle cx=954.8649668882156 cy=540 r=17.68874172205385 stroke=""black"" stroke-width=""1.5"" fill=""none"" />
    <circle cx=1109.1100000000001 cy=385.7549668882154 r=17.68874172205385 stroke=""black"" stroke-width=""1.5"" fill=""none"" />
    <polygon points = ""1109.1100000000001,540 1114.0857546027053,522.3112582779462 1104.134245397295,522.3112582779462"" stroke=""white"" stroke-width=""3"" fill = ""white"" />
    
    </svg>
    </div>
        ","","","","","","","","","","","","stimulus","","","","","","","","","","","","","","","","",""
"html-keyboard-response","22","168092","0.0-22.0","440.4000000000233","arrowup","","
    <div style="" display: block;  position: relative;"">
    
    <svg width=1920 height=1080>
    <circle cx=897 cy=540 r=12.382119205437695 stroke=""black"" stroke-width=""1"" fill=""black"" />
    <circle cx=1263.3550331117847 cy=540 r=17.68874172205385 stroke=""none"" stroke-width=""1.5"" fill=""none"" />
    <circle cx=1109.1100000000001 cy=694.2450331117846 r=17.68874172205385 stroke=""none"" stroke-width=""1.5"" fill=""none"" />
    <circle cx=954.8649668882156 cy=540 r=17.68874172205385 stroke=""none"" stroke-width=""1.5"" fill=""none"" />
    <circle cx=1109.1100000000001 cy=385.7549668882154 r=17.68874172205385 stroke=""none"" stroke-width=""1.5"" fill=""none"" />
    <polygon points = ""1109.1100000000001,540 1114.0857546027053,522.3112582779462 1104.134245397295,522.3112582779462"" stroke=""none"" stroke-width=""3"" fill = ""none"" />
    
    </svg>
    </div>
        ","","","","","","","","","","","","practice_get_response","true","1H4fzfqkHFCs2b3h","154.2450331117846","4.35","false","true","false","212.11","6","508.31000000000006","","","","","","",""
"html-keyboard-response","23","170836","0.0-23.0","2742.70000000007","arrowdown","","<div> 
<h2 class=""bolded-blue"">Well done!</h2>
<p> Now that you have the hang of it, we&#39;ll start the study. This session has 25 trials and takes about 2 minute to complete. </p> 
<p>If you are ready for the real deal, please press the <b>down</b> arrow to continue.
</p>
</div>","","","","","","","","","","","","","","","","","","","","","","","","","","","","",""
"html-keyboard-response","24","173339","0.0-24.0","2501.4000000000233","arrowdown","","<div id=""continue""> 
<p>Again, please keep the <b>full screen</b> mode for the best experience.</p>
<p>Please do not move around and keep your eye on the black dot. Click <b>up</b> or <b>down</b> key on your keyboard to indicate the opening of the center circle. Make your best guess!</p>
<p>Please press the <b>down</b> arrow key to start the session 1. </p>
</div>","","","","","","","","","","","","","","","","","","","","","","","","","","","","",""
"html-keyboard-response","25","173839","0.0-25.0","null","null","","
    <div style="" display: block;  position: relative;"">
    
    <svg width=1920 height=1080>
    <circle cx=897 cy=540 r=12.382119205437695 stroke=""black"" stroke-width=""1"" fill=""black"" />
    <circle cx=839.1350331117847 cy=540 r=17.68874172205385 stroke=""none"" stroke-width=""1.5"" fill=""none"" />
    <circle cx=684.89 cy=694.2450331117846 r=17.68874172205385 stroke=""none"" stroke-width=""1.5"" fill=""none"" />
    <circle cx=530.6449668882153 cy=540 r=17.68874172205385 stroke=""none"" stroke-width=""1.5"" fill=""none"" />
    <circle cx=684.89 cy=385.7549668882154 r=17.68874172205385 stroke=""none"" stroke-width=""1.5"" fill=""none"" />
    <polygon points = ""684.89,540 689.8657546027051,557.6887417220538 679.9142453972948,557.6887417220538"" stroke=""none"" stroke-width=""3"" fill = ""none"" />
    
    </svg>
    </div>
        ","","","","","","","","","","","","","","","","","","","","","","","","","","","","",""
"html-keyboard-response","26","173991","0.0-26.0","null","null","","
    <div style="" display: block;  position: relative;"">
    <svg width=1920 height=1080>
    
    <circle cx=897 cy=540 r=12.382119205437695 stroke=""black"" stroke-width=""1"" fill=""black"" />
    <circle cx=684.89 cy=540 r=17.68874172205385 stroke=""black"" stroke-width=""1.5"" fill=""none"" />
    <circle cx=822.7615000000001 cy=540 r=17.68874172205385 stroke=""black"" stroke-width=""1.5"" fill=""none"" />
    <circle cx=684.89 cy=677.8715 r=17.68874172205385 stroke=""black"" stroke-width=""1.5"" fill=""none"" />
    <circle cx=547.0184999999999 cy=540 r=17.68874172205385 stroke=""black"" stroke-width=""1.5"" fill=""none"" />
    <circle cx=684.89 cy=402.1285 r=17.68874172205385 stroke=""black"" stroke-width=""1.5"" fill=""none"" />
    <polygon points = ""684.89,540 689.8657546027051,557.6887417220538 679.9142453972948,557.6887417220538"" stroke=""white"" stroke-width=""3"" fill = ""white"" />
    
    </svg>
    </div>
        ","","","","","","","","","","","","stimulus","","","","","","","","","","","","","","","","",""
"html-keyboard-response","27","174675","0.0-27.0","683.5","arrowdown","","
    <div style="" display: block;  position: relative;"">
    
    <svg width=1920 height=1080>
    <circle cx=897 cy=540 r=12.382119205437695 stroke=""black"" stroke-width=""1"" fill=""black"" />
    <circle cx=822.7615000000001 cy=540 r=17.68874172205385 stroke=""none"" stroke-width=""1.5"" fill=""none"" />
    <circle cx=684.89 cy=677.8715 r=17.68874172205385 stroke=""none"" stroke-width=""1.5"" fill=""none"" />
    <circle cx=547.0184999999999 cy=540 r=17.68874172205385 stroke=""none"" stroke-width=""1.5"" fill=""none"" />
    <circle cx=684.89 cy=402.1285 r=17.68874172205385 stroke=""none"" stroke-width=""1.5"" fill=""none"" />
    <polygon points = ""684.89,540 689.8657546027051,557.6887417220538 679.9142453972948,557.6887417220538"" stroke=""none"" stroke-width=""3"" fill = ""none"" />
    
    </svg>
    </div>
        ","","","","","","","","","","","","get_response","true","1H4fzfqkHFCs2b3h","","","true","false","false","212.11","6","508.31000000000006","137.87150000000003","3.89","1","0","","",""
"html-keyboard-response","28","175178","0.0-28.0","null","null","","
    <div style="" display: block;  position: relative;"">
    
    <svg width=1920 height=1080>
    <circle cx=897 cy=540 r=12.382119205437695 stroke=""black"" stroke-width=""1"" fill=""black"" />
    <circle cx=822.7615000000001 cy=540 r=17.68874172205385 stroke=""none"" stroke-width=""1.5"" fill=""none"" />
    <circle cx=684.89 cy=677.8715 r=17.68874172205385 stroke=""none"" stroke-width=""1.5"" fill=""none"" />
    <circle cx=547.0184999999999 cy=540 r=17.68874172205385 stroke=""none"" stroke-width=""1.5"" fill=""none"" />
    <circle cx=684.89 cy=402.1285 r=17.68874172205385 stroke=""none"" stroke-width=""1.5"" fill=""none"" />
    <polygon points = ""684.89,540 689.8657546027051,557.6887417220538 679.9142453972948,557.6887417220538"" stroke=""none"" stroke-width=""3"" fill = ""none"" />
    
    </svg>
    </div>
        ","","","","","","","","","","","","","","","","","","","","","","","","","","","","",""
"html-keyboard-response","29","175329","0.0-29.0","null","null","","
    <div style="" display: block;  position: relative;"">
    <svg width=1920 height=1080>
    
    <circle cx=897 cy=540 r=12.382119205437695 stroke=""black"" stroke-width=""1"" fill=""black"" />
    <circle cx=684.89 cy=540 r=17.68874172205385 stroke=""black"" stroke-width=""1.5"" fill=""none"" />
    <circle cx=822.7615000000001 cy=540 r=17.68874172205385 stroke=""black"" stroke-width=""1.5"" fill=""none"" />
    <circle cx=684.89 cy=677.8715 r=17.68874172205385 stroke=""black"" stroke-width=""1.5"" fill=""none"" />
    <circle cx=547.0184999999999 cy=540 r=17.68874172205385 stroke=""black"" stroke-width=""1.5"" fill=""none"" />
    <circle cx=684.89 cy=402.1285 r=17.68874172205385 stroke=""black"" stroke-width=""1.5"" fill=""none"" />
    <polygon points = ""684.89,540 689.8657546027051,522.3112582779462 679.9142453972948,522.3112582779462"" stroke=""white"" stroke-width=""3"" fill = ""white"" />
    
    </svg>
    </div>
        ","","","","","","","","","","","","stimulus","","","","","","","","","","","","","","","","",""
"html-keyboard-response","30","175708","0.0-30.0","377.5","arrowup","","
    <div style="" display: block;  position: relative;"">
    
    <svg width=1920 height=1080>
    <circle cx=897 cy=540 r=12.382119205437695 stroke=""black"" stroke-width=""1"" fill=""black"" />
    <circle cx=822.7615000000001 cy=540 r=17.68874172205385 stroke=""none"" stroke-width=""1.5"" fill=""none"" />
    <circle cx=684.89 cy=677.8715 r=17.68874172205385 stroke=""none"" stroke-width=""1.5"" fill=""none"" />
    <circle cx=547.0184999999999 cy=540 r=17.68874172205385 stroke=""none"" stroke-width=""1.5"" fill=""none"" />
    <circle cx=684.89 cy=402.1285 r=17.68874172205385 stroke=""none"" stroke-width=""1.5"" fill=""none"" />
    <polygon points = ""684.89,540 689.8657546027051,522.3112582779462 679.9142453972948,522.3112582779462"" stroke=""none"" stroke-width=""3"" fill = ""none"" />
    
    </svg>
    </div>
        ","","","","","","","","","","","","get_response","true","1H4fzfqkHFCs2b3h","","","true","true","false","212.11","6","508.31000000000006","137.87150000000003","3.89","1","0","","",""
"html-keyboard-response","31","176209","0.0-31.0","null","null","","
    <div style="" display: block;  position: relative;"">
    
    <svg width=1920 height=1080>
    <circle cx=897 cy=540 r=12.382119205437695 stroke=""black"" stroke-width=""1"" fill=""black"" />
    <circle cx=822.7615000000001 cy=540 r=17.68874172205385 stroke=""none"" stroke-width=""1.5"" fill=""none"" />
    <circle cx=684.89 cy=677.8715 r=17.68874172205385 stroke=""none"" stroke-width=""1.5"" fill=""none"" />
    <circle cx=547.0184999999999 cy=540 r=17.68874172205385 stroke=""none"" stroke-width=""1.5"" fill=""none"" />
    <circle cx=684.89 cy=402.1285 r=17.68874172205385 stroke=""none"" stroke-width=""1.5"" fill=""none"" />
    <polygon points = ""684.89,540 689.8657546027051,522.3112582779462 679.9142453972948,522.3112582779462"" stroke=""none"" stroke-width=""3"" fill = ""none"" />
    
    </svg>
    </div>
        ","","","","","","","","","","","","","","","","","","","","","","","","","","","","",""
"html-keyboard-response","32","176361","0.0-32.0","null","null","","
    <div style="" display: block;  position: relative;"">
    <svg width=1920 height=1080>
    
    <circle cx=897 cy=540 r=12.382119205437695 stroke=""black"" stroke-width=""1"" fill=""black"" />
    <circle cx=684.89 cy=540 r=17.68874172205385 stroke=""black"" stroke-width=""1.5"" fill=""none"" />
    <circle cx=822.7615000000001 cy=540 r=17.68874172205385 stroke=""black"" stroke-width=""1.5"" fill=""none"" />
    <circle cx=684.89 cy=677.8715 r=17.68874172205385 stroke=""black"" stroke-width=""1.5"" fill=""none"" />
    <circle cx=547.0184999999999 cy=540 r=17.68874172205385 stroke=""black"" stroke-width=""1.5"" fill=""none"" />
    <circle cx=684.89 cy=402.1285 r=17.68874172205385 stroke=""black"" stroke-width=""1.5"" fill=""none"" />
    <polygon points = ""684.89,540 689.8657546027051,522.3112582779462 679.9142453972948,522.3112582779462"" stroke=""white"" stroke-width=""3"" fill = ""white"" />
    
    </svg>
    </div>
        ","","","","","","","","","","","","stimulus","","","","","","","","","","","","","","","","",""
"html-keyboard-response","33","176795","0.0-33.0","433.5999999999767","arrowup","","
    <div style="" display: block;  position: relative;"">
    
    <svg width=1920 height=1080>
    <circle cx=897 cy=540 r=12.382119205437695 stroke=""black"" stroke-width=""1"" fill=""black"" />
    <circle cx=822.7615000000001 cy=540 r=17.68874172205385 stroke=""none"" stroke-width=""1.5"" fill=""none"" />
    <circle cx=684.89 cy=677.8715 r=17.68874172205385 stroke=""none"" stroke-width=""1.5"" fill=""none"" />
    <circle cx=547.0184999999999 cy=540 r=17.68874172205385 stroke=""none"" stroke-width=""1.5"" fill=""none"" />
    <circle cx=684.89 cy=402.1285 r=17.68874172205385 stroke=""none"" stroke-width=""1.5"" fill=""none"" />
    <polygon points = ""684.89,540 689.8657546027051,522.3112582779462 679.9142453972948,522.3112582779462"" stroke=""none"" stroke-width=""3"" fill = ""none"" />
    
    </svg>
    </div>
        ","","","","","","","","","","","","get_response","true","1H4fzfqkHFCs2b3h","","","true","true","false","212.11","6","508.31000000000006","137.87150000000003","3.89","1","0","","",""
"html-keyboard-response","34","177297","0.0-34.0","null","null","","
    <div style="" display: block;  position: relative;"">
    
    <svg width=1920 height=1080>
    <circle cx=897 cy=540 r=12.382119205437695 stroke=""black"" stroke-width=""1"" fill=""black"" />
    <circle cx=822.7615000000001 cy=540 r=17.68874172205385 stroke=""none"" stroke-width=""1.5"" fill=""none"" />
    <circle cx=684.89 cy=677.8715 r=17.68874172205385 stroke=""none"" stroke-width=""1.5"" fill=""none"" />
    <circle cx=547.0184999999999 cy=540 r=17.68874172205385 stroke=""none"" stroke-width=""1.5"" fill=""none"" />
    <circle cx=684.89 cy=402.1285 r=17.68874172205385 stroke=""none"" stroke-width=""1.5"" fill=""none"" />
    <polygon points = ""684.89,540 689.8657546027051,522.3112582779462 679.9142453972948,522.3112582779462"" stroke=""none"" stroke-width=""3"" fill = ""none"" />
    
    </svg>
    </div>
        ","","","","","","","","","","","","","","","","","","","","","","","","","","","","",""
"html-keyboard-response","35","177449","0.0-35.0","null","null","","
    <div style="" display: block;  position: relative;"">
    <svg width=1920 height=1080>
    
    <circle cx=897 cy=540 r=12.382119205437695 stroke=""black"" stroke-width=""1"" fill=""black"" />
    <circle cx=1109.1100000000001 cy=540 r=17.68874172205385 stroke=""black"" stroke-width=""1.5"" fill=""none"" />
    <circle cx=1234.4477272727274 cy=540 r=17.68874172205385 stroke=""black"" stroke-width=""1.5"" fill=""none"" />
    <circle cx=1109.1100000000001 cy=665.3377272727273 r=17.68874172205385 stroke=""black"" stroke-width=""1.5"" fill=""none"" />
    <circle cx=983.7722727272728 cy=540 r=17.68874172205385 stroke=""black"" stroke-width=""1.5"" fill=""none"" />
    <circle cx=1109.1100000000001 cy=414.6622727272727 r=17.68874172205385 stroke=""black"" stroke-width=""1.5"" fill=""none"" />
    <polygon points = ""1109.1100000000001,540 1114.0857546027053,522.3112582779462 1104.134245397295,522.3112582779462"" stroke=""white"" stroke-width=""3"" fill = ""white"" />
    
    </svg>
    </div>
        ","","","","","","","","","","","","stimulus","","","","","","","","","","","","","","","","",""
"html-keyboard-response","36","178243","0.0-36.0","793.0999999999767","arrowup","","
    <div style="" display: block;  position: relative;"">
    
    <svg width=1920 height=1080>
    <circle cx=897 cy=540 r=12.382119205437695 stroke=""black"" stroke-width=""1"" fill=""black"" />
    <circle cx=1234.4477272727274 cy=540 r=17.68874172205385 stroke=""none"" stroke-width=""1.5"" fill=""none"" />
    <circle cx=1109.1100000000001 cy=665.3377272727273 r=17.68874172205385 stroke=""none"" stroke-width=""1.5"" fill=""none"" />
    <circle cx=983.7722727272728 cy=540 r=17.68874172205385 stroke=""none"" stroke-width=""1.5"" fill=""none"" />
    <circle cx=1109.1100000000001 cy=414.6622727272727 r=17.68874172205385 stroke=""none"" stroke-width=""1.5"" fill=""none"" />
    <polygon points = ""1109.1100000000001,540 1114.0857546027053,522.3112582779462 1104.134245397295,522.3112582779462"" stroke=""none"" stroke-width=""3"" fill = ""none"" />
    
    </svg>
    </div>
        ","","","","","","","","","","","","get_response","true","1H4fzfqkHFCs2b3h","","","false","true","false","212.11","6","508.31000000000006","125.33772727272729","3.54","1","0","","",""
"html-keyboard-response","37","178744","0.0-37.0","null","null","","
    <div style="" display: block;  position: relative;"">
    
    <svg width=1920 height=1080>
    <circle cx=897 cy=540 r=12.382119205437695 stroke=""black"" stroke-width=""1"" fill=""black"" />
    <circle cx=1234.4477272727274 cy=540 r=17.68874172205385 stroke=""none"" stroke-width=""1.5"" fill=""none"" />
    <circle cx=1109.1100000000001 cy=665.3377272727273 r=17.68874172205385 stroke=""none"" stroke-width=""1.5"" fill=""none"" />
    <circle cx=983.7722727272728 cy=540 r=17.68874172205385 stroke=""none"" stroke-width=""1.5"" fill=""none"" />
    <circle cx=1109.1100000000001 cy=414.6622727272727 r=17.68874172205385 stroke=""none"" stroke-width=""1.5"" fill=""none"" />
    <polygon points = ""1109.1100000000001,540 1114.0857546027053,522.3112582779462 1104.134245397295,522.3112582779462"" stroke=""none"" stroke-width=""3"" fill = ""none"" />
    
    </svg>
    </div>
        ","","","","","","","","","","","","","","","","","","","","","","","","","","","","",""
"html-keyboard-response","38","178896","0.0-38.0","null","null","","
    <div style="" display: block;  position: relative;"">
    <svg width=1920 height=1080>
    
    <circle cx=897 cy=540 r=12.382119205437695 stroke=""black"" stroke-width=""1"" fill=""black"" />
    <circle cx=1109.1100000000001 cy=540 r=17.68874172205385 stroke=""black"" stroke-width=""1.5"" fill=""none"" />
    <circle cx=1223.0533884297522 cy=540 r=17.68874172205385 stroke=""black"" stroke-width=""1.5"" fill=""none"" />
    <circle cx=1109.1100000000001 cy=653.9433884297521 r=17.68874172205385 stroke=""black"" stroke-width=""1.5"" fill=""none"" />
    <circle cx=995.166611570248 cy=540 r=17.68874172205385 stroke=""black"" stroke-width=""1.5"" fill=""none"" />
    <circle cx=1109.1100000000001 cy=426.0566115702479 r=17.68874172205385 stroke=""black"" stroke-width=""1.5"" fill=""none"" />
    <polygon points = ""1109.1100000000001,540 1114.0857546027053,522.3112582779462 1104.134245397295,522.3112582779462"" stroke=""white"" stroke-width=""3"" fill = ""white"" />
    
    </svg>
    </div>
        ","","","","","","","","","","","","stimulus","","","","","","","","","","","","","","","","",""
"html-keyboard-response","39","179315","0.0-39.0","417.5","arrowup","","
    <div style="" display: block;  position: relative;"">
    
    <svg width=1920 height=1080>
    <circle cx=897 cy=540 r=12.382119205437695 stroke=""black"" stroke-width=""1"" fill=""black"" />
    <circle cx=1223.0533884297522 cy=540 r=17.68874172205385 stroke=""none"" stroke-width=""1.5"" fill=""none"" />
    <circle cx=1109.1100000000001 cy=653.9433884297521 r=17.68874172205385 stroke=""none"" stroke-width=""1.5"" fill=""none"" />
    <circle cx=995.166611570248 cy=540 r=17.68874172205385 stroke=""none"" stroke-width=""1.5"" fill=""none"" />
    <circle cx=1109.1100000000001 cy=426.0566115702479 r=17.68874172205385 stroke=""none"" stroke-width=""1.5"" fill=""none"" />
    <polygon points = ""1109.1100000000001,540 1114.0857546027053,522.3112582779462 1104.134245397295,522.3112582779462"" stroke=""none"" stroke-width=""3"" fill = ""none"" />
    
    </svg>
    </div>
        ","","","","","","","","","","","","get_response","true","1H4fzfqkHFCs2b3h","","","false","true","false","212.11","6","508.31000000000006","113.94338842975208","3.21","1","0","","",""
"html-keyboard-response","40","179816","0.0-40.0","null","null","","
    <div style="" display: block;  position: relative;"">
    
    <svg width=1920 height=1080>
    <circle cx=897 cy=540 r=12.382119205437695 stroke=""black"" stroke-width=""1"" fill=""black"" />
    <circle cx=1223.0533884297522 cy=540 r=17.68874172205385 stroke=""none"" stroke-width=""1.5"" fill=""none"" />
    <circle cx=1109.1100000000001 cy=653.9433884297521 r=17.68874172205385 stroke=""none"" stroke-width=""1.5"" fill=""none"" />
    <circle cx=995.166611570248 cy=540 r=17.68874172205385 stroke=""none"" stroke-width=""1.5"" fill=""none"" />
    <circle cx=1109.1100000000001 cy=426.0566115702479 r=17.68874172205385 stroke=""none"" stroke-width=""1.5"" fill=""none"" />
    <polygon points = ""1109.1100000000001,540 1114.0857546027053,522.3112582779462 1104.134245397295,522.3112582779462"" stroke=""none"" stroke-width=""3"" fill = ""none"" />
    
    </svg>
    </div>
        ","","","","","","","","","","","","","","","","","","","","","","","","","","","","",""
"html-keyboard-response","41","179968","0.0-41.0","null","null","","
    <div style="" display: block;  position: relative;"">
    <svg width=1920 height=1080>
    
    <circle cx=897 cy=540 r=12.382119205437695 stroke=""black"" stroke-width=""1"" fill=""black"" />
    <circle cx=1109.1100000000001 cy=540 r=17.68874172205385 stroke=""black"" stroke-width=""1.5"" fill=""none"" />
    <circle cx=1212.694898572502 cy=540 r=17.68874172205385 stroke=""black"" stroke-width=""1.5"" fill=""none"" />
    <circle cx=1109.1100000000001 cy=643.5848985725019 r=17.68874172205385 stroke=""black"" stroke-width=""1.5"" fill=""none"" />
    <circle cx=1005.5251014274983 cy=540 r=17.68874172205385 stroke=""black"" stroke-width=""1.5"" fill=""none"" />
    <circle cx=1109.1100000000001 cy=436.41510142749814 r=17.68874172205385 stroke=""black"" stroke-width=""1.5"" fill=""none"" />
    <polygon points = ""1109.1100000000001,540 1114.0857546027053,522.3112582779462 1104.134245397295,522.3112582779462"" stroke=""white"" stroke-width=""3"" fill = ""white"" />
    
    </svg>
    </div>
        ","","","","","","","","","","","","stimulus","","","","","","","","","","","","","","","","",""
"html-keyboard-response","42","180267","0.0-42.0","298.19999999995343","arrowup","","
    <div style="" display: block;  position: relative;"">
    
    <svg width=1920 height=1080>
    <circle cx=897 cy=540 r=12.382119205437695 stroke=""black"" stroke-width=""1"" fill=""black"" />
    <circle cx=1212.694898572502 cy=540 r=17.68874172205385 stroke=""none"" stroke-width=""1.5"" fill=""none"" />
    <circle cx=1109.1100000000001 cy=643.5848985725019 r=17.68874172205385 stroke=""none"" stroke-width=""1.5"" fill=""none"" />
    <circle cx=1005.5251014274983 cy=540 r=17.68874172205385 stroke=""none"" stroke-width=""1.5"" fill=""none"" />
    <circle cx=1109.1100000000001 cy=436.41510142749814 r=17.68874172205385 stroke=""none"" stroke-width=""1.5"" fill=""none"" />
    <polygon points = ""1109.1100000000001,540 1114.0857546027053,522.3112582779462 1104.134245397295,522.3112582779462"" stroke=""none"" stroke-width=""3"" fill = ""none"" />
    
    </svg>
    </div>
        ","","","","","","","","","","","","get_response","true","1H4fzfqkHFCs2b3h","","","false","true","false","212.11","6","508.31000000000006","103.58489857250188","2.92","1","0","","",""
"html-keyboard-response","43","180768","0.0-43.0","null","null","","
    <div style="" display: block;  position: relative;"">
    
    <svg width=1920 height=1080>
    <circle cx=897 cy=540 r=12.382119205437695 stroke=""black"" stroke-width=""1"" fill=""black"" />
    <circle cx=1212.694898572502 cy=540 r=17.68874172205385 stroke=""none"" stroke-width=""1.5"" fill=""none"" />
    <circle cx=1109.1100000000001 cy=643.5848985725019 r=17.68874172205385 stroke=""none"" stroke-width=""1.5"" fill=""none"" />
    <circle cx=1005.5251014274983 cy=540 r=17.68874172205385 stroke=""none"" stroke-width=""1.5"" fill=""none"" />
    <circle cx=1109.1100000000001 cy=436.41510142749814 r=17.68874172205385 stroke=""none"" stroke-width=""1.5"" fill=""none"" />
    <polygon points = ""1109.1100000000001,540 1114.0857546027053,522.3112582779462 1104.134245397295,522.3112582779462"" stroke=""none"" stroke-width=""3"" fill = ""none"" />
    
    </svg>
    </div>
        ","","","","","","","","","","","","","","","","","","","","","","","","","","","","",""
"html-keyboard-response","44","180919","0.0-44.0","null","null","","
    <div style="" display: block;  position: relative;"">
    <svg width=1920 height=1080>
    
    <circle cx=897 cy=540 r=12.382119205437695 stroke=""black"" stroke-width=""1"" fill=""black"" />
    <circle cx=684.89 cy=540 r=17.68874172205385 stroke=""black"" stroke-width=""1.5"" fill=""none"" />
    <circle cx=779.0580896113653 cy=540 r=17.68874172205385 stroke=""black"" stroke-width=""1.5"" fill=""none"" />
    <circle cx=684.89 cy=634.1680896113653 r=17.68874172205385 stroke=""black"" stroke-width=""1.5"" fill=""none"" />
    <circle cx=590.7219103886347 cy=540 r=17.68874172205385 stroke=""black"" stroke-width=""1.5"" fill=""none"" />
    <circle cx=684.89 cy=445.83191038863464 r=17.68874172205385 stroke=""black"" stroke-width=""1.5"" fill=""none"" />
    <polygon points = ""684.89,540 689.8657546027051,557.6887417220538 679.9142453972948,557.6887417220538"" stroke=""white"" stroke-width=""3"" fill = ""white"" />
    
    </svg>
    </div>
        ","","","","","","","","","","","","stimulus","","","","","","","","","","","","","","","","",""
"html-keyboard-response","45","181267","0.0-45.0","347","arrowdown","","
    <div style="" display: block;  position: relative;"">
    
    <svg width=1920 height=1080>
    <circle cx=897 cy=540 r=12.382119205437695 stroke=""black"" stroke-width=""1"" fill=""black"" />
    <circle cx=779.0580896113653 cy=540 r=17.68874172205385 stroke=""none"" stroke-width=""1.5"" fill=""none"" />
    <circle cx=684.89 cy=634.1680896113653 r=17.68874172205385 stroke=""none"" stroke-width=""1.5"" fill=""none"" />
    <circle cx=590.7219103886347 cy=540 r=17.68874172205385 stroke=""none"" stroke-width=""1.5"" fill=""none"" />
    <circle cx=684.89 cy=445.83191038863464 r=17.68874172205385 stroke=""none"" stroke-width=""1.5"" fill=""none"" />
    <polygon points = ""684.89,540 689.8657546027051,557.6887417220538 679.9142453972948,557.6887417220538"" stroke=""none"" stroke-width=""3"" fill = ""none"" />
    
    </svg>
    </div>
        ","","","","","","","","","","","","get_response","true","1H4fzfqkHFCs2b3h","","","true","false","false","212.11","6","508.31000000000006","94.16808961136535","2.66","1","0","","",""
"html-keyboard-response","46","181769","0.0-46.0","null","null","","
    <div style="" display: block;  position: relative;"">
    
    <svg width=1920 height=1080>
    <circle cx=897 cy=540 r=12.382119205437695 stroke=""black"" stroke-width=""1"" fill=""black"" />
    <circle cx=779.0580896113653 cy=540 r=17.68874172205385 stroke=""none"" stroke-width=""1.5"" fill=""none"" />
    <circle cx=684.89 cy=634.1680896113653 r=17.68874172205385 stroke=""none"" stroke-width=""1.5"" fill=""none"" />
    <circle cx=590.7219103886347 cy=540 r=17.68874172205385 stroke=""none"" stroke-width=""1.5"" fill=""none"" />
    <circle cx=684.89 cy=445.83191038863464 r=17.68874172205385 stroke=""none"" stroke-width=""1.5"" fill=""none"" />
    <polygon points = ""684.89,540 689.8657546027051,557.6887417220538 679.9142453972948,557.6887417220538"" stroke=""none"" stroke-width=""3"" fill = ""none"" />
    
    </svg>
    </div>
        ","","","","","","","","","","","","","","","","","","","","","","","","","","","","",""
"html-keyboard-response","47","181921","0.0-47.0","null","null","","
    <div style="" display: block;  position: relative;"">
    <svg width=1920 height=1080>
    
    <circle cx=897 cy=540 r=12.382119205437695 stroke=""black"" stroke-width=""1"" fill=""black"" />
    <circle cx=1109.1100000000001 cy=540 r=17.68874172205385 stroke=""black"" stroke-width=""1.5"" fill=""none"" />
    <circle cx=1194.7173541921504 cy=540 r=17.68874172205385 stroke=""black"" stroke-width=""1.5"" fill=""none"" />
    <circle cx=1109.1100000000001 cy=625.6073541921503 r=17.68874172205385 stroke=""black"" stroke-width=""1.5"" fill=""none"" />
    <circle cx=1023.5026458078498 cy=540 r=17.68874172205385 stroke=""black"" stroke-width=""1.5"" fill=""none"" />
    <circle cx=1109.1100000000001 cy=454.3926458078497 r=17.68874172205385 stroke=""black"" stroke-width=""1.5"" fill=""none"" />
    <polygon points = ""1109.1100000000001,540 1114.0857546027053,522.3112582779462 1104.134245397295,522.3112582779462"" stroke=""white"" stroke-width=""3"" fill = ""white"" />
    
    </svg>
    </div>
        ","","","","","","","","","","","","stimulus","","","","","","","","","","","","","","","","",""
"html-keyboard-response","48","182227","0.0-48.0","305.0999999999767","arrowup","","
    <div style="" display: block;  position: relative;"">
    
    <svg width=1920 height=1080>
    <circle cx=897 cy=540 r=12.382119205437695 stroke=""black"" stroke-width=""1"" fill=""black"" />
    <circle cx=1194.7173541921504 cy=540 r=17.68874172205385 stroke=""none"" stroke-width=""1.5"" fill=""none"" />
    <circle cx=1109.1100000000001 cy=625.6073541921503 r=17.68874172205385 stroke=""none"" stroke-width=""1.5"" fill=""none"" />
    <circle cx=1023.5026458078498 cy=540 r=17.68874172205385 stroke=""none"" stroke-width=""1.5"" fill=""none"" />
    <circle cx=1109.1100000000001 cy=454.3926458078497 r=17.68874172205385 stroke=""none"" stroke-width=""1.5"" fill=""none"" />
    <polygon points = ""1109.1100000000001,540 1114.0857546027053,522.3112582779462 1104.134245397295,522.3112582779462"" stroke=""none"" stroke-width=""3"" fill = ""none"" />
    
    </svg>
    </div>
        ","","","","","","","","","","","","get_response","true","1H4fzfqkHFCs2b3h","","","false","true","false","212.11","6","508.31000000000006","85.60735419215031","2.41","1","0","","",""
"html-keyboard-response","49","182728","0.0-49.0","null","null","","
    <div style="" display: block;  position: relative;"">
    
    <svg width=1920 height=1080>
    <circle cx=897 cy=540 r=12.382119205437695 stroke=""black"" stroke-width=""1"" fill=""black"" />
    <circle cx=1194.7173541921504 cy=540 r=17.68874172205385 stroke=""none"" stroke-width=""1.5"" fill=""none"" />
    <circle cx=1109.1100000000001 cy=625.6073541921503 r=17.68874172205385 stroke=""none"" stroke-width=""1.5"" fill=""none"" />
    <circle cx=1023.5026458078498 cy=540 r=17.68874172205385 stroke=""none"" stroke-width=""1.5"" fill=""none"" />
    <circle cx=1109.1100000000001 cy=454.3926458078497 r=17.68874172205385 stroke=""none"" stroke-width=""1.5"" fill=""none"" />
    <polygon points = ""1109.1100000000001,540 1114.0857546027053,522.3112582779462 1104.134245397295,522.3112582779462"" stroke=""none"" stroke-width=""3"" fill = ""none"" />
    
    </svg>
    </div>
        ","","","","","","","","","","","","","","","","","","","","","","","","","","","","",""
"html-keyboard-response","50","182880","0.0-50.0","null","null","","
    <div style="" display: block;  position: relative;"">
    <svg width=1920 height=1080>
    
    <circle cx=897 cy=540 r=12.382119205437695 stroke=""black"" stroke-width=""1"" fill=""black"" />
    <circle cx=684.89 cy=540 r=17.68874172205385 stroke=""black"" stroke-width=""1.5"" fill=""none"" />
    <circle cx=762.7148674474093 cy=540 r=17.68874172205385 stroke=""black"" stroke-width=""1.5"" fill=""none"" />
    <circle cx=684.89 cy=617.8248674474094 r=17.68874172205385 stroke=""black"" stroke-width=""1.5"" fill=""none"" />
    <circle cx=607.0651325525906 cy=540 r=17.68874172205385 stroke=""black"" stroke-width=""1.5"" fill=""none"" />
    <circle cx=684.89 cy=462.17513255259064 r=17.68874172205385 stroke=""black"" stroke-width=""1.5"" fill=""none"" />
    <polygon points = ""684.89,540 689.8657546027051,522.3112582779462 679.9142453972948,522.3112582779462"" stroke=""white"" stroke-width=""3"" fill = ""white"" />
    
    </svg>
    </div>
        ","","","","","","","","","","","","stimulus","","","","","","","","","","","","","","","","",""
"html-keyboard-response","51","183307","0.0-51.0","425.89999999990687","arrowup","","
    <div style="" display: block;  position: relative;"">
    
    <svg width=1920 height=1080>
    <circle cx=897 cy=540 r=12.382119205437695 stroke=""black"" stroke-width=""1"" fill=""black"" />
    <circle cx=762.7148674474093 cy=540 r=17.68874172205385 stroke=""none"" stroke-width=""1.5"" fill=""none"" />
    <circle cx=684.89 cy=617.8248674474094 r=17.68874172205385 stroke=""none"" stroke-width=""1.5"" fill=""none"" />
    <circle cx=607.0651325525906 cy=540 r=17.68874172205385 stroke=""none"" stroke-width=""1.5"" fill=""none"" />
    <circle cx=684.89 cy=462.17513255259064 r=17.68874172205385 stroke=""none"" stroke-width=""1.5"" fill=""none"" />
    <polygon points = ""684.89,540 689.8657546027051,522.3112582779462 679.9142453972948,522.3112582779462"" stroke=""none"" stroke-width=""3"" fill = ""none"" />
    
    </svg>
    </div>
        ","","","","","","","","","","","","get_response","true","1H4fzfqkHFCs2b3h","","","true","true","false","212.11","6","508.31000000000006","77.82486744740936","2.19","1","0","","",""
"html-keyboard-response","52","183808","0.0-52.0","null","null","","
    <div style="" display: block;  position: relative;"">
    
    <svg width=1920 height=1080>
    <circle cx=897 cy=540 r=12.382119205437695 stroke=""black"" stroke-width=""1"" fill=""black"" />
    <circle cx=762.7148674474093 cy=540 r=17.68874172205385 stroke=""none"" stroke-width=""1.5"" fill=""none"" />
    <circle cx=684.89 cy=617.8248674474094 r=17.68874172205385 stroke=""none"" stroke-width=""1.5"" fill=""none"" />
    <circle cx=607.0651325525906 cy=540 r=17.68874172205385 stroke=""none"" stroke-width=""1.5"" fill=""none"" />
    <circle cx=684.89 cy=462.17513255259064 r=17.68874172205385 stroke=""none"" stroke-width=""1.5"" fill=""none"" />
    <polygon points = ""684.89,540 689.8657546027051,522.3112582779462 679.9142453972948,522.3112582779462"" stroke=""none"" stroke-width=""3"" fill = ""none"" />
    
    </svg>
    </div>
        ","","","","","","","","","","","","","","","","","","","","","","","","","","","","",""
"html-keyboard-response","53","183960","0.0-53.0","null","null","","
    <div style="" display: block;  position: relative;"">
    <svg width=1920 height=1080>
    
    <circle cx=897 cy=540 r=12.382119205437695 stroke=""black"" stroke-width=""1"" fill=""black"" />
    <circle cx=684.89 cy=540 r=17.68874172205385 stroke=""black"" stroke-width=""1.5"" fill=""none"" />
    <circle cx=755.6398794976449 cy=540 r=17.68874172205385 stroke=""black"" stroke-width=""1.5"" fill=""none"" />
    <circle cx=684.89 cy=610.7498794976449 r=17.68874172205385 stroke=""black"" stroke-width=""1.5"" fill=""none"" />
    <circle cx=614.1401205023551 cy=540 r=17.68874172205385 stroke=""black"" stroke-width=""1.5"" fill=""none"" />
    <circle cx=684.89 cy=469.2501205023551 r=17.68874172205385 stroke=""black"" stroke-width=""1.5"" fill=""none"" />
    <polygon points = ""684.89,540 689.8657546027051,522.3112582779462 679.9142453972948,522.3112582779462"" stroke=""white"" stroke-width=""3"" fill = ""white"" />
    
    </svg>
    </div>
        ","","","","","","","","","","","","stimulus","","","","","","","","","","","","","","","","",""
"html-keyboard-response","54","184459","0.0-54.0","498.0999999999767","arrowup","","
    <div style="" display: block;  position: relative;"">
    
    <svg width=1920 height=1080>
    <circle cx=897 cy=540 r=12.382119205437695 stroke=""black"" stroke-width=""1"" fill=""black"" />
    <circle cx=755.6398794976449 cy=540 r=17.68874172205385 stroke=""none"" stroke-width=""1.5"" fill=""none"" />
    <circle cx=684.89 cy=610.7498794976449 r=17.68874172205385 stroke=""none"" stroke-width=""1.5"" fill=""none"" />
    <circle cx=614.1401205023551 cy=540 r=17.68874172205385 stroke=""none"" stroke-width=""1.5"" fill=""none"" />
    <circle cx=684.89 cy=469.2501205023551 r=17.68874172205385 stroke=""none"" stroke-width=""1.5"" fill=""none"" />
    <polygon points = ""684.89,540 689.8657546027051,522.3112582779462 679.9142453972948,522.3112582779462"" stroke=""none"" stroke-width=""3"" fill = ""none"" />
    
    </svg>
    </div>
        ","","","","","","","","","","","","get_response","true","1H4fzfqkHFCs2b3h","","","true","true","false","212.11","6","508.31000000000006","70.74987949764487","1.99","1","0","","",""
"html-keyboard-response","55","184960","0.0-55.0","null","null","","
    <div style="" display: block;  position: relative;"">
    
    <svg width=1920 height=1080>
    <circle cx=897 cy=540 r=12.382119205437695 stroke=""black"" stroke-width=""1"" fill=""black"" />
    <circle cx=755.6398794976449 cy=540 r=17.68874172205385 stroke=""none"" stroke-width=""1.5"" fill=""none"" />
    <circle cx=684.89 cy=610.7498794976449 r=17.68874172205385 stroke=""none"" stroke-width=""1.5"" fill=""none"" />
    <circle cx=614.1401205023551 cy=540 r=17.68874172205385 stroke=""none"" stroke-width=""1.5"" fill=""none"" />
    <circle cx=684.89 cy=469.2501205023551 r=17.68874172205385 stroke=""none"" stroke-width=""1.5"" fill=""none"" />
    <polygon points = ""684.89,540 689.8657546027051,522.3112582779462 679.9142453972948,522.3112582779462"" stroke=""none"" stroke-width=""3"" fill = ""none"" />
    
    </svg>
    </div>
        ","","","","","","","","","","","","","","","","","","","","","","","","","","","","",""
"html-keyboard-response","56","185111","0.0-56.0","null","null","","
    <div style="" display: block;  position: relative;"">
    <svg width=1920 height=1080>
    
    <circle cx=897 cy=540 r=12.382119205437695 stroke=""black"" stroke-width=""1"" fill=""black"" />
    <circle cx=1109.1100000000001 cy=540 r=17.68874172205385 stroke=""black"" stroke-width=""1.5"" fill=""none"" />
    <circle cx=1173.4280722705864 cy=540 r=17.68874172205385 stroke=""black"" stroke-width=""1.5"" fill=""none"" />
    <circle cx=1109.1100000000001 cy=604.3180722705863 r=17.68874172205385 stroke=""black"" stroke-width=""1.5"" fill=""none"" />
    <circle cx=1044.7919277294138 cy=540 r=17.68874172205385 stroke=""black"" stroke-width=""1.5"" fill=""none"" />
    <circle cx=1109.1100000000001 cy=475.68192772941376 r=17.68874172205385 stroke=""black"" stroke-width=""1.5"" fill=""none"" />
    <polygon points = ""1109.1100000000001,540 1114.0857546027053,522.3112582779462 1104.134245397295,522.3112582779462"" stroke=""white"" stroke-width=""3"" fill = ""white"" />
    
    </svg>
    </div>
        ","","","","","","","","","","","","stimulus","","","","","","","","","","","","","","","","",""
"html-keyboard-response","57","185523","0.0-57.0","410.79999999993015","arrowup","","
    <div style="" display: block;  position: relative;"">
    
    <svg width=1920 height=1080>
    <circle cx=897 cy=540 r=12.382119205437695 stroke=""black"" stroke-width=""1"" fill=""black"" />
    <circle cx=1173.4280722705864 cy=540 r=17.68874172205385 stroke=""none"" stroke-width=""1.5"" fill=""none"" />
    <circle cx=1109.1100000000001 cy=604.3180722705863 r=17.68874172205385 stroke=""none"" stroke-width=""1.5"" fill=""none"" />
    <circle cx=1044.7919277294138 cy=540 r=17.68874172205385 stroke=""none"" stroke-width=""1.5"" fill=""none"" />
    <circle cx=1109.1100000000001 cy=475.68192772941376 r=17.68874172205385 stroke=""none"" stroke-width=""1.5"" fill=""none"" />
    <polygon points = ""1109.1100000000001,540 1114.0857546027053,522.3112582779462 1104.134245397295,522.3112582779462"" stroke=""none"" stroke-width=""3"" fill = ""none"" />
    
    </svg>
    </div>
        ","","","","","","","","","","","","get_response","true","1H4fzfqkHFCs2b3h","","","false","true","false","212.11","6","508.31000000000006","64.31807227058624","1.81","1","0","","",""
"html-keyboard-response","58","186025","0.0-58.0","null","null","","
    <div style="" display: block;  position: relative;"">
    
    <svg width=1920 height=1080>
    <circle cx=897 cy=540 r=12.382119205437695 stroke=""black"" stroke-width=""1"" fill=""black"" />
    <circle cx=1173.4280722705864 cy=540 r=17.68874172205385 stroke=""none"" stroke-width=""1.5"" fill=""none"" />
    <circle cx=1109.1100000000001 cy=604.3180722705863 r=17.68874172205385 stroke=""none"" stroke-width=""1.5"" fill=""none"" />
    <circle cx=1044.7919277294138 cy=540 r=17.68874172205385 stroke=""none"" stroke-width=""1.5"" fill=""none"" />
    <circle cx=1109.1100000000001 cy=475.68192772941376 r=17.68874172205385 stroke=""none"" stroke-width=""1.5"" fill=""none"" />
    <polygon points = ""1109.1100000000001,540 1114.0857546027053,522.3112582779462 1104.134245397295,522.3112582779462"" stroke=""none"" stroke-width=""3"" fill = ""none"" />
    
    </svg>
    </div>
        ","","","","","","","","","","","","","","","","","","","","","","","","","","","","",""
"html-keyboard-response","59","186176","0.0-59.0","null","null","","
    <div style="" display: block;  position: relative;"">
    <svg width=1920 height=1080>
    
    <circle cx=897 cy=540 r=12.382119205437695 stroke=""black"" stroke-width=""1"" fill=""black"" />
    <circle cx=684.89 cy=540 r=17.68874172205385 stroke=""black"" stroke-width=""1.5"" fill=""none"" />
    <circle cx=743.360974791442 cy=540 r=17.68874172205385 stroke=""black"" stroke-width=""1.5"" fill=""none"" />
    <circle cx=684.89 cy=598.470974791442 r=17.68874172205385 stroke=""black"" stroke-width=""1.5"" fill=""none"" />
    <circle cx=626.419025208558 cy=540 r=17.68874172205385 stroke=""black"" stroke-width=""1.5"" fill=""none"" />
    <circle cx=684.89 cy=481.529025208558 r=17.68874172205385 stroke=""black"" stroke-width=""1.5"" fill=""none"" />
    <polygon points = ""684.89,540 689.8657546027051,522.3112582779462 679.9142453972948,522.3112582779462"" stroke=""white"" stroke-width=""3"" fill = ""white"" />
    
    </svg>
    </div>
        ","","","","","","","","","","","","stimulus","","","","","","","","","","","","","","","","",""
"html-keyboard-response","60","186595","0.0-60.0","417.5","arrowup","","
    <div style="" display: block;  position: relative;"">
    
    <svg width=1920 height=1080>
    <circle cx=897 cy=540 r=12.382119205437695 stroke=""black"" stroke-width=""1"" fill=""black"" />
    <circle cx=743.360974791442 cy=540 r=17.68874172205385 stroke=""none"" stroke-width=""1.5"" fill=""none"" />
    <circle cx=684.89 cy=598.470974791442 r=17.68874172205385 stroke=""none"" stroke-width=""1.5"" fill=""none"" />
    <circle cx=626.419025208558 cy=540 r=17.68874172205385 stroke=""none"" stroke-width=""1.5"" fill=""none"" />
    <circle cx=684.89 cy=481.529025208558 r=17.68874172205385 stroke=""none"" stroke-width=""1.5"" fill=""none"" />
    <polygon points = ""684.89,540 689.8657546027051,522.3112582779462 679.9142453972948,522.3112582779462"" stroke=""none"" stroke-width=""3"" fill = ""none"" />
    
    </svg>
    </div>
        ","","","","","","","","","","","","get_response","true","1H4fzfqkHFCs2b3h","","","true","true","false","212.11","6","508.31000000000006","58.47097479144203","1.65","1","0","","",""
"html-keyboard-response","61","187097","0.0-61.0","null","null","","
    <div style="" display: block;  position: relative;"">
    
    <svg width=1920 height=1080>
    <circle cx=897 cy=540 r=12.382119205437695 stroke=""black"" stroke-width=""1"" fill=""black"" />
    <circle cx=743.360974791442 cy=540 r=17.68874172205385 stroke=""none"" stroke-width=""1.5"" fill=""none"" />
    <circle cx=684.89 cy=598.470974791442 r=17.68874172205385 stroke=""none"" stroke-width=""1.5"" fill=""none"" />
    <circle cx=626.419025208558 cy=540 r=17.68874172205385 stroke=""none"" stroke-width=""1.5"" fill=""none"" />
    <circle cx=684.89 cy=481.529025208558 r=17.68874172205385 stroke=""none"" stroke-width=""1.5"" fill=""none"" />
    <polygon points = ""684.89,540 689.8657546027051,522.3112582779462 679.9142453972948,522.3112582779462"" stroke=""none"" stroke-width=""3"" fill = ""none"" />
    
    </svg>
    </div>
        ","","","","","","","","","","","","","","","","","","","","","","","","","","","","",""
"html-keyboard-response","62","187249","0.0-62.0","null","null","","
    <div style="" display: block;  position: relative;"">
    <svg width=1920 height=1080>
    
    <circle cx=897 cy=540 r=12.382119205437695 stroke=""black"" stroke-width=""1"" fill=""black"" />
    <circle cx=1109.1100000000001 cy=540 r=17.68874172205385 stroke=""black"" stroke-width=""1.5"" fill=""none"" />
    <circle cx=1162.2654316285839 cy=540 r=17.68874172205385 stroke=""black"" stroke-width=""1.5"" fill=""none"" />
    <circle cx=1109.1100000000001 cy=593.1554316285836 r=17.68874172205385 stroke=""black"" stroke-width=""1.5"" fill=""none"" />
    <circle cx=1055.9545683714164 cy=540 r=17.68874172205385 stroke=""black"" stroke-width=""1.5"" fill=""none"" />
    <circle cx=1109.1100000000001 cy=486.84456837141636 r=17.68874172205385 stroke=""black"" stroke-width=""1.5"" fill=""none"" />
    <polygon points = ""1109.1100000000001,540 1114.0857546027053,522.3112582779462 1104.134245397295,522.3112582779462"" stroke=""white"" stroke-width=""3"" fill = ""white"" />
    
    </svg>
    </div>
        ","","","","","","","","","","","","stimulus","","","","","","","","","","","","","","","","",""
"html-keyboard-response","63","187636","0.0-63.0","385.30000000004657","arrowup","","
    <div style="" display: block;  position: relative;"">
    
    <svg width=1920 height=1080>
    <circle cx=897 cy=540 r=12.382119205437695 stroke=""black"" stroke-width=""1"" fill=""black"" />
    <circle cx=1162.2654316285839 cy=540 r=17.68874172205385 stroke=""none"" stroke-width=""1.5"" fill=""none"" />
    <circle cx=1109.1100000000001 cy=593.1554316285836 r=17.68874172205385 stroke=""none"" stroke-width=""1.5"" fill=""none"" />
    <circle cx=1055.9545683714164 cy=540 r=17.68874172205385 stroke=""none"" stroke-width=""1.5"" fill=""none"" />
    <circle cx=1109.1100000000001 cy=486.84456837141636 r=17.68874172205385 stroke=""none"" stroke-width=""1.5"" fill=""none"" />
    <polygon points = ""1109.1100000000001,540 1114.0857546027053,522.3112582779462 1104.134245397295,522.3112582779462"" stroke=""none"" stroke-width=""3"" fill = ""none"" />
    
    </svg>
    </div>
        ","","","","","","","","","","","","get_response","true","1H4fzfqkHFCs2b3h","","","false","true","false","212.11","6","508.31000000000006","53.15543162858366","1.5","1","0","","",""
"html-keyboard-response","64","188137","0.0-64.0","null","null","","
    <div style="" display: block;  position: relative;"">
    
    <svg width=1920 height=1080>
    <circle cx=897 cy=540 r=12.382119205437695 stroke=""black"" stroke-width=""1"" fill=""black"" />
    <circle cx=1162.2654316285839 cy=540 r=17.68874172205385 stroke=""none"" stroke-width=""1.5"" fill=""none"" />
    <circle cx=1109.1100000000001 cy=593.1554316285836 r=17.68874172205385 stroke=""none"" stroke-width=""1.5"" fill=""none"" />
    <circle cx=1055.9545683714164 cy=540 r=17.68874172205385 stroke=""none"" stroke-width=""1.5"" fill=""none"" />
    <circle cx=1109.1100000000001 cy=486.84456837141636 r=17.68874172205385 stroke=""none"" stroke-width=""1.5"" fill=""none"" />
    <polygon points = ""1109.1100000000001,540 1114.0857546027053,522.3112582779462 1104.134245397295,522.3112582779462"" stroke=""none"" stroke-width=""3"" fill = ""none"" />
    
    </svg>
    </div>
        ","","","","","","","","","","","","","","","","","","","","","","","","","","","","",""
"html-keyboard-response","65","188289","0.0-65.0","null","null","","
    <div style="" display: block;  position: relative;"">
    <svg width=1920 height=1080>
    
    <circle cx=897 cy=540 r=12.382119205437695 stroke=""black"" stroke-width=""1"" fill=""black"" />
    <circle cx=684.89 cy=540 r=17.68874172205385 stroke=""black"" stroke-width=""1.5"" fill=""none"" />
    <circle cx=733.2131196623487 cy=540 r=17.68874172205385 stroke=""black"" stroke-width=""1.5"" fill=""none"" />
    <circle cx=684.89 cy=588.3231196623487 r=17.68874172205385 stroke=""black"" stroke-width=""1.5"" fill=""none"" />
    <circle cx=636.5668803376512 cy=540 r=17.68874172205385 stroke=""black"" stroke-width=""1.5"" fill=""none"" />
    <circle cx=684.89 cy=491.6768803376512 r=17.68874172205385 stroke=""black"" stroke-width=""1.5"" fill=""none"" />
    <polygon points = ""684.89,540 689.8657546027051,557.6887417220538 679.9142453972948,557.6887417220538"" stroke=""white"" stroke-width=""3"" fill = ""white"" />
    
    </svg>
    </div>
        ","","","","","","","","","","","","stimulus","","","","","","","","","","","","","","","","",""
"html-keyboard-response","66","188795","0.0-66.0","504.9000000000233","arrowup","","
    <div style="" display: block;  position: relative;"">
    
    <svg width=1920 height=1080>
    <circle cx=897 cy=540 r=12.382119205437695 stroke=""black"" stroke-width=""1"" fill=""black"" />
    <circle cx=733.2131196623487 cy=540 r=17.68874172205385 stroke=""none"" stroke-width=""1.5"" fill=""none"" />
    <circle cx=684.89 cy=588.3231196623487 r=17.68874172205385 stroke=""none"" stroke-width=""1.5"" fill=""none"" />
    <circle cx=636.5668803376512 cy=540 r=17.68874172205385 stroke=""none"" stroke-width=""1.5"" fill=""none"" />
    <circle cx=684.89 cy=491.6768803376512 r=17.68874172205385 stroke=""none"" stroke-width=""1.5"" fill=""none"" />
    <polygon points = ""684.89,540 689.8657546027051,557.6887417220538 679.9142453972948,557.6887417220538"" stroke=""none"" stroke-width=""3"" fill = ""none"" />
    
    </svg>
    </div>
        ","","","","","","","","","","","","get_response","false","1H4fzfqkHFCs2b3h","","","true","false","false","212.11","6","508.31000000000006","48.32311966234878","1.36","1","0","","",""
"html-keyboard-response","67","189297","0.0-67.0","null","null","","
    <div style="" display: block;  position: relative;"">
    
    <svg width=1920 height=1080>
    <circle cx=897 cy=540 r=12.382119205437695 stroke=""black"" stroke-width=""1"" fill=""black"" />
    <circle cx=733.2131196623487 cy=540 r=17.68874172205385 stroke=""none"" stroke-width=""1.5"" fill=""none"" />
    <circle cx=684.89 cy=588.3231196623487 r=17.68874172205385 stroke=""none"" stroke-width=""1.5"" fill=""none"" />
    <circle cx=636.5668803376512 cy=540 r=17.68874172205385 stroke=""none"" stroke-width=""1.5"" fill=""none"" />
    <circle cx=684.89 cy=491.6768803376512 r=17.68874172205385 stroke=""none"" stroke-width=""1.5"" fill=""none"" />
    <polygon points = ""684.89,540 689.8657546027051,557.6887417220538 679.9142453972948,557.6887417220538"" stroke=""none"" stroke-width=""3"" fill = ""none"" />
    
    </svg>
    </div>
        ","","","","","","","","","","","","","","","","","","","","","","","","","","","","",""
"html-keyboard-response","68","189449","0.0-68.0","null","null","","
    <div style="" display: block;  position: relative;"">
    <svg width=1920 height=1080>
    
    <circle cx=897 cy=540 r=12.382119205437695 stroke=""black"" stroke-width=""1"" fill=""black"" />
    <circle cx=684.89 cy=540 r=17.68874172205385 stroke=""black"" stroke-width=""1.5"" fill=""none"" />
    <circle cx=747.7100555610534 cy=540 r=17.68874172205385 stroke=""black"" stroke-width=""1.5"" fill=""none"" />
    <circle cx=684.89 cy=602.8200555610534 r=17.68874172205385 stroke=""black"" stroke-width=""1.5"" fill=""none"" />
    <circle cx=622.0699444389465 cy=540 r=17.68874172205385 stroke=""black"" stroke-width=""1.5"" fill=""none"" />
    <circle cx=684.89 cy=477.17994443894656 r=17.68874172205385 stroke=""black"" stroke-width=""1.5"" fill=""none"" />
    <polygon points = ""684.89,540 689.8657546027051,522.3112582779462 679.9142453972948,522.3112582779462"" stroke=""white"" stroke-width=""3"" fill = ""white"" />
    
    </svg>
    </div>
        ","","","","","","","","","","","","stimulus","","","","","","","","","","","","","","","","",""
"html-keyboard-response","69","190020","0.0-69.0","569.9000000000233","arrowup","","
    <div style="" display: block;  position: relative;"">
    
    <svg width=1920 height=1080>
    <circle cx=897 cy=540 r=12.382119205437695 stroke=""black"" stroke-width=""1"" fill=""black"" />
    <circle cx=747.7100555610534 cy=540 r=17.68874172205385 stroke=""none"" stroke-width=""1.5"" fill=""none"" />
    <circle cx=684.89 cy=602.8200555610534 r=17.68874172205385 stroke=""none"" stroke-width=""1.5"" fill=""none"" />
    <circle cx=622.0699444389465 cy=540 r=17.68874172205385 stroke=""none"" stroke-width=""1.5"" fill=""none"" />
    <circle cx=684.89 cy=477.17994443894656 r=17.68874172205385 stroke=""none"" stroke-width=""1.5"" fill=""none"" />
    <polygon points = ""684.89,540 689.8657546027051,522.3112582779462 679.9142453972948,522.3112582779462"" stroke=""none"" stroke-width=""3"" fill = ""none"" />
    
    </svg>
    </div>
        ","","","","","","","","","","","","get_response","true","1H4fzfqkHFCs2b3h","","","true","true","false","212.11","6","508.31000000000006","62.820055561053415","1.77","1","0","","",""
"html-keyboard-response","70","190522","0.0-70.0","null","null","","
    <div style="" display: block;  position: relative;"">
    
    <svg width=1920 height=1080>
    <circle cx=897 cy=540 r=12.382119205437695 stroke=""black"" stroke-width=""1"" fill=""black"" />
    <circle cx=747.7100555610534 cy=540 r=17.68874172205385 stroke=""none"" stroke-width=""1.5"" fill=""none"" />
    <circle cx=684.89 cy=602.8200555610534 r=17.68874172205385 stroke=""none"" stroke-width=""1.5"" fill=""none"" />
    <circle cx=622.0699444389465 cy=540 r=17.68874172205385 stroke=""none"" stroke-width=""1.5"" fill=""none"" />
    <circle cx=684.89 cy=477.17994443894656 r=17.68874172205385 stroke=""none"" stroke-width=""1.5"" fill=""none"" />
    <polygon points = ""684.89,540 689.8657546027051,522.3112582779462 679.9142453972948,522.3112582779462"" stroke=""none"" stroke-width=""3"" fill = ""none"" />
    
    </svg>
    </div>
        ","","","","","","","","","","","","","","","","","","","","","","","","","","","","",""
"html-keyboard-response","71","190673","0.0-71.0","null","null","","
    <div style="" display: block;  position: relative;"">
    <svg width=1920 height=1080>
    
    <circle cx=897 cy=540 r=12.382119205437695 stroke=""black"" stroke-width=""1"" fill=""black"" />
    <circle cx=1109.1100000000001 cy=540 r=17.68874172205385 stroke=""black"" stroke-width=""1.5"" fill=""none"" />
    <circle cx=1171.9300555610535 cy=540 r=17.68874172205385 stroke=""black"" stroke-width=""1.5"" fill=""none"" />
    <circle cx=1109.1100000000001 cy=602.8200555610534 r=17.68874172205385 stroke=""black"" stroke-width=""1.5"" fill=""none"" />
    <circle cx=1046.2899444389468 cy=540 r=17.68874172205385 stroke=""black"" stroke-width=""1.5"" fill=""none"" />
    <circle cx=1109.1100000000001 cy=477.17994443894656 r=17.68874172205385 stroke=""black"" stroke-width=""1.5"" fill=""none"" />
    <polygon points = ""1109.1100000000001,540 1114.0857546027053,557.6887417220538 1104.134245397295,557.6887417220538"" stroke=""white"" stroke-width=""3"" fill = ""white"" />
    
    </svg>
    </div>
        ","","","","","","","","","","","","stimulus","","","","","","","","","","","","","","","","",""
"html-keyboard-response","72","191347","0.0-72.0","672.8000000000466","arrowdown","","
    <div style="" display: block;  position: relative;"">
    
    <svg width=1920 height=1080>
    <circle cx=897 cy=540 r=12.382119205437695 stroke=""black"" stroke-width=""1"" fill=""black"" />
    <circle cx=1171.9300555610535 cy=540 r=17.68874172205385 stroke=""none"" stroke-width=""1.5"" fill=""none"" />
    <circle cx=1109.1100000000001 cy=602.8200555610534 r=17.68874172205385 stroke=""none"" stroke-width=""1.5"" fill=""none"" />
    <circle cx=1046.2899444389468 cy=540 r=17.68874172205385 stroke=""none"" stroke-width=""1.5"" fill=""none"" />
    <circle cx=1109.1100000000001 cy=477.17994443894656 r=17.68874172205385 stroke=""none"" stroke-width=""1.5"" fill=""none"" />
    <polygon points = ""1109.1100000000001,540 1114.0857546027053,557.6887417220538 1104.134245397295,557.6887417220538"" stroke=""none"" stroke-width=""3"" fill = ""none"" />
    
    </svg>
    </div>
        ","","","","","","","","","","","","get_response","true","1H4fzfqkHFCs2b3h","","","false","false","false","212.11","6","508.31000000000006","62.820055561053415","1.77","1","0","","",""
"html-keyboard-response","73","191849","0.0-73.0","null","null","","
    <div style="" display: block;  position: relative;"">
    
    <svg width=1920 height=1080>
    <circle cx=897 cy=540 r=12.382119205437695 stroke=""black"" stroke-width=""1"" fill=""black"" />
    <circle cx=1171.9300555610535 cy=540 r=17.68874172205385 stroke=""none"" stroke-width=""1.5"" fill=""none"" />
    <circle cx=1109.1100000000001 cy=602.8200555610534 r=17.68874172205385 stroke=""none"" stroke-width=""1.5"" fill=""none"" />
    <circle cx=1046.2899444389468 cy=540 r=17.68874172205385 stroke=""none"" stroke-width=""1.5"" fill=""none"" />
    <circle cx=1109.1100000000001 cy=477.17994443894656 r=17.68874172205385 stroke=""none"" stroke-width=""1.5"" fill=""none"" />
    <polygon points = ""1109.1100000000001,540 1114.0857546027053,557.6887417220538 1104.134245397295,557.6887417220538"" stroke=""none"" stroke-width=""3"" fill = ""none"" />
    
    </svg>
    </div>
        ","","","","","","","","","","","","","","","","","","","","","","","","","","","","",""
"html-keyboard-response","74","192000","0.0-74.0","null","null","","
    <div style="" display: block;  position: relative;"">
    <svg width=1920 height=1080>
    
    <circle cx=897 cy=540 r=12.382119205437695 stroke=""black"" stroke-width=""1"" fill=""black"" />
    <circle cx=1109.1100000000001 cy=540 r=17.68874172205385 stroke=""black"" stroke-width=""1.5"" fill=""none"" />
    <circle cx=1171.9300555610535 cy=540 r=17.68874172205385 stroke=""black"" stroke-width=""1.5"" fill=""none"" />
    <circle cx=1109.1100000000001 cy=602.8200555610534 r=17.68874172205385 stroke=""black"" stroke-width=""1.5"" fill=""none"" />
    <circle cx=1046.2899444389468 cy=540 r=17.68874172205385 stroke=""black"" stroke-width=""1.5"" fill=""none"" />
    <circle cx=1109.1100000000001 cy=477.17994443894656 r=17.68874172205385 stroke=""black"" stroke-width=""1.5"" fill=""none"" />
    <polygon points = ""1109.1100000000001,540 1114.0857546027053,557.6887417220538 1104.134245397295,557.6887417220538"" stroke=""white"" stroke-width=""3"" fill = ""white"" />
    
    </svg>
    </div>
        ","","","","","","","","","","","","stimulus","","","","","","","","","","","","","","","","",""
"html-keyboard-response","75","192403","0.0-75.0","402.29999999993015","arrowdown","","
    <div style="" display: block;  position: relative;"">
    
    <svg width=1920 height=1080>
    <circle cx=897 cy=540 r=12.382119205437695 stroke=""black"" stroke-width=""1"" fill=""black"" />
    <circle cx=1171.9300555610535 cy=540 r=17.68874172205385 stroke=""none"" stroke-width=""1.5"" fill=""none"" />
    <circle cx=1109.1100000000001 cy=602.8200555610534 r=17.68874172205385 stroke=""none"" stroke-width=""1.5"" fill=""none"" />
    <circle cx=1046.2899444389468 cy=540 r=17.68874172205385 stroke=""none"" stroke-width=""1.5"" fill=""none"" />
    <circle cx=1109.1100000000001 cy=477.17994443894656 r=17.68874172205385 stroke=""none"" stroke-width=""1.5"" fill=""none"" />
    <polygon points = ""1109.1100000000001,540 1114.0857546027053,557.6887417220538 1104.134245397295,557.6887417220538"" stroke=""none"" stroke-width=""3"" fill = ""none"" />
    
    </svg>
    </div>
        ","","","","","","","","","","","","get_response","true","1H4fzfqkHFCs2b3h","","","false","false","false","212.11","6","508.31000000000006","62.820055561053415","1.77","1","0","","",""
"html-keyboard-response","76","192905","0.0-76.0","null","null","","
    <div style="" display: block;  position: relative;"">
    
    <svg width=1920 height=1080>
    <circle cx=897 cy=540 r=12.382119205437695 stroke=""black"" stroke-width=""1"" fill=""black"" />
    <circle cx=1171.9300555610535 cy=540 r=17.68874172205385 stroke=""none"" stroke-width=""1.5"" fill=""none"" />
    <circle cx=1109.1100000000001 cy=602.8200555610534 r=17.68874172205385 stroke=""none"" stroke-width=""1.5"" fill=""none"" />
    <circle cx=1046.2899444389468 cy=540 r=17.68874172205385 stroke=""none"" stroke-width=""1.5"" fill=""none"" />
    <circle cx=1109.1100000000001 cy=477.17994443894656 r=17.68874172205385 stroke=""none"" stroke-width=""1.5"" fill=""none"" />
    <polygon points = ""1109.1100000000001,540 1114.0857546027053,557.6887417220538 1104.134245397295,557.6887417220538"" stroke=""none"" stroke-width=""3"" fill = ""none"" />
    
    </svg>
    </div>
        ","","","","","","","","","","","","","","","","","","","","","","","","","","","","",""
"html-keyboard-response","77","193056","0.0-77.0","null","null","","
    <div style="" display: block;  position: relative;"">
    <svg width=1920 height=1080>
    
    <circle cx=897 cy=540 r=12.382119205437695 stroke=""black"" stroke-width=""1"" fill=""black"" />
    <circle cx=1109.1100000000001 cy=540 r=17.68874172205385 stroke=""black"" stroke-width=""1.5"" fill=""none"" />
    <circle cx=1166.2191414191395 cy=540 r=17.68874172205385 stroke=""black"" stroke-width=""1.5"" fill=""none"" />
    <circle cx=1109.1100000000001 cy=597.1091414191394 r=17.68874172205385 stroke=""black"" stroke-width=""1.5"" fill=""none"" />
    <circle cx=1052.0008585808607 cy=540 r=17.68874172205385 stroke=""black"" stroke-width=""1.5"" fill=""none"" />
    <circle cx=1109.1100000000001 cy=482.89085858086054 r=17.68874172205385 stroke=""black"" stroke-width=""1.5"" fill=""none"" />
    <polygon points = ""1109.1100000000001,540 1114.0857546027053,557.6887417220538 1104.134245397295,557.6887417220538"" stroke=""white"" stroke-width=""3"" fill = ""white"" />
    
    </svg>
    </div>
        ","","","","","","","","","","","","stimulus","","","","","","","","","","","","","","","","",""
"html-keyboard-response","78","193436","0.0-78.0","378.5","arrowdown","","
    <div style="" display: block;  position: relative;"">
    
    <svg width=1920 height=1080>
    <circle cx=897 cy=540 r=12.382119205437695 stroke=""black"" stroke-width=""1"" fill=""black"" />
    <circle cx=1166.2191414191395 cy=540 r=17.68874172205385 stroke=""none"" stroke-width=""1.5"" fill=""none"" />
    <circle cx=1109.1100000000001 cy=597.1091414191394 r=17.68874172205385 stroke=""none"" stroke-width=""1.5"" fill=""none"" />
    <circle cx=1052.0008585808607 cy=540 r=17.68874172205385 stroke=""none"" stroke-width=""1.5"" fill=""none"" />
    <circle cx=1109.1100000000001 cy=482.89085858086054 r=17.68874172205385 stroke=""none"" stroke-width=""1.5"" fill=""none"" />
    <polygon points = ""1109.1100000000001,540 1114.0857546027053,557.6887417220538 1104.134245397295,557.6887417220538"" stroke=""none"" stroke-width=""3"" fill = ""none"" />
    
    </svg>
    </div>
        ","","","","","","","","","","","","get_response","true","1H4fzfqkHFCs2b3h","","","false","false","false","212.11","6","508.31000000000006","57.10914141913946","1.61","1","0","","",""
"html-keyboard-response","79","193937","0.0-79.0","null","null","","
    <div style="" display: block;  position: relative;"">
    
    <svg width=1920 height=1080>
    <circle cx=897 cy=540 r=12.382119205437695 stroke=""black"" stroke-width=""1"" fill=""black"" />
    <circle cx=1166.2191414191395 cy=540 r=17.68874172205385 stroke=""none"" stroke-width=""1.5"" fill=""none"" />
    <circle cx=1109.1100000000001 cy=597.1091414191394 r=17.68874172205385 stroke=""none"" stroke-width=""1.5"" fill=""none"" />
    <circle cx=1052.0008585808607 cy=540 r=17.68874172205385 stroke=""none"" stroke-width=""1.5"" fill=""none"" />
    <circle cx=1109.1100000000001 cy=482.89085858086054 r=17.68874172205385 stroke=""none"" stroke-width=""1.5"" fill=""none"" />
    <polygon points = ""1109.1100000000001,540 1114.0857546027053,557.6887417220538 1104.134245397295,557.6887417220538"" stroke=""none"" stroke-width=""3"" fill = ""none"" />
    
    </svg>
    </div>
        ","","","","","","","","","","","","","","","","","","","","","","","","","","","","",""
"html-keyboard-response","80","194089","0.0-80.0","null","null","","
    <div style="" display: block;  position: relative;"">
    <svg width=1920 height=1080>
    
    <circle cx=897 cy=540 r=12.382119205437695 stroke=""black"" stroke-width=""1"" fill=""black"" />
    <circle cx=1109.1100000000001 cy=540 r=17.68874172205385 stroke=""black"" stroke-width=""1.5"" fill=""none"" />
    <circle cx=1161.0274012901268 cy=540 r=17.68874172205385 stroke=""black"" stroke-width=""1.5"" fill=""none"" />
    <circle cx=1109.1100000000001 cy=591.9174012901268 r=17.68874172205385 stroke=""black"" stroke-width=""1.5"" fill=""none"" />
    <circle cx=1057.1925987098734 cy=540 r=17.68874172205385 stroke=""black"" stroke-width=""1.5"" fill=""none"" />
    <circle cx=1109.1100000000001 cy=488.0825987098732 r=17.68874172205385 stroke=""black"" stroke-width=""1.5"" fill=""none"" />
    <polygon points = ""1109.1100000000001,540 1114.0857546027053,522.3112582779462 1104.134245397295,522.3112582779462"" stroke=""white"" stroke-width=""3"" fill = ""white"" />
    
    </svg>
    </div>
        ","","","","","","","","","","","","stimulus","","","","","","","","","","","","","","","","",""
"html-keyboard-response","81","194756","0.0-81.0","665.5","arrowdown","","
    <div style="" display: block;  position: relative;"">
    
    <svg width=1920 height=1080>
    <circle cx=897 cy=540 r=12.382119205437695 stroke=""black"" stroke-width=""1"" fill=""black"" />
    <circle cx=1161.0274012901268 cy=540 r=17.68874172205385 stroke=""none"" stroke-width=""1.5"" fill=""none"" />
    <circle cx=1109.1100000000001 cy=591.9174012901268 r=17.68874172205385 stroke=""none"" stroke-width=""1.5"" fill=""none"" />
    <circle cx=1057.1925987098734 cy=540 r=17.68874172205385 stroke=""none"" stroke-width=""1.5"" fill=""none"" />
    <circle cx=1109.1100000000001 cy=488.0825987098732 r=17.68874172205385 stroke=""none"" stroke-width=""1.5"" fill=""none"" />
    <polygon points = ""1109.1100000000001,540 1114.0857546027053,522.3112582779462 1104.134245397295,522.3112582779462"" stroke=""none"" stroke-width=""3"" fill = ""none"" />
    
    </svg>
    </div>
        ","","","","","","","","","","","","get_response","false","1H4fzfqkHFCs2b3h","","","false","true","false","212.11","6","508.31000000000006","51.91740129012678","1.46","1","0","","",""
"html-keyboard-response","82","195257","0.0-82.0","null","null","","
    <div style="" display: block;  position: relative;"">
    
    <svg width=1920 height=1080>
    <circle cx=897 cy=540 r=12.382119205437695 stroke=""black"" stroke-width=""1"" fill=""black"" />
    <circle cx=1161.0274012901268 cy=540 r=17.68874172205385 stroke=""none"" stroke-width=""1.5"" fill=""none"" />
    <circle cx=1109.1100000000001 cy=591.9174012901268 r=17.68874172205385 stroke=""none"" stroke-width=""1.5"" fill=""none"" />
    <circle cx=1057.1925987098734 cy=540 r=17.68874172205385 stroke=""none"" stroke-width=""1.5"" fill=""none"" />
    <circle cx=1109.1100000000001 cy=488.0825987098732 r=17.68874172205385 stroke=""none"" stroke-width=""1.5"" fill=""none"" />
    <polygon points = ""1109.1100000000001,540 1114.0857546027053,522.3112582779462 1104.134245397295,522.3112582779462"" stroke=""none"" stroke-width=""3"" fill = ""none"" />
    
    </svg>
    </div>
        ","","","","","","","","","","","","","","","","","","","","","","","","","","","","",""
"html-keyboard-response","83","195408","0.0-83.0","null","null","","
    <div style="" display: block;  position: relative;"">
    <svg width=1920 height=1080>
    
    <circle cx=897 cy=540 r=12.382119205437695 stroke=""black"" stroke-width=""1"" fill=""black"" />
    <circle cx=684.89 cy=540 r=17.68874172205385 stroke=""black"" stroke-width=""1.5"" fill=""none"" />
    <circle cx=752.3826216771648 cy=540 r=17.68874172205385 stroke=""black"" stroke-width=""1.5"" fill=""none"" />
    <circle cx=684.89 cy=607.4926216771648 r=17.68874172205385 stroke=""black"" stroke-width=""1.5"" fill=""none"" />
    <circle cx=617.3973783228352 cy=540 r=17.68874172205385 stroke=""black"" stroke-width=""1.5"" fill=""none"" />
    <circle cx=684.89 cy=472.50737832283517 r=17.68874172205385 stroke=""black"" stroke-width=""1.5"" fill=""none"" />
    <polygon points = ""684.89,540 689.8657546027051,522.3112582779462 679.9142453972948,522.3112582779462"" stroke=""white"" stroke-width=""3"" fill = ""white"" />
    
    </svg>
    </div>
        ","","","","","","","","","","","","stimulus","","","","","","","","","","","","","","","","",""
"html-keyboard-response","84","195907","0.0-84.0","497.0999999999767","arrowup","","
    <div style="" display: block;  position: relative;"">
    
    <svg width=1920 height=1080>
    <circle cx=897 cy=540 r=12.382119205437695 stroke=""black"" stroke-width=""1"" fill=""black"" />
    <circle cx=752.3826216771648 cy=540 r=17.68874172205385 stroke=""none"" stroke-width=""1.5"" fill=""none"" />
    <circle cx=684.89 cy=607.4926216771648 r=17.68874172205385 stroke=""none"" stroke-width=""1.5"" fill=""none"" />
    <circle cx=617.3973783228352 cy=540 r=17.68874172205385 stroke=""none"" stroke-width=""1.5"" fill=""none"" />
    <circle cx=684.89 cy=472.50737832283517 r=17.68874172205385 stroke=""none"" stroke-width=""1.5"" fill=""none"" />
    <polygon points = ""684.89,540 689.8657546027051,522.3112582779462 679.9142453972948,522.3112582779462"" stroke=""none"" stroke-width=""3"" fill = ""none"" />
    
    </svg>
    </div>
        ","","","","","","","","","","","","get_response","true","1H4fzfqkHFCs2b3h","","","true","true","false","212.11","6","508.31000000000006","67.49262167716482","1.9","1","0","","",""
"html-keyboard-response","85","196407","0.0-85.0","null","null","","
    <div style="" display: block;  position: relative;"">
    
    <svg width=1920 height=1080>
    <circle cx=897 cy=540 r=12.382119205437695 stroke=""black"" stroke-width=""1"" fill=""black"" />
    <circle cx=752.3826216771648 cy=540 r=17.68874172205385 stroke=""none"" stroke-width=""1.5"" fill=""none"" />
    <circle cx=684.89 cy=607.4926216771648 r=17.68874172205385 stroke=""none"" stroke-width=""1.5"" fill=""none"" />
    <circle cx=617.3973783228352 cy=540 r=17.68874172205385 stroke=""none"" stroke-width=""1.5"" fill=""none"" />
    <circle cx=684.89 cy=472.50737832283517 r=17.68874172205385 stroke=""none"" stroke-width=""1.5"" fill=""none"" />
    <polygon points = ""684.89,540 689.8657546027051,522.3112582779462 679.9142453972948,522.3112582779462"" stroke=""none"" stroke-width=""3"" fill = ""none"" />
    
    </svg>
    </div>
        ","","","","","","","","","","","","","","","","","","","","","","","","","","","","",""
"html-keyboard-response","86","196559","0.0-86.0","null","null","","
    <div style="" display: block;  position: relative;"">
    <svg width=1920 height=1080>
    
    <circle cx=897 cy=540 r=12.382119205437695 stroke=""black"" stroke-width=""1"" fill=""black"" />
    <circle cx=684.89 cy=540 r=17.68874172205385 stroke=""black"" stroke-width=""1.5"" fill=""none"" />
    <circle cx=752.3826216771648 cy=540 r=17.68874172205385 stroke=""black"" stroke-width=""1.5"" fill=""none"" />
    <circle cx=684.89 cy=607.4926216771648 r=17.68874172205385 stroke=""black"" stroke-width=""1.5"" fill=""none"" />
    <circle cx=617.3973783228352 cy=540 r=17.68874172205385 stroke=""black"" stroke-width=""1.5"" fill=""none"" />
    <circle cx=684.89 cy=472.50737832283517 r=17.68874172205385 stroke=""black"" stroke-width=""1.5"" fill=""none"" />
    <polygon points = ""684.89,540 689.8657546027051,557.6887417220538 679.9142453972948,557.6887417220538"" stroke=""white"" stroke-width=""3"" fill = ""white"" />
    
    </svg>
    </div>
        ","","","","","","","","","","","","stimulus","","","","","","","","","","","","","","","","",""
"html-keyboard-response","87","197027","0.0-87.0","467.0999999999767","arrowdown","","
    <div style="" display: block;  position: relative;"">
    
    <svg width=1920 height=1080>
    <circle cx=897 cy=540 r=12.382119205437695 stroke=""black"" stroke-width=""1"" fill=""black"" />
    <circle cx=752.3826216771648 cy=540 r=17.68874172205385 stroke=""none"" stroke-width=""1.5"" fill=""none"" />
    <circle cx=684.89 cy=607.4926216771648 r=17.68874172205385 stroke=""none"" stroke-width=""1.5"" fill=""none"" />
    <circle cx=617.3973783228352 cy=540 r=17.68874172205385 stroke=""none"" stroke-width=""1.5"" fill=""none"" />
    <circle cx=684.89 cy=472.50737832283517 r=17.68874172205385 stroke=""none"" stroke-width=""1.5"" fill=""none"" />
    <polygon points = ""684.89,540 689.8657546027051,557.6887417220538 679.9142453972948,557.6887417220538"" stroke=""none"" stroke-width=""3"" fill = ""none"" />
    
    </svg>
    </div>
        ","","","","","","","","","","","","get_response","true","1H4fzfqkHFCs2b3h","","","true","false","false","212.11","6","508.31000000000006","67.49262167716482","1.9","1","0","","",""
"html-keyboard-response","88","197529","0.0-88.0","null","null","","
    <div style="" display: block;  position: relative;"">
    
    <svg width=1920 height=1080>
    <circle cx=897 cy=540 r=12.382119205437695 stroke=""black"" stroke-width=""1"" fill=""black"" />
    <circle cx=752.3826216771648 cy=540 r=17.68874172205385 stroke=""none"" stroke-width=""1.5"" fill=""none"" />
    <circle cx=684.89 cy=607.4926216771648 r=17.68874172205385 stroke=""none"" stroke-width=""1.5"" fill=""none"" />
    <circle cx=617.3973783228352 cy=540 r=17.68874172205385 stroke=""none"" stroke-width=""1.5"" fill=""none"" />
    <circle cx=684.89 cy=472.50737832283517 r=17.68874172205385 stroke=""none"" stroke-width=""1.5"" fill=""none"" />
    <polygon points = ""684.89,540 689.8657546027051,557.6887417220538 679.9142453972948,557.6887417220538"" stroke=""none"" stroke-width=""3"" fill = ""none"" />
    
    </svg>
    </div>
        ","","","","","","","","","","","","","","","","","","","","","","","","","","","","",""
"html-keyboard-response","89","197681","0.0-89.0","null","null","","
    <div style="" display: block;  position: relative;"">
    <svg width=1920 height=1080>
    
    <circle cx=897 cy=540 r=12.382119205437695 stroke=""black"" stroke-width=""1"" fill=""black"" />
    <circle cx=1109.1100000000001 cy=540 r=17.68874172205385 stroke=""black"" stroke-width=""1.5"" fill=""none"" />
    <circle cx=1176.602621677165 cy=540 r=17.68874172205385 stroke=""black"" stroke-width=""1.5"" fill=""none"" />
    <circle cx=1109.1100000000001 cy=607.4926216771648 r=17.68874172205385 stroke=""black"" stroke-width=""1.5"" fill=""none"" />
    <circle cx=1041.6173783228353 cy=540 r=17.68874172205385 stroke=""black"" stroke-width=""1.5"" fill=""none"" />
    <circle cx=1109.1100000000001 cy=472.50737832283517 r=17.68874172205385 stroke=""black"" stroke-width=""1.5"" fill=""none"" />
    <polygon points = ""1109.1100000000001,540 1114.0857546027053,522.3112582779462 1104.134245397295,522.3112582779462"" stroke=""white"" stroke-width=""3"" fill = ""white"" />
    
    </svg>
    </div>
        ","","","","","","","","","","","","stimulus","","","","","","","","","","","","","","","","",""
"html-keyboard-response","90","198483","0.0-90.0","801.8999999999069","arrowup","","
    <div style="" display: block;  position: relative;"">
    
    <svg width=1920 height=1080>
    <circle cx=897 cy=540 r=12.382119205437695 stroke=""black"" stroke-width=""1"" fill=""black"" />
    <circle cx=1176.602621677165 cy=540 r=17.68874172205385 stroke=""none"" stroke-width=""1.5"" fill=""none"" />
    <circle cx=1109.1100000000001 cy=607.4926216771648 r=17.68874172205385 stroke=""none"" stroke-width=""1.5"" fill=""none"" />
    <circle cx=1041.6173783228353 cy=540 r=17.68874172205385 stroke=""none"" stroke-width=""1.5"" fill=""none"" />
    <circle cx=1109.1100000000001 cy=472.50737832283517 r=17.68874172205385 stroke=""none"" stroke-width=""1.5"" fill=""none"" />
    <polygon points = ""1109.1100000000001,540 1114.0857546027053,522.3112582779462 1104.134245397295,522.3112582779462"" stroke=""none"" stroke-width=""3"" fill = ""none"" />
    
    </svg>
    </div>
        ","","","","","","","","","","","","get_response","true","1H4fzfqkHFCs2b3h","","","false","true","false","212.11","6","508.31000000000006","67.49262167716482","1.9","1","0","","",""
"html-keyboard-response","91","198985","0.0-91.0","null","null","","
    <div style="" display: block;  position: relative;"">
    
    <svg width=1920 height=1080>
    <circle cx=897 cy=540 r=12.382119205437695 stroke=""black"" stroke-width=""1"" fill=""black"" />
    <circle cx=1176.602621677165 cy=540 r=17.68874172205385 stroke=""none"" stroke-width=""1.5"" fill=""none"" />
    <circle cx=1109.1100000000001 cy=607.4926216771648 r=17.68874172205385 stroke=""none"" stroke-width=""1.5"" fill=""none"" />
    <circle cx=1041.6173783228353 cy=540 r=17.68874172205385 stroke=""none"" stroke-width=""1.5"" fill=""none"" />
    <circle cx=1109.1100000000001 cy=472.50737832283517 r=17.68874172205385 stroke=""none"" stroke-width=""1.5"" fill=""none"" />
    <polygon points = ""1109.1100000000001,540 1114.0857546027053,522.3112582779462 1104.134245397295,522.3112582779462"" stroke=""none"" stroke-width=""3"" fill = ""none"" />
    
    </svg>
    </div>
        ","","","","","","","","","","","","","","","","","","","","","","","","","","","","",""
"html-keyboard-response","92","199137","0.0-92.0","null","null","","
    <div style="" display: block;  position: relative;"">
    <svg width=1920 height=1080>
    
    <circle cx=897 cy=540 r=12.382119205437695 stroke=""black"" stroke-width=""1"" fill=""black"" />
    <circle cx=1109.1100000000001 cy=540 r=17.68874172205385 stroke=""black"" stroke-width=""1.5"" fill=""none"" />
    <circle cx=1170.4669287974227 cy=540 r=17.68874172205385 stroke=""black"" stroke-width=""1.5"" fill=""none"" />
    <circle cx=1109.1100000000001 cy=601.3569287974226 r=17.68874172205385 stroke=""black"" stroke-width=""1.5"" fill=""none"" />
    <circle cx=1047.7530712025775 cy=540 r=17.68874172205385 stroke=""black"" stroke-width=""1.5"" fill=""none"" />
    <circle cx=1109.1100000000001 cy=478.64307120257746 r=17.68874172205385 stroke=""black"" stroke-width=""1.5"" fill=""none"" />
    <polygon points = ""1109.1100000000001,540 1114.0857546027053,557.6887417220538 1104.134245397295,557.6887417220538"" stroke=""white"" stroke-width=""3"" fill = ""white"" />
    
    </svg>
    </div>
        ","","","","","","","","","","","","stimulus","","","","","","","","","","","","","","","","",""
"html-keyboard-response","93","199619","0.0-93.0","481.19999999995343","arrowdown","","
    <div style="" display: block;  position: relative;"">
    
    <svg width=1920 height=1080>
    <circle cx=897 cy=540 r=12.382119205437695 stroke=""black"" stroke-width=""1"" fill=""black"" />
    <circle cx=1170.4669287974227 cy=540 r=17.68874172205385 stroke=""none"" stroke-width=""1.5"" fill=""none"" />
    <circle cx=1109.1100000000001 cy=601.3569287974226 r=17.68874172205385 stroke=""none"" stroke-width=""1.5"" fill=""none"" />
    <circle cx=1047.7530712025775 cy=540 r=17.68874172205385 stroke=""none"" stroke-width=""1.5"" fill=""none"" />
    <circle cx=1109.1100000000001 cy=478.64307120257746 r=17.68874172205385 stroke=""none"" stroke-width=""1.5"" fill=""none"" />
    <polygon points = ""1109.1100000000001,540 1114.0857546027053,557.6887417220538 1104.134245397295,557.6887417220538"" stroke=""none"" stroke-width=""3"" fill = ""none"" />
    
    </svg>
    </div>
        ","","","","","","","","","","","","get_response","true","1H4fzfqkHFCs2b3h","","","false","false","false","212.11","6","508.31000000000006","61.35692879742256","1.73","1","0","","",""
"html-keyboard-response","94","200120","0.0-94.0","null","null","","
    <div style="" display: block;  position: relative;"">
    
    <svg width=1920 height=1080>
    <circle cx=897 cy=540 r=12.382119205437695 stroke=""black"" stroke-width=""1"" fill=""black"" />
    <circle cx=1170.4669287974227 cy=540 r=17.68874172205385 stroke=""none"" stroke-width=""1.5"" fill=""none"" />
    <circle cx=1109.1100000000001 cy=601.3569287974226 r=17.68874172205385 stroke=""none"" stroke-width=""1.5"" fill=""none"" />
    <circle cx=1047.7530712025775 cy=540 r=17.68874172205385 stroke=""none"" stroke-width=""1.5"" fill=""none"" />
    <circle cx=1109.1100000000001 cy=478.64307120257746 r=17.68874172205385 stroke=""none"" stroke-width=""1.5"" fill=""none"" />
    <polygon points = ""1109.1100000000001,540 1114.0857546027053,557.6887417220538 1104.134245397295,557.6887417220538"" stroke=""none"" stroke-width=""3"" fill = ""none"" />
    
    </svg>
    </div>
        ","","","","","","","","","","","","","","","","","","","","","","","","","","","","",""
"html-keyboard-response","95","200271","0.0-95.0","null","null","","
    <div style="" display: block;  position: relative;"">
    <svg width=1920 height=1080>
    
