"trial_type","trial_index","time_elapsed","internal_node_id","rt","response","success","stimulus","start_time","start_time_unix","item_width_mm","item_height_mm","item_width_px","px2mm","view_dist_mm","item_width_deg","px2deg","win_width_deg","win_height_deg","trialType","correct","participantID","criticalSpacing","criticalSpacing_deg","isLeft","isUp","isEccen4","eccentricity","eccentricity_deg","viewingDistanceMean","critical_spacing","critical_spacing_deg","crowding_session","correctRate","viewDistance_1","viewDistance_2","viewDistance_3"
"pavlovia","0","4","0.0-0.0","","","","","","","","","","","","","","","","","","","","","","","","","","","","","","","","",""
"survey-text","1","15399","0.0-1.0","15329.099999964237","{""Q0"":""""}","","","","","","","","","","","","","","","","","","","","","","","","","","","","","","",""
"fullscreen","2","19770","0.0-2.0","","","true","","","","","","","","","","","","","","","","","","","","","","","","","","","","","",""
"html-keyboard-response","3","52396","0.0-3.0","32623.600000023842","j","","<h1>Consent Form</h1>
       <p>By answering the following questions, you are participating in a study being performed by cognitive scientists in the Stanford Department of Psychology. If you have questions about this research, please contact us at stanfordpsych251@gmail.com. You must be at least 18 years old to participate. Your participation in this research is voluntary. You may decline to answer any or all of the following questions. You may decline further participation by closing the window, at any time, without adverse consequences. Your anonymity is assured; the researchers who have requested your participation will not receive any personal information about you.</p>
       <p>Press <b>any key</b> to start the experiment!</p>","","","","","","","","","","","","","","","","","","","","","","","","","","","","",""
"html-keyboard-response","4","59941","0.0-4.0","7541.600000023842","m","","<h1>Welcome to the Visual Crowding Experiment!</h1>
       <p>This test will take <b>10-12</b> minutes to complete.</p>
       <p>Press any key to start the experiment!</p>","12/1/2021, 9:18:33 AM","1638343113380","","","","","","","","","","","","","","","","","","","","","","","","","","",""
"html-keyboard-response","5","81942","0.0-5.0","21996.400000035763","arrowdown","","<div> 
<p> Before you begin this study, let&#39;s quickly test how far away you are sitting. You might know that vision tests at a doctor&#39;s practice often involve chinrests, the doctor basically asks you to sit away from a screen in a specific distance. We do this here with a <b>virtual chinrest</b>. </p>
<p> Please press the <b>down</b> arrow to continue.
</p>
</div>","","","","","","","","","","","","","","","","","","","","","","","","","","","","",""
"virtual-chinrest","6","325966","0.0-6.0","244022","","","","","","85.6","53.98","376","4.39","587.68","8.330851797963028","45.133440027337365","30.26580732983377","17.01620792775427","","","","","","","","","","","","","","","","","",""
"html-keyboard-response","7","402087","0.0-7.0","76104.5","arrowdown","","
	<h2 class=""bolded-blue"">Now, you will take a peripheral vision test!</h2>
<p> 
	<b>
		<font size=""140%"">1. </font>
	</b>
	<em><b>Please use both eyes for the following task.</b></em> First, you will see a screen (like the one in the image below) showing a <b>black dot</b> in the middle of the screen, with a group of circles displayed on either the <span class=""bolded-blue"">left</span> or <span class=""bolded-blue"">right</span> of the black dot for 150 ms. <span class=""bolded-blue"">Please make sure to focus on the black dot all the time!</span>

	<div>
		<img src=""example.png"" alt=""example"" style=""border: 2px solid black"" width=""600""/> 
	</div>
	
	<b>
		<font size=""140%"">2. </font>
	</b>
	Your task is to identify whether the opening of the <b class=""bolded-blue"">center circle</b> is upward by pressing UP or downward by pressing DOWN on your keyboard. The opening of the circle will only be upward or downward, not towards left or right.

	<div>
		<img src=""arrow_keys+.png"" alt=""arrows"" style=""border: 2px solid black"" width=""600""/>
	</div>
	<br>

<p>Please press the <b>down</b> arrow key to start the <span class=""bolded-blue"">practice task</span> (this first practice task will not count toward your final results).</p>
</p>
","","","","","","","","","","","","","","","","","","","","","","","","","","","","",""
"html-keyboard-response","8","402622","0.0-8.0","null","null","","
    <div style="" display: block;  position: relative;"">
    
    <svg width=1366 height=768>
    <circle cx=620 cy=384 r=16.095086592761234 stroke=""black"" stroke-width=""1"" fill=""black"" />
    <circle cx=NaN cy=384 r=22.992980846801764 stroke=""none"" stroke-width=""1.5"" fill=""none"" />
    <circle cx=435.82 cy=NaN r=22.992980846801764 stroke=""none"" stroke-width=""1.5"" fill=""none"" />
    <circle cx=NaN cy=384 r=22.992980846801764 stroke=""none"" stroke-width=""1.5"" fill=""none"" />
    <circle cx=435.82 cy=NaN r=22.992980846801764 stroke=""none"" stroke-width=""1.5"" fill=""none"" />
    <polygon points = ""435.82,384 442.2878105473011,406.99298084680174 429.3521894526989,406.99298084680174"" stroke=""none"" stroke-width=""3"" fill = ""none"" />
    
    </svg>
    </div>
        ","","","","","","","","","","","","","","","","","","","","","","","","","","","","",""
"html-keyboard-response","9","402795","0.0-9.0","null","null","","
    <div style="" display: block;  position: relative;"">
    <svg width=1366 height=768>
    
    <circle cx=620 cy=384 r=16.095086592761234 stroke=""black"" stroke-width=""1"" fill=""black"" />
    <circle cx=804.1800000000001 cy=384 r=22.992980846801764 stroke=""black"" stroke-width=""1.5"" fill=""none"" />
    <circle cx=923.897 cy=384 r=22.992980846801764 stroke=""black"" stroke-width=""1.5"" fill=""none"" />
    <circle cx=804.1800000000001 cy=503.717 r=22.992980846801764 stroke=""black"" stroke-width=""1.5"" fill=""none"" />
    <circle cx=684.4630000000001 cy=384 r=22.992980846801764 stroke=""black"" stroke-width=""1.5"" fill=""none"" />
    <circle cx=804.1800000000001 cy=264.283 r=22.992980846801764 stroke=""black"" stroke-width=""1.5"" fill=""none"" />
    <polygon points = ""804.1800000000001,384 810.6478105473012,406.99298084680174 797.7121894526989,406.99298084680174"" stroke=""white"" stroke-width=""3"" fill = ""white"" />
    
    </svg>
    </div>
        ","","","","","","","","","","","","stimulus","","","","","","","","","","","","","","","","",""
"html-keyboard-response","10","406122","0.0-10.0","3325.2000000476837","arrowup","","
    <div style="" display: block;  position: relative;"">
    
    <svg width=1366 height=768>
    <circle cx=620 cy=384 r=16.095086592761234 stroke=""black"" stroke-width=""1"" fill=""black"" />
    <circle cx=923.897 cy=384 r=22.992980846801764 stroke=""none"" stroke-width=""1.5"" fill=""none"" />
    <circle cx=804.1800000000001 cy=503.717 r=22.992980846801764 stroke=""none"" stroke-width=""1.5"" fill=""none"" />
    <circle cx=684.4630000000001 cy=384 r=22.992980846801764 stroke=""none"" stroke-width=""1.5"" fill=""none"" />
    <circle cx=804.1800000000001 cy=264.283 r=22.992980846801764 stroke=""none"" stroke-width=""1.5"" fill=""none"" />
    <polygon points = ""804.1800000000001,384 810.6478105473012,406.99298084680174 797.7121894526989,406.99298084680174"" stroke=""none"" stroke-width=""3"" fill = ""none"" />
    
    </svg>
    </div>
        ","","","","","","","","","","","","practice_get_response","false","29WmGHwoMXuxRb4r","119.71700000000001","2.6","false","false","false","184.18","4","602.036","","","","","","",""
"html-keyboard-response","11","406634","0.0-11.0","null","null","","
    <div style="" display: block;  position: relative;"">
    
    <svg width=1366 height=768>
    <circle cx=620 cy=384 r=16.095086592761234 stroke=""black"" stroke-width=""1"" fill=""black"" />
    <circle cx=923.897 cy=384 r=22.992980846801764 stroke=""none"" stroke-width=""1.5"" fill=""none"" />
    <circle cx=804.1800000000001 cy=503.717 r=22.992980846801764 stroke=""none"" stroke-width=""1.5"" fill=""none"" />
    <circle cx=684.4630000000001 cy=384 r=22.992980846801764 stroke=""none"" stroke-width=""1.5"" fill=""none"" />
    <circle cx=804.1800000000001 cy=264.283 r=22.992980846801764 stroke=""none"" stroke-width=""1.5"" fill=""none"" />
    <polygon points = ""804.1800000000001,384 810.6478105473012,406.99298084680174 797.7121894526989,406.99298084680174"" stroke=""none"" stroke-width=""3"" fill = ""none"" />
    
    </svg>
    </div>
        ","","","","","","","","","","","","","","","","","","","","","","","","","","","","",""
"html-keyboard-response","12","406791","0.0-12.0","null","null","","
    <div style="" display: block;  position: relative;"">
    <svg width=1366 height=768>
    
    <circle cx=620 cy=384 r=16.095086592761234 stroke=""black"" stroke-width=""1"" fill=""black"" />
    <circle cx=435.82 cy=384 r=22.992980846801764 stroke=""black"" stroke-width=""1.5"" fill=""none"" />
    <circle cx=568.848076612793 cy=384 r=22.992980846801764 stroke=""black"" stroke-width=""1.5"" fill=""none"" />
    <circle cx=435.82 cy=517.0280766127929 r=22.992980846801764 stroke=""black"" stroke-width=""1.5"" fill=""none"" />
    <circle cx=302.791923387207 cy=384 r=22.992980846801764 stroke=""black"" stroke-width=""1.5"" fill=""none"" />
    <circle cx=435.82 cy=250.97192338720706 r=22.992980846801764 stroke=""black"" stroke-width=""1.5"" fill=""none"" />
    <polygon points = ""435.82,384 442.2878105473011,361.00701915319826 429.3521894526989,361.00701915319826"" stroke=""white"" stroke-width=""3"" fill = ""white"" />
    
    </svg>
    </div>
        ","","","","","","","","","","","","stimulus","","","","","","","","","","","","","","","","",""
"html-keyboard-response","13","407443","0.0-13.0","648.8000000119209","arrowup","","
    <div style="" display: block;  position: relative;"">
    
    <svg width=1366 height=768>
    <circle cx=620 cy=384 r=16.095086592761234 stroke=""black"" stroke-width=""1"" fill=""black"" />
    <circle cx=568.848076612793 cy=384 r=22.992980846801764 stroke=""none"" stroke-width=""1.5"" fill=""none"" />
    <circle cx=435.82 cy=517.0280766127929 r=22.992980846801764 stroke=""none"" stroke-width=""1.5"" fill=""none"" />
    <circle cx=302.791923387207 cy=384 r=22.992980846801764 stroke=""none"" stroke-width=""1.5"" fill=""none"" />
    <circle cx=435.82 cy=250.97192338720706 r=22.992980846801764 stroke=""none"" stroke-width=""1.5"" fill=""none"" />
    <polygon points = ""435.82,384 442.2878105473011,361.00701915319826 429.3521894526989,361.00701915319826"" stroke=""none"" stroke-width=""3"" fill = ""none"" />
    
    </svg>
    </div>
        ","","","","","","","","","","","","practice_get_response","true","29WmGHwoMXuxRb4r","133.02807661279294","2.89","true","true","false","184.18","4","602.036","","","","","","",""
"html-keyboard-response","14","407953","0.0-14.0","null","null","","
    <div style="" display: block;  position: relative;"">
    
    <svg width=1366 height=768>
    <circle cx=620 cy=384 r=16.095086592761234 stroke=""black"" stroke-width=""1"" fill=""black"" />
    <circle cx=568.848076612793 cy=384 r=22.992980846801764 stroke=""none"" stroke-width=""1.5"" fill=""none"" />
    <circle cx=435.82 cy=517.0280766127929 r=22.992980846801764 stroke=""none"" stroke-width=""1.5"" fill=""none"" />
    <circle cx=302.791923387207 cy=384 r=22.992980846801764 stroke=""none"" stroke-width=""1.5"" fill=""none"" />
    <circle cx=435.82 cy=250.97192338720706 r=22.992980846801764 stroke=""none"" stroke-width=""1.5"" fill=""none"" />
    <polygon points = ""435.82,384 442.2878105473011,361.00701915319826 429.3521894526989,361.00701915319826"" stroke=""none"" stroke-width=""3"" fill = ""none"" />
    
    </svg>
    </div>
        ","","","","","","","","","","","","","","","","","","","","","","","","","","","","",""
"html-keyboard-response","15","408111","0.0-15.0","null","null","","
    <div style="" display: block;  position: relative;"">
    <svg width=1366 height=768>
    
    <circle cx=620 cy=384 r=16.095086592761234 stroke=""black"" stroke-width=""1"" fill=""black"" />
    <circle cx=435.82 cy=384 r=22.992980846801764 stroke=""black"" stroke-width=""1.5"" fill=""none"" />
    <circle cx=568.848076612793 cy=384 r=22.992980846801764 stroke=""black"" stroke-width=""1.5"" fill=""none"" />
    <circle cx=435.82 cy=517.0280766127929 r=22.992980846801764 stroke=""black"" stroke-width=""1.5"" fill=""none"" />
    <circle cx=302.791923387207 cy=384 r=22.992980846801764 stroke=""black"" stroke-width=""1.5"" fill=""none"" />
    <circle cx=435.82 cy=250.97192338720706 r=22.992980846801764 stroke=""black"" stroke-width=""1.5"" fill=""none"" />
    <polygon points = ""435.82,384 442.2878105473011,406.99298084680174 429.3521894526989,406.99298084680174"" stroke=""white"" stroke-width=""3"" fill = ""white"" />
    
    </svg>
    </div>
        ","","","","","","","","","","","","stimulus","","","","","","","","","","","","","","","","",""
"html-keyboard-response","16","408554","0.0-16.0","439.30000001192093","arrowdown","","
    <div style="" display: block;  position: relative;"">
    
    <svg width=1366 height=768>
    <circle cx=620 cy=384 r=16.095086592761234 stroke=""black"" stroke-width=""1"" fill=""black"" />
    <circle cx=568.848076612793 cy=384 r=22.992980846801764 stroke=""none"" stroke-width=""1.5"" fill=""none"" />
    <circle cx=435.82 cy=517.0280766127929 r=22.992980846801764 stroke=""none"" stroke-width=""1.5"" fill=""none"" />
    <circle cx=302.791923387207 cy=384 r=22.992980846801764 stroke=""none"" stroke-width=""1.5"" fill=""none"" />
    <circle cx=435.82 cy=250.97192338720706 r=22.992980846801764 stroke=""none"" stroke-width=""1.5"" fill=""none"" />
    <polygon points = ""435.82,384 442.2878105473011,406.99298084680174 429.3521894526989,406.99298084680174"" stroke=""none"" stroke-width=""3"" fill = ""none"" />
    
    </svg>
    </div>
        ","","","","","","","","","","","","practice_get_response","true","29WmGHwoMXuxRb4r","133.02807661279294","2.89","true","false","false","184.18","4","602.036","","","","","","",""
"html-keyboard-response","17","409072","0.0-17.0","null","null","","
    <div style="" display: block;  position: relative;"">
    
    <svg width=1366 height=768>
    <circle cx=620 cy=384 r=16.095086592761234 stroke=""black"" stroke-width=""1"" fill=""black"" />
    <circle cx=568.848076612793 cy=384 r=22.992980846801764 stroke=""none"" stroke-width=""1.5"" fill=""none"" />
    <circle cx=435.82 cy=517.0280766127929 r=22.992980846801764 stroke=""none"" stroke-width=""1.5"" fill=""none"" />
    <circle cx=302.791923387207 cy=384 r=22.992980846801764 stroke=""none"" stroke-width=""1.5"" fill=""none"" />
    <circle cx=435.82 cy=250.97192338720706 r=22.992980846801764 stroke=""none"" stroke-width=""1.5"" fill=""none"" />
    <polygon points = ""435.82,384 442.2878105473011,406.99298084680174 429.3521894526989,406.99298084680174"" stroke=""none"" stroke-width=""3"" fill = ""none"" />
    
    </svg>
    </div>
        ","","","","","","","","","","","","","","","","","","","","","","","","","","","","",""
"html-keyboard-response","18","409230","0.0-18.0","null","null","","
    <div style="" display: block;  position: relative;"">
    <svg width=1366 height=768>
    
    <circle cx=620 cy=384 r=16.095086592761234 stroke=""black"" stroke-width=""1"" fill=""black"" />
    <circle cx=435.82 cy=384 r=22.992980846801764 stroke=""black"" stroke-width=""1.5"" fill=""none"" />
    <circle cx=568.848076612793 cy=384 r=22.992980846801764 stroke=""black"" stroke-width=""1.5"" fill=""none"" />
    <circle cx=435.82 cy=517.0280766127929 r=22.992980846801764 stroke=""black"" stroke-width=""1.5"" fill=""none"" />
    <circle cx=302.791923387207 cy=384 r=22.992980846801764 stroke=""black"" stroke-width=""1.5"" fill=""none"" />
    <circle cx=435.82 cy=250.97192338720706 r=22.992980846801764 stroke=""black"" stroke-width=""1.5"" fill=""none"" />
    <polygon points = ""435.82,384 442.2878105473011,406.99298084680174 429.3521894526989,406.99298084680174"" stroke=""white"" stroke-width=""3"" fill = ""white"" />
    
    </svg>
    </div>
        ","","","","","","","","","","","","stimulus","","","","","","","","","","","","","","","","",""
"html-keyboard-response","19","409533","0.0-19.0","299.39999997615814","arrowdown","","
    <div style="" display: block;  position: relative;"">
    
    <svg width=1366 height=768>
    <circle cx=620 cy=384 r=16.095086592761234 stroke=""black"" stroke-width=""1"" fill=""black"" />
    <circle cx=568.848076612793 cy=384 r=22.992980846801764 stroke=""none"" stroke-width=""1.5"" fill=""none"" />
    <circle cx=435.82 cy=517.0280766127929 r=22.992980846801764 stroke=""none"" stroke-width=""1.5"" fill=""none"" />
    <circle cx=302.791923387207 cy=384 r=22.992980846801764 stroke=""none"" stroke-width=""1.5"" fill=""none"" />
    <circle cx=435.82 cy=250.97192338720706 r=22.992980846801764 stroke=""none"" stroke-width=""1.5"" fill=""none"" />
    <polygon points = ""435.82,384 442.2878105473011,406.99298084680174 429.3521894526989,406.99298084680174"" stroke=""none"" stroke-width=""3"" fill = ""none"" />
    
    </svg>
    </div>
        ","","","","","","","","","","","","practice_get_response","true","29WmGHwoMXuxRb4r","133.02807661279294","2.89","true","false","false","184.18","4","602.036","","","","","","",""
"html-keyboard-response","20","410051","0.0-20.0","null","null","","
    <div style="" display: block;  position: relative;"">
    
    <svg width=1366 height=768>
    <circle cx=620 cy=384 r=16.095086592761234 stroke=""black"" stroke-width=""1"" fill=""black"" />
    <circle cx=568.848076612793 cy=384 r=22.992980846801764 stroke=""none"" stroke-width=""1.5"" fill=""none"" />
    <circle cx=435.82 cy=517.0280766127929 r=22.992980846801764 stroke=""none"" stroke-width=""1.5"" fill=""none"" />
    <circle cx=302.791923387207 cy=384 r=22.992980846801764 stroke=""none"" stroke-width=""1.5"" fill=""none"" />
    <circle cx=435.82 cy=250.97192338720706 r=22.992980846801764 stroke=""none"" stroke-width=""1.5"" fill=""none"" />
    <polygon points = ""435.82,384 442.2878105473011,406.99298084680174 429.3521894526989,406.99298084680174"" stroke=""none"" stroke-width=""3"" fill = ""none"" />
    
    </svg>
    </div>
        ","","","","","","","","","","","","","","","","","","","","","","","","","","","","",""
"html-keyboard-response","21","410208","0.0-21.0","null","null","","
    <div style="" display: block;  position: relative;"">
    <svg width=1366 height=768>
    
    <circle cx=620 cy=384 r=16.095086592761234 stroke=""black"" stroke-width=""1"" fill=""black"" />
    <circle cx=804.1800000000001 cy=384 r=22.992980846801764 stroke=""black"" stroke-width=""1.5"" fill=""none"" />
    <circle cx=925.1146151025391 cy=384 r=22.992980846801764 stroke=""black"" stroke-width=""1.5"" fill=""none"" />
    <circle cx=804.1800000000001 cy=504.93461510253906 r=22.992980846801764 stroke=""black"" stroke-width=""1.5"" fill=""none"" />
    <circle cx=683.245384897461 cy=384 r=22.992980846801764 stroke=""black"" stroke-width=""1.5"" fill=""none"" />
    <circle cx=804.1800000000001 cy=263.06538489746094 r=22.992980846801764 stroke=""black"" stroke-width=""1.5"" fill=""none"" />
    <polygon points = ""804.1800000000001,384 810.6478105473012,361.00701915319826 797.7121894526989,361.00701915319826"" stroke=""white"" stroke-width=""3"" fill = ""white"" />
    
    </svg>
    </div>
        ","","","","","","","","","","","","stimulus","","","","","","","","","","","","","","","","",""
"html-keyboard-response","22","410682","0.0-22.0","469.5","arrowup","","
    <div style="" display: block;  position: relative;"">
    
    <svg width=1366 height=768>
    <circle cx=620 cy=384 r=16.095086592761234 stroke=""black"" stroke-width=""1"" fill=""black"" />
    <circle cx=925.1146151025391 cy=384 r=22.992980846801764 stroke=""none"" stroke-width=""1.5"" fill=""none"" />
    <circle cx=804.1800000000001 cy=504.93461510253906 r=22.992980846801764 stroke=""none"" stroke-width=""1.5"" fill=""none"" />
    <circle cx=683.245384897461 cy=384 r=22.992980846801764 stroke=""none"" stroke-width=""1.5"" fill=""none"" />
    <circle cx=804.1800000000001 cy=263.06538489746094 r=22.992980846801764 stroke=""none"" stroke-width=""1.5"" fill=""none"" />
    <polygon points = ""804.1800000000001,384 810.6478105473012,361.00701915319826 797.7121894526989,361.00701915319826"" stroke=""none"" stroke-width=""3"" fill = ""none"" />
    
    </svg>
    </div>
        ","","","","","","","","","","","","practice_get_response","true","29WmGHwoMXuxRb4r","120.93461510253903","2.62","false","true","false","184.18","4","602.036","","","","","","",""
"html-keyboard-response","23","424927","0.0-23.0","14242.900000035763","arrowdown","","<div> 
<h2 class=""bolded-blue"">Well done!</h2>
<p> Now that you have the hang of it, we&#39;ll start the study. This session has 25 trials and takes about 2 minute to complete. </p> 
<p>If you are ready for the real deal, please press the <b>down</b> arrow to continue.
</p>
</div>","","","","","","","","","","","","","","","","","","","","","","","","","","","","",""
"html-keyboard-response","24","440917","0.0-24.0","15986.100000023842","arrowdown","","<div id=""continue""> 
<p>Again, please keep the <b>full screen</b> mode for the best experience.</p>
<p>Please do not move around and keep your eye on the black dot. Click <b>up</b> or <b>down</b> key on your keyboard to indicate the opening of the center circle. Make your best guess!</p>
<p>Please press the <b>down</b> arrow key to start the session 1. </p>
</div>","","","","","","","","","","","","","","","","","","","","","","","","","","","","",""
"html-keyboard-response","25","441430","0.0-25.0","null","null","","
    <div style="" display: block;  position: relative;"">
    
    <svg width=1366 height=768>
    <circle cx=620 cy=384 r=16.095086592761234 stroke=""black"" stroke-width=""1"" fill=""black"" />
    <circle cx=556.754615102539 cy=384 r=22.992980846801764 stroke=""none"" stroke-width=""1.5"" fill=""none"" />
    <circle cx=435.82 cy=504.93461510253906 r=22.992980846801764 stroke=""none"" stroke-width=""1.5"" fill=""none"" />
    <circle cx=314.885384897461 cy=384 r=22.992980846801764 stroke=""none"" stroke-width=""1.5"" fill=""none"" />
    <circle cx=435.82 cy=263.06538489746094 r=22.992980846801764 stroke=""none"" stroke-width=""1.5"" fill=""none"" />
    <polygon points = ""435.82,384 442.2878105473011,406.99298084680174 429.3521894526989,406.99298084680174"" stroke=""none"" stroke-width=""3"" fill = ""none"" />
    
    </svg>
    </div>
        ","","","","","","","","","","","","","","","","","","","","","","","","","","","","",""
"html-keyboard-response","26","441599","0.0-26.0","null","null","","
    <div style="" display: block;  position: relative;"">
    <svg width=1366 height=768>
    
    <circle cx=620 cy=384 r=16.095086592761234 stroke=""black"" stroke-width=""1"" fill=""black"" />
    <circle cx=804.1800000000001 cy=384 r=22.992980846801764 stroke=""black"" stroke-width=""1.5"" fill=""none"" />
    <circle cx=923.897 cy=384 r=22.992980846801764 stroke=""black"" stroke-width=""1.5"" fill=""none"" />
    <circle cx=804.1800000000001 cy=503.717 r=22.992980846801764 stroke=""black"" stroke-width=""1.5"" fill=""none"" />
    <circle cx=684.4630000000001 cy=384 r=22.992980846801764 stroke=""black"" stroke-width=""1.5"" fill=""none"" />
    <circle cx=804.1800000000001 cy=264.283 r=22.992980846801764 stroke=""black"" stroke-width=""1.5"" fill=""none"" />
    <polygon points = ""804.1800000000001,384 810.6478105473012,406.99298084680174 797.7121894526989,406.99298084680174"" stroke=""white"" stroke-width=""3"" fill = ""white"" />
    
    </svg>
    </div>
        ","","","","","","","","","","","","stimulus","","","","","","","","","","","","","","","","",""
"html-keyboard-response","27","441992","0.0-27.0","391","arrowdown","","
    <div style="" display: block;  position: relative;"">
    
    <svg width=1366 height=768>
    <circle cx=620 cy=384 r=16.095086592761234 stroke=""black"" stroke-width=""1"" fill=""black"" />
    <circle cx=923.897 cy=384 r=22.992980846801764 stroke=""none"" stroke-width=""1.5"" fill=""none"" />
    <circle cx=804.1800000000001 cy=503.717 r=22.992980846801764 stroke=""none"" stroke-width=""1.5"" fill=""none"" />
    <circle cx=684.4630000000001 cy=384 r=22.992980846801764 stroke=""none"" stroke-width=""1.5"" fill=""none"" />
    <circle cx=804.1800000000001 cy=264.283 r=22.992980846801764 stroke=""none"" stroke-width=""1.5"" fill=""none"" />
    <polygon points = ""804.1800000000001,384 810.6478105473012,406.99298084680174 797.7121894526989,406.99298084680174"" stroke=""none"" stroke-width=""3"" fill = ""none"" />
    
    </svg>
    </div>
        ","","","","","","","","","","","","get_response","true","29WmGHwoMXuxRb4r","","","false","false","false","184.18","4","602.036","119.71700000000001","2.6","1","0","","",""
"html-keyboard-response","28","442507","0.0-28.0","null","null","","
    <div style="" display: block;  position: relative;"">
    
    <svg width=1366 height=768>
    <circle cx=620 cy=384 r=16.095086592761234 stroke=""black"" stroke-width=""1"" fill=""black"" />
    <circle cx=923.897 cy=384 r=22.992980846801764 stroke=""none"" stroke-width=""1.5"" fill=""none"" />
    <circle cx=804.1800000000001 cy=503.717 r=22.992980846801764 stroke=""none"" stroke-width=""1.5"" fill=""none"" />
    <circle cx=684.4630000000001 cy=384 r=22.992980846801764 stroke=""none"" stroke-width=""1.5"" fill=""none"" />
    <circle cx=804.1800000000001 cy=264.283 r=22.992980846801764 stroke=""none"" stroke-width=""1.5"" fill=""none"" />
    <polygon points = ""804.1800000000001,384 810.6478105473012,406.99298084680174 797.7121894526989,406.99298084680174"" stroke=""none"" stroke-width=""3"" fill = ""none"" />
    
    </svg>
    </div>
        ","","","","","","","","","","","","","","","","","","","","","","","","","","","","",""
"html-keyboard-response","29","442664","0.0-29.0","null","null","","
    <div style="" display: block;  position: relative;"">
    <svg width=1366 height=768>
    
    <circle cx=620 cy=384 r=16.095086592761234 stroke=""black"" stroke-width=""1"" fill=""black"" />
    <circle cx=435.82 cy=384 r=22.992980846801764 stroke=""black"" stroke-width=""1.5"" fill=""none"" />
    <circle cx=555.537 cy=384 r=22.992980846801764 stroke=""black"" stroke-width=""1.5"" fill=""none"" />
    <circle cx=435.82 cy=503.717 r=22.992980846801764 stroke=""black"" stroke-width=""1.5"" fill=""none"" />
    <circle cx=316.10299999999995 cy=384 r=22.992980846801764 stroke=""black"" stroke-width=""1.5"" fill=""none"" />
    <circle cx=435.82 cy=264.283 r=22.992980846801764 stroke=""black"" stroke-width=""1.5"" fill=""none"" />
    <polygon points = ""435.82,384 442.2878105473011,406.99298084680174 429.3521894526989,406.99298084680174"" stroke=""white"" stroke-width=""3"" fill = ""white"" />
    
    </svg>
    </div>
        ","","","","","","","","","","","","stimulus","","","","","","","","","","","","","","","","",""
"html-keyboard-response","30","443155","0.0-30.0","488.69999998807907","arrowdown","","
    <div style="" display: block;  position: relative;"">
    
    <svg width=1366 height=768>
    <circle cx=620 cy=384 r=16.095086592761234 stroke=""black"" stroke-width=""1"" fill=""black"" />
    <circle cx=555.537 cy=384 r=22.992980846801764 stroke=""none"" stroke-width=""1.5"" fill=""none"" />
    <circle cx=435.82 cy=503.717 r=22.992980846801764 stroke=""none"" stroke-width=""1.5"" fill=""none"" />
    <circle cx=316.10299999999995 cy=384 r=22.992980846801764 stroke=""none"" stroke-width=""1.5"" fill=""none"" />
    <circle cx=435.82 cy=264.283 r=22.992980846801764 stroke=""none"" stroke-width=""1.5"" fill=""none"" />
    <polygon points = ""435.82,384 442.2878105473011,406.99298084680174 429.3521894526989,406.99298084680174"" stroke=""none"" stroke-width=""3"" fill = ""none"" />
    
    </svg>
    </div>
        ","","","","","","","","","","","","get_response","true","29WmGHwoMXuxRb4r","","","true","false","false","184.18","4","602.036","119.71700000000001","2.6","1","0","","",""
"html-keyboard-response","31","443657","0.0-31.0","null","null","","
    <div style="" display: block;  position: relative;"">
    
    <svg width=1366 height=768>
    <circle cx=620 cy=384 r=16.095086592761234 stroke=""black"" stroke-width=""1"" fill=""black"" />
    <circle cx=555.537 cy=384 r=22.992980846801764 stroke=""none"" stroke-width=""1.5"" fill=""none"" />
    <circle cx=435.82 cy=503.717 r=22.992980846801764 stroke=""none"" stroke-width=""1.5"" fill=""none"" />
    <circle cx=316.10299999999995 cy=384 r=22.992980846801764 stroke=""none"" stroke-width=""1.5"" fill=""none"" />
    <circle cx=435.82 cy=264.283 r=22.992980846801764 stroke=""none"" stroke-width=""1.5"" fill=""none"" />
    <polygon points = ""435.82,384 442.2878105473011,406.99298084680174 429.3521894526989,406.99298084680174"" stroke=""none"" stroke-width=""3"" fill = ""none"" />
    
    </svg>
    </div>
        ","","","","","","","","","","","","","","","","","","","","","","","","","","","","",""
"html-keyboard-response","32","443816","0.0-32.0","null","null","","
    <div style="" display: block;  position: relative;"">
    <svg width=1366 height=768>
    
    <circle cx=620 cy=384 r=16.095086592761234 stroke=""black"" stroke-width=""1"" fill=""black"" />
    <circle cx=804.1800000000001 cy=384 r=22.992980846801764 stroke=""black"" stroke-width=""1.5"" fill=""none"" />
    <circle cx=923.897 cy=384 r=22.992980846801764 stroke=""black"" stroke-width=""1.5"" fill=""none"" />
    <circle cx=804.1800000000001 cy=503.717 r=22.992980846801764 stroke=""black"" stroke-width=""1.5"" fill=""none"" />
    <circle cx=684.4630000000001 cy=384 r=22.992980846801764 stroke=""black"" stroke-width=""1.5"" fill=""none"" />
    <circle cx=804.1800000000001 cy=264.283 r=22.992980846801764 stroke=""black"" stroke-width=""1.5"" fill=""none"" />
    <polygon points = ""804.1800000000001,384 810.6478105473012,406.99298084680174 797.7121894526989,406.99298084680174"" stroke=""white"" stroke-width=""3"" fill = ""white"" />
    
    </svg>
    </div>
        ","","","","","","","","","","","","stimulus","","","","","","","","","","","","","","","","",""
"html-keyboard-response","33","444066","0.0-33.0","247.19999998807907","arrowdown","","
    <div style="" display: block;  position: relative;"">
    
    <svg width=1366 height=768>
    <circle cx=620 cy=384 r=16.095086592761234 stroke=""black"" stroke-width=""1"" fill=""black"" />
    <circle cx=923.897 cy=384 r=22.992980846801764 stroke=""none"" stroke-width=""1.5"" fill=""none"" />
    <circle cx=804.1800000000001 cy=503.717 r=22.992980846801764 stroke=""none"" stroke-width=""1.5"" fill=""none"" />
    <circle cx=684.4630000000001 cy=384 r=22.992980846801764 stroke=""none"" stroke-width=""1.5"" fill=""none"" />
    <circle cx=804.1800000000001 cy=264.283 r=22.992980846801764 stroke=""none"" stroke-width=""1.5"" fill=""none"" />
    <polygon points = ""804.1800000000001,384 810.6478105473012,406.99298084680174 797.7121894526989,406.99298084680174"" stroke=""none"" stroke-width=""3"" fill = ""none"" />
    
    </svg>
    </div>
        ","","","","","","","","","","","","get_response","true","29WmGHwoMXuxRb4r","","","false","false","false","184.18","4","602.036","119.71700000000001","2.6","1","0","","",""
"html-keyboard-response","34","444578","0.0-34.0","null","null","","
    <div style="" display: block;  position: relative;"">
    
    <svg width=1366 height=768>
    <circle cx=620 cy=384 r=16.095086592761234 stroke=""black"" stroke-width=""1"" fill=""black"" />
    <circle cx=923.897 cy=384 r=22.992980846801764 stroke=""none"" stroke-width=""1.5"" fill=""none"" />
    <circle cx=804.1800000000001 cy=503.717 r=22.992980846801764 stroke=""none"" stroke-width=""1.5"" fill=""none"" />
    <circle cx=684.4630000000001 cy=384 r=22.992980846801764 stroke=""none"" stroke-width=""1.5"" fill=""none"" />
    <circle cx=804.1800000000001 cy=264.283 r=22.992980846801764 stroke=""none"" stroke-width=""1.5"" fill=""none"" />
    <polygon points = ""804.1800000000001,384 810.6478105473012,406.99298084680174 797.7121894526989,406.99298084680174"" stroke=""none"" stroke-width=""3"" fill = ""none"" />
    
    </svg>
    </div>
        ","","","","","","","","","","","","","","","","","","","","","","","","","","","","",""
"html-keyboard-response","35","444736","0.0-35.0","null","null","","
    <div style="" display: block;  position: relative;"">
    <svg width=1366 height=768>
    
    <circle cx=620 cy=384 r=16.095086592761234 stroke=""black"" stroke-width=""1"" fill=""black"" />
    <circle cx=804.1800000000001 cy=384 r=22.992980846801764 stroke=""black"" stroke-width=""1.5"" fill=""none"" />
    <circle cx=913.0136363636365 cy=384 r=22.992980846801764 stroke=""black"" stroke-width=""1.5"" fill=""none"" />
    <circle cx=804.1800000000001 cy=492.8336363636364 r=22.992980846801764 stroke=""black"" stroke-width=""1.5"" fill=""none"" />
    <circle cx=695.3463636363637 cy=384 r=22.992980846801764 stroke=""black"" stroke-width=""1.5"" fill=""none"" />
    <circle cx=804.1800000000001 cy=275.1663636363636 r=22.992980846801764 stroke=""black"" stroke-width=""1.5"" fill=""none"" />
    <polygon points = ""804.1800000000001,384 810.6478105473012,361.00701915319826 797.7121894526989,361.00701915319826"" stroke=""white"" stroke-width=""3"" fill = ""white"" />
    
    </svg>
    </div>
        ","","","","","","","","","","","","stimulus","","","","","","","","","","","","","","","","",""
"html-keyboard-response","36","445309","0.0-36.0","570.3999999761581","arrowup","","
    <div style="" display: block;  position: relative;"">
    
    <svg width=1366 height=768>
    <circle cx=620 cy=384 r=16.095086592761234 stroke=""black"" stroke-width=""1"" fill=""black"" />
    <circle cx=913.0136363636365 cy=384 r=22.992980846801764 stroke=""none"" stroke-width=""1.5"" fill=""none"" />
    <circle cx=804.1800000000001 cy=492.8336363636364 r=22.992980846801764 stroke=""none"" stroke-width=""1.5"" fill=""none"" />
    <circle cx=695.3463636363637 cy=384 r=22.992980846801764 stroke=""none"" stroke-width=""1.5"" fill=""none"" />
    <circle cx=804.1800000000001 cy=275.1663636363636 r=22.992980846801764 stroke=""none"" stroke-width=""1.5"" fill=""none"" />
    <polygon points = ""804.1800000000001,384 810.6478105473012,361.00701915319826 797.7121894526989,361.00701915319826"" stroke=""none"" stroke-width=""3"" fill = ""none"" />
    
    </svg>
    </div>
        ","","","","","","","","","","","","get_response","true","29WmGHwoMXuxRb4r","","","false","true","false","184.18","4","602.036","108.83363636363637","2.36","1","0","","",""
"html-keyboard-response","37","445856","0.0-37.0","null","null","","
    <div style="" display: block;  position: relative;"">
    
    <svg width=1366 height=768>
    <circle cx=620 cy=384 r=16.095086592761234 stroke=""black"" stroke-width=""1"" fill=""black"" />
    <circle cx=913.0136363636365 cy=384 r=22.992980846801764 stroke=""none"" stroke-width=""1.5"" fill=""none"" />
    <circle cx=804.1800000000001 cy=492.8336363636364 r=22.992980846801764 stroke=""none"" stroke-width=""1.5"" fill=""none"" />
    <circle cx=695.3463636363637 cy=384 r=22.992980846801764 stroke=""none"" stroke-width=""1.5"" fill=""none"" />
    <circle cx=804.1800000000001 cy=275.1663636363636 r=22.992980846801764 stroke=""none"" stroke-width=""1.5"" fill=""none"" />
    <polygon points = ""804.1800000000001,384 810.6478105473012,361.00701915319826 797.7121894526989,361.00701915319826"" stroke=""none"" stroke-width=""3"" fill = ""none"" />
    
    </svg>
    </div>
        ","","","","","","","","","","","","","","","","","","","","","","","","","","","","",""
"html-keyboard-response","38","446014","0.0-38.0","null","null","","
    <div style="" display: block;  position: relative;"">
    <svg width=1366 height=768>
    
    <circle cx=620 cy=384 r=16.095086592761234 stroke=""black"" stroke-width=""1"" fill=""black"" />
    <circle cx=435.82 cy=384 r=22.992980846801764 stroke=""black"" stroke-width=""1.5"" fill=""none"" />
    <circle cx=534.7596694214876 cy=384 r=22.992980846801764 stroke=""black"" stroke-width=""1.5"" fill=""none"" />
    <circle cx=435.82 cy=482.9396694214876 r=22.992980846801764 stroke=""black"" stroke-width=""1.5"" fill=""none"" />
    <circle cx=336.88033057851237 cy=384 r=22.992980846801764 stroke=""black"" stroke-width=""1.5"" fill=""none"" />
    <circle cx=435.82 cy=285.0603305785124 r=22.992980846801764 stroke=""black"" stroke-width=""1.5"" fill=""none"" />
    <polygon points = ""435.82,384 442.2878105473011,361.00701915319826 429.3521894526989,361.00701915319826"" stroke=""white"" stroke-width=""3"" fill = ""white"" />
    
    </svg>
    </div>
        ","","","","","","","","","","","","stimulus","","","","","","","","","","","","","","","","",""
"html-keyboard-response","39","446615","0.0-39.0","585.5","arrowdown","","
    <div style="" display: block;  position: relative;"">
    
    <svg width=1366 height=768>
    <circle cx=620 cy=384 r=16.095086592761234 stroke=""black"" stroke-width=""1"" fill=""black"" />
    <circle cx=534.7596694214876 cy=384 r=22.992980846801764 stroke=""none"" stroke-width=""1.5"" fill=""none"" />
    <circle cx=435.82 cy=482.9396694214876 r=22.992980846801764 stroke=""none"" stroke-width=""1.5"" fill=""none"" />
    <circle cx=336.88033057851237 cy=384 r=22.992980846801764 stroke=""none"" stroke-width=""1.5"" fill=""none"" />
    <circle cx=435.82 cy=285.0603305785124 r=22.992980846801764 stroke=""none"" stroke-width=""1.5"" fill=""none"" />
    <polygon points = ""435.82,384 442.2878105473011,361.00701915319826 429.3521894526989,361.00701915319826"" stroke=""none"" stroke-width=""3"" fill = ""none"" />
    
    </svg>
    </div>
        ","","","","","","","","","","","","get_response","false","29WmGHwoMXuxRb4r","","","true","true","false","184.18","4","602.036","98.93966942148761","2.15","1","0","","",""
"html-keyboard-response","40","447118","0.0-40.0","null","null","","
    <div style="" display: block;  position: relative;"">
    
    <svg width=1366 height=768>
    <circle cx=620 cy=384 r=16.095086592761234 stroke=""black"" stroke-width=""1"" fill=""black"" />
    <circle cx=534.7596694214876 cy=384 r=22.992980846801764 stroke=""none"" stroke-width=""1.5"" fill=""none"" />
    <circle cx=435.82 cy=482.9396694214876 r=22.992980846801764 stroke=""none"" stroke-width=""1.5"" fill=""none"" />
    <circle cx=336.88033057851237 cy=384 r=22.992980846801764 stroke=""none"" stroke-width=""1.5"" fill=""none"" />
    <circle cx=435.82 cy=285.0603305785124 r=22.992980846801764 stroke=""none"" stroke-width=""1.5"" fill=""none"" />
    <polygon points = ""435.82,384 442.2878105473011,361.00701915319826 429.3521894526989,361.00701915319826"" stroke=""none"" stroke-width=""3"" fill = ""none"" />
    
    </svg>
    </div>
        ","","","","","","","","","","","","","","","","","","","","","","","","","","","","",""
"html-keyboard-response","41","447272","0.0-41.0","null","null","","
    <div style="" display: block;  position: relative;"">
    <svg width=1366 height=768>
    
    <circle cx=620 cy=384 r=16.095086592761234 stroke=""black"" stroke-width=""1"" fill=""black"" />
    <circle cx=804.1800000000001 cy=384 r=22.992980846801764 stroke=""black"" stroke-width=""1.5"" fill=""none"" />
    <circle cx=932.801570247934 cy=384 r=22.992980846801764 stroke=""black"" stroke-width=""1.5"" fill=""none"" />
    <circle cx=804.1800000000001 cy=512.621570247934 r=22.992980846801764 stroke=""black"" stroke-width=""1.5"" fill=""none"" />
    <circle cx=675.5584297520661 cy=384 r=22.992980846801764 stroke=""black"" stroke-width=""1.5"" fill=""none"" />
    <circle cx=804.1800000000001 cy=255.3784297520661 r=22.992980846801764 stroke=""black"" stroke-width=""1.5"" fill=""none"" />
    <polygon points = ""804.1800000000001,384 810.6478105473012,406.99298084680174 797.7121894526989,406.99298084680174"" stroke=""white"" stroke-width=""3"" fill = ""white"" />
    
    </svg>
    </div>
        ","","","","","","","","","","","","stimulus","","","","","","","","","","","","","","","","",""
"html-keyboard-response","42","447523","0.0-42.0","249.5999999642372","arrowdown","","
    <div style="" display: block;  position: relative;"">
    
    <svg width=1366 height=768>
    <circle cx=620 cy=384 r=16.095086592761234 stroke=""black"" stroke-width=""1"" fill=""black"" />
    <circle cx=932.801570247934 cy=384 r=22.992980846801764 stroke=""none"" stroke-width=""1.5"" fill=""none"" />
    <circle cx=804.1800000000001 cy=512.621570247934 r=22.992980846801764 stroke=""none"" stroke-width=""1.5"" fill=""none"" />
    <circle cx=675.5584297520661 cy=384 r=22.992980846801764 stroke=""none"" stroke-width=""1.5"" fill=""none"" />
    <circle cx=804.1800000000001 cy=255.3784297520661 r=22.992980846801764 stroke=""none"" stroke-width=""1.5"" fill=""none"" />
    <polygon points = ""804.1800000000001,384 810.6478105473012,406.99298084680174 797.7121894526989,406.99298084680174"" stroke=""none"" stroke-width=""3"" fill = ""none"" />
    
    </svg>
    </div>
        ","","","","","","","","","","","","get_response","true","29WmGHwoMXuxRb4r","","","false","false","false","184.18","4","602.036","128.6215702479339","2.79","1","0","","",""
"html-keyboard-response","43","448036","0.0-43.0","null","null","","
    <div style="" display: block;  position: relative;"">
    
    <svg width=1366 height=768>
    <circle cx=620 cy=384 r=16.095086592761234 stroke=""black"" stroke-width=""1"" fill=""black"" />
    <circle cx=932.801570247934 cy=384 r=22.992980846801764 stroke=""none"" stroke-width=""1.5"" fill=""none"" />
    <circle cx=804.1800000000001 cy=512.621570247934 r=22.992980846801764 stroke=""none"" stroke-width=""1.5"" fill=""none"" />
    <circle cx=675.5584297520661 cy=384 r=22.992980846801764 stroke=""none"" stroke-width=""1.5"" fill=""none"" />
    <circle cx=804.1800000000001 cy=255.3784297520661 r=22.992980846801764 stroke=""none"" stroke-width=""1.5"" fill=""none"" />
    <polygon points = ""804.1800000000001,384 810.6478105473012,406.99298084680174 797.7121894526989,406.99298084680174"" stroke=""none"" stroke-width=""3"" fill = ""none"" />
    
    </svg>
    </div>
        ","","","","","","","","","","","","","","","","","","","","","","","","","","","","",""
"html-keyboard-response","44","448191","0.0-44.0","null","null","","
    <div style="" display: block;  position: relative;"">
    <svg width=1366 height=768>
    
    <circle cx=620 cy=384 r=16.095086592761234 stroke=""black"" stroke-width=""1"" fill=""black"" />
    <circle cx=435.82 cy=384 r=22.992980846801764 stroke=""black"" stroke-width=""1.5"" fill=""none"" />
    <circle cx=564.4415702479339 cy=384 r=22.992980846801764 stroke=""black"" stroke-width=""1.5"" fill=""none"" />
    <circle cx=435.82 cy=512.621570247934 r=22.992980846801764 stroke=""black"" stroke-width=""1.5"" fill=""none"" />
    <circle cx=307.1984297520661 cy=384 r=22.992980846801764 stroke=""black"" stroke-width=""1.5"" fill=""none"" />
    <circle cx=435.82 cy=255.3784297520661 r=22.992980846801764 stroke=""black"" stroke-width=""1.5"" fill=""none"" />
    <polygon points = ""435.82,384 442.2878105473011,406.99298084680174 429.3521894526989,406.99298084680174"" stroke=""white"" stroke-width=""3"" fill = ""white"" />
    
    </svg>
    </div>
        ","","","","","","","","","","","","stimulus","","","","","","","","","","","","","","","","",""
"html-keyboard-response","45","448423","0.0-45.0","230.89999997615814","arrowdown","","
    <div style="" display: block;  position: relative;"">
    
    <svg width=1366 height=768>
    <circle cx=620 cy=384 r=16.095086592761234 stroke=""black"" stroke-width=""1"" fill=""black"" />
    <circle cx=564.4415702479339 cy=384 r=22.992980846801764 stroke=""none"" stroke-width=""1.5"" fill=""none"" />
    <circle cx=435.82 cy=512.621570247934 r=22.992980846801764 stroke=""none"" stroke-width=""1.5"" fill=""none"" />
    <circle cx=307.1984297520661 cy=384 r=22.992980846801764 stroke=""none"" stroke-width=""1.5"" fill=""none"" />
    <circle cx=435.82 cy=255.3784297520661 r=22.992980846801764 stroke=""none"" stroke-width=""1.5"" fill=""none"" />
    <polygon points = ""435.82,384 442.2878105473011,406.99298084680174 429.3521894526989,406.99298084680174"" stroke=""none"" stroke-width=""3"" fill = ""none"" />
    
    </svg>
    </div>
        ","","","","","","","","","","","","get_response","true","29WmGHwoMXuxRb4r","","","true","false","false","184.18","4","602.036","128.6215702479339","2.79","1","0","","",""
"html-keyboard-response","46","448938","0.0-46.0","null","null","","
    <div style="" display: block;  position: relative;"">
    
    <svg width=1366 height=768>
    <circle cx=620 cy=384 r=16.095086592761234 stroke=""black"" stroke-width=""1"" fill=""black"" />
    <circle cx=564.4415702479339 cy=384 r=22.992980846801764 stroke=""none"" stroke-width=""1.5"" fill=""none"" />
    <circle cx=435.82 cy=512.621570247934 r=22.992980846801764 stroke=""none"" stroke-width=""1.5"" fill=""none"" />
    <circle cx=307.1984297520661 cy=384 r=22.992980846801764 stroke=""none"" stroke-width=""1.5"" fill=""none"" />
    <circle cx=435.82 cy=255.3784297520661 r=22.992980846801764 stroke=""none"" stroke-width=""1.5"" fill=""none"" />
    <polygon points = ""435.82,384 442.2878105473011,406.99298084680174 429.3521894526989,406.99298084680174"" stroke=""none"" stroke-width=""3"" fill = ""none"" />
    
    </svg>
    </div>
        ","","","","","","","","","","","","","","","","","","","","","","","","","","","","",""
"html-keyboard-response","47","449095","0.0-47.0","null","null","","
    <div style="" display: block;  position: relative;"">
    <svg width=1366 height=768>
    
    <circle cx=620 cy=384 r=16.095086592761234 stroke=""black"" stroke-width=""1"" fill=""black"" />
    <circle cx=435.82 cy=384 r=22.992980846801764 stroke=""black"" stroke-width=""1.5"" fill=""none"" />
    <circle cx=564.4415702479339 cy=384 r=22.992980846801764 stroke=""black"" stroke-width=""1.5"" fill=""none"" />
    <circle cx=435.82 cy=512.621570247934 r=22.992980846801764 stroke=""black"" stroke-width=""1.5"" fill=""none"" />
    <circle cx=307.1984297520661 cy=384 r=22.992980846801764 stroke=""black"" stroke-width=""1.5"" fill=""none"" />
    <circle cx=435.82 cy=255.3784297520661 r=22.992980846801764 stroke=""black"" stroke-width=""1.5"" fill=""none"" />
    <polygon points = ""435.82,384 442.2878105473011,361.00701915319826 429.3521894526989,361.00701915319826"" stroke=""white"" stroke-width=""3"" fill = ""white"" />
    
    </svg>
    </div>
        ","","","","","","","","","","","","stimulus","","","","","","","","","","","","","","","","",""
"html-keyboard-response","48","449524","0.0-48.0","426.4000000357628","arrowup","","
    <div style="" display: block;  position: relative;"">
    
    <svg width=1366 height=768>
    <circle cx=620 cy=384 r=16.095086592761234 stroke=""black"" stroke-width=""1"" fill=""black"" />
    <circle cx=564.4415702479339 cy=384 r=22.992980846801764 stroke=""none"" stroke-width=""1.5"" fill=""none"" />
    <circle cx=435.82 cy=512.621570247934 r=22.992980846801764 stroke=""none"" stroke-width=""1.5"" fill=""none"" />
    <circle cx=307.1984297520661 cy=384 r=22.992980846801764 stroke=""none"" stroke-width=""1.5"" fill=""none"" />
    <circle cx=435.82 cy=255.3784297520661 r=22.992980846801764 stroke=""none"" stroke-width=""1.5"" fill=""none"" />
    <polygon points = ""435.82,384 442.2878105473011,361.00701915319826 429.3521894526989,361.00701915319826"" stroke=""none"" stroke-width=""3"" fill = ""none"" />
    
    </svg>
    </div>
        ","","","","","","","","","","","","get_response","true","29WmGHwoMXuxRb4r","","","true","true","false","184.18","4","602.036","128.6215702479339","2.79","1","0","","",""
"html-keyboard-response","49","450031","0.0-49.0","null","null","","
    <div style="" display: block;  position: relative;"">
    
    <svg width=1366 height=768>
    <circle cx=620 cy=384 r=16.095086592761234 stroke=""black"" stroke-width=""1"" fill=""black"" />
    <circle cx=564.4415702479339 cy=384 r=22.992980846801764 stroke=""none"" stroke-width=""1.5"" fill=""none"" />
    <circle cx=435.82 cy=512.621570247934 r=22.992980846801764 stroke=""none"" stroke-width=""1.5"" fill=""none"" />
    <circle cx=307.1984297520661 cy=384 r=22.992980846801764 stroke=""none"" stroke-width=""1.5"" fill=""none"" />
    <circle cx=435.82 cy=255.3784297520661 r=22.992980846801764 stroke=""none"" stroke-width=""1.5"" fill=""none"" />
    <polygon points = ""435.82,384 442.2878105473011,361.00701915319826 429.3521894526989,361.00701915319826"" stroke=""none"" stroke-width=""3"" fill = ""none"" />
    
    </svg>
    </div>
        ","","","","","","","","","","","","","","","","","","","","","","","","","","","","",""
"html-keyboard-response","50","450191","0.0-50.0","null","null","","
    <div style="" display: block;  position: relative;"">
    <svg width=1366 height=768>
    
    <circle cx=620 cy=384 r=16.095086592761234 stroke=""black"" stroke-width=""1"" fill=""black"" />
    <circle cx=435.82 cy=384 r=22.992980846801764 stroke=""black"" stroke-width=""1.5"" fill=""none"" />
    <circle cx=552.7487002253945 cy=384 r=22.992980846801764 stroke=""black"" stroke-width=""1.5"" fill=""none"" />
    <circle cx=435.82 cy=500.92870022539444 r=22.992980846801764 stroke=""black"" stroke-width=""1.5"" fill=""none"" />
    <circle cx=318.89129977460556 cy=384 r=22.992980846801764 stroke=""black"" stroke-width=""1.5"" fill=""none"" />
    <circle cx=435.82 cy=267.07129977460556 r=22.992980846801764 stroke=""black"" stroke-width=""1.5"" fill=""none"" />
    <polygon points = ""435.82,384 442.2878105473011,406.99298084680174 429.3521894526989,406.99298084680174"" stroke=""white"" stroke-width=""3"" fill = ""white"" />
    
    </svg>
    </div>
        ","","","","","","","","","","","","stimulus","","","","","","","","","","","","","","","","",""
"html-keyboard-response","51","450571","0.0-51.0","378.89999997615814","arrowdown","","
    <div style="" display: block;  position: relative;"">
    
    <svg width=1366 height=768>
    <circle cx=620 cy=384 r=16.095086592761234 stroke=""black"" stroke-width=""1"" fill=""black"" />
    <circle cx=552.7487002253945 cy=384 r=22.992980846801764 stroke=""none"" stroke-width=""1.5"" fill=""none"" />
    <circle cx=435.82 cy=500.92870022539444 r=22.992980846801764 stroke=""none"" stroke-width=""1.5"" fill=""none"" />
    <circle cx=318.89129977460556 cy=384 r=22.992980846801764 stroke=""none"" stroke-width=""1.5"" fill=""none"" />
    <circle cx=435.82 cy=267.07129977460556 r=22.992980846801764 stroke=""none"" stroke-width=""1.5"" fill=""none"" />
    <polygon points = ""435.82,384 442.2878105473011,406.99298084680174 429.3521894526989,406.99298084680174"" stroke=""none"" stroke-width=""3"" fill = ""none"" />
    
    </svg>
    </div>
        ","","","","","","","","","","","","get_response","true","29WmGHwoMXuxRb4r","","","true","false","false","184.18","4","602.036","116.92870022539445","2.54","1","0","","",""
"html-keyboard-response","52","451087","0.0-52.0","null","null","","
    <div style="" display: block;  position: relative;"">
    
    <svg width=1366 height=768>
    <circle cx=620 cy=384 r=16.095086592761234 stroke=""black"" stroke-width=""1"" fill=""black"" />
    <circle cx=552.7487002253945 cy=384 r=22.992980846801764 stroke=""none"" stroke-width=""1.5"" fill=""none"" />
    <circle cx=435.82 cy=500.92870022539444 r=22.992980846801764 stroke=""none"" stroke-width=""1.5"" fill=""none"" />
    <circle cx=318.89129977460556 cy=384 r=22.992980846801764 stroke=""none"" stroke-width=""1.5"" fill=""none"" />
    <circle cx=435.82 cy=267.07129977460556 r=22.992980846801764 stroke=""none"" stroke-width=""1.5"" fill=""none"" />
    <polygon points = ""435.82,384 442.2878105473011,406.99298084680174 429.3521894526989,406.99298084680174"" stroke=""none"" stroke-width=""3"" fill = ""none"" />
    
    </svg>
    </div>
        ","","","","","","","","","","","","","","","","","","","","","","","","","","","","",""
"html-keyboard-response","53","451242","0.0-53.0","null","null","","
    <div style="" display: block;  position: relative;"">
    <svg width=1366 height=768>
    
    <circle cx=620 cy=384 r=16.095086592761234 stroke=""black"" stroke-width=""1"" fill=""black"" />
    <circle cx=804.1800000000001 cy=384 r=22.992980846801764 stroke=""black"" stroke-width=""1.5"" fill=""none"" />
    <circle cx=910.4788183867223 cy=384 r=22.992980846801764 stroke=""black"" stroke-width=""1.5"" fill=""none"" />
    <circle cx=804.1800000000001 cy=490.29881838672225 r=22.992980846801764 stroke=""black"" stroke-width=""1.5"" fill=""none"" />
    <circle cx=697.8811816132778 cy=384 r=22.992980846801764 stroke=""black"" stroke-width=""1.5"" fill=""none"" />
    <circle cx=804.1800000000001 cy=277.70118161327775 r=22.992980846801764 stroke=""black"" stroke-width=""1.5"" fill=""none"" />
    <polygon points = ""804.1800000000001,384 810.6478105473012,361.00701915319826 797.7121894526989,361.00701915319826"" stroke=""white"" stroke-width=""3"" fill = ""white"" />
    
    </svg>
    </div>
        ","","","","","","","","","","","","stimulus","","","","","","","","","","","","","","","","",""
"html-keyboard-response","54","451604","0.0-54.0","360.30000001192093","arrowup","","
    <div style="" display: block;  position: relative;"">
    
    <svg width=1366 height=768>
    <circle cx=620 cy=384 r=16.095086592761234 stroke=""black"" stroke-width=""1"" fill=""black"" />
    <circle cx=910.4788183867223 cy=384 r=22.992980846801764 stroke=""none"" stroke-width=""1.5"" fill=""none"" />
    <circle cx=804.1800000000001 cy=490.29881838672225 r=22.992980846801764 stroke=""none"" stroke-width=""1.5"" fill=""none"" />
    <circle cx=697.8811816132778 cy=384 r=22.992980846801764 stroke=""none"" stroke-width=""1.5"" fill=""none"" />
    <circle cx=804.1800000000001 cy=277.70118161327775 r=22.992980846801764 stroke=""none"" stroke-width=""1.5"" fill=""none"" />
    <polygon points = ""804.1800000000001,384 810.6478105473012,361.00701915319826 797.7121894526989,361.00701915319826"" stroke=""none"" stroke-width=""3"" fill = ""none"" />
    
    </svg>
    </div>
        ","","","","","","","","","","","","get_response","true","29WmGHwoMXuxRb4r","","","false","true","false","184.18","4","602.036","106.29881838672222","2.31","1","0","","",""
"html-keyboard-response","55","452111","0.0-55.0","null","null","","
    <div style="" display: block;  position: relative;"">
    
    <svg width=1366 height=768>
    <circle cx=620 cy=384 r=16.095086592761234 stroke=""black"" stroke-width=""1"" fill=""black"" />
    <circle cx=910.4788183867223 cy=384 r=22.992980846801764 stroke=""none"" stroke-width=""1.5"" fill=""none"" />
    <circle cx=804.1800000000001 cy=490.29881838672225 r=22.992980846801764 stroke=""none"" stroke-width=""1.5"" fill=""none"" />
    <circle cx=697.8811816132778 cy=384 r=22.992980846801764 stroke=""none"" stroke-width=""1.5"" fill=""none"" />
    <circle cx=804.1800000000001 cy=277.70118161327775 r=22.992980846801764 stroke=""none"" stroke-width=""1.5"" fill=""none"" />
    <polygon points = ""804.1800000000001,384 810.6478105473012,361.00701915319826 797.7121894526989,361.00701915319826"" stroke=""none"" stroke-width=""3"" fill = ""none"" />
    
    </svg>
    </div>
        ","","","","","","","","","","","","","","","","","","","","","","","","","","","","",""
"html-keyboard-response","56","452273","0.0-56.0","null","null","","
    <div style="" display: block;  position: relative;"">
    <svg width=1366 height=768>
    
    <circle cx=620 cy=384 r=16.095086592761234 stroke=""black"" stroke-width=""1"" fill=""black"" />
    <circle cx=804.1800000000001 cy=384 r=22.992980846801764 stroke=""black"" stroke-width=""1.5"" fill=""none"" />
    <circle cx=900.8152894424748 cy=384 r=22.992980846801764 stroke=""black"" stroke-width=""1.5"" fill=""none"" />
    <circle cx=804.1800000000001 cy=480.63528944247474 r=22.992980846801764 stroke=""black"" stroke-width=""1.5"" fill=""none"" />
    <circle cx=707.5447105575254 cy=384 r=22.992980846801764 stroke=""black"" stroke-width=""1.5"" fill=""none"" />
    <circle cx=804.1800000000001 cy=287.36471055752526 r=22.992980846801764 stroke=""black"" stroke-width=""1.5"" fill=""none"" />
    <polygon points = ""804.1800000000001,384 810.6478105473012,361.00701915319826 797.7121894526989,361.00701915319826"" stroke=""white"" stroke-width=""3"" fill = ""white"" />
    
    </svg>
    </div>
        ","","","","","","","","","","","","stimulus","","","","","","","","","","","","","","","","",""
"html-keyboard-response","57","452596","0.0-57.0","320.19999998807907","arrowup","","
    <div style="" display: block;  position: relative;"">
    
    <svg width=1366 height=768>
    <circle cx=620 cy=384 r=16.095086592761234 stroke=""black"" stroke-width=""1"" fill=""black"" />
    <circle cx=900.8152894424748 cy=384 r=22.992980846801764 stroke=""none"" stroke-width=""1.5"" fill=""none"" />
    <circle cx=804.1800000000001 cy=480.63528944247474 r=22.992980846801764 stroke=""none"" stroke-width=""1.5"" fill=""none"" />
    <circle cx=707.5447105575254 cy=384 r=22.992980846801764 stroke=""none"" stroke-width=""1.5"" fill=""none"" />
    <circle cx=804.1800000000001 cy=287.36471055752526 r=22.992980846801764 stroke=""none"" stroke-width=""1.5"" fill=""none"" />
    <polygon points = ""804.1800000000001,384 810.6478105473012,361.00701915319826 797.7121894526989,361.00701915319826"" stroke=""none"" stroke-width=""3"" fill = ""none"" />
    
    </svg>
    </div>
        ","","","","","","","","","","","","get_response","true","29WmGHwoMXuxRb4r","","","false","true","false","184.18","4","602.036","96.63528944247473","2.1","1","0","","",""
"html-keyboard-response","58","453107","0.0-58.0","null","null","","
    <div style="" display: block;  position: relative;"">
    
    <svg width=1366 height=768>
    <circle cx=620 cy=384 r=16.095086592761234 stroke=""black"" stroke-width=""1"" fill=""black"" />
    <circle cx=900.8152894424748 cy=384 r=22.992980846801764 stroke=""none"" stroke-width=""1.5"" fill=""none"" />
    <circle cx=804.1800000000001 cy=480.63528944247474 r=22.992980846801764 stroke=""none"" stroke-width=""1.5"" fill=""none"" />
    <circle cx=707.5447105575254 cy=384 r=22.992980846801764 stroke=""none"" stroke-width=""1.5"" fill=""none"" />
    <circle cx=804.1800000000001 cy=287.36471055752526 r=22.992980846801764 stroke=""none"" stroke-width=""1.5"" fill=""none"" />
    <polygon points = ""804.1800000000001,384 810.6478105473012,361.00701915319826 797.7121894526989,361.00701915319826"" stroke=""none"" stroke-width=""3"" fill = ""none"" />
    
    </svg>
    </div>
        ","","","","","","","","","","","","","","","","","","","","","","","","","","","","",""
"html-keyboard-response","59","453265","0.0-59.0","null","null","","
    <div style="" display: block;  position: relative;"">
    <svg width=1366 height=768>
    
    <circle cx=620 cy=384 r=16.095086592761234 stroke=""black"" stroke-width=""1"" fill=""black"" />
    <circle cx=804.1800000000001 cy=384 r=22.992980846801764 stroke=""black"" stroke-width=""1.5"" fill=""none"" />
    <circle cx=892.0302631295225 cy=384 r=22.992980846801764 stroke=""black"" stroke-width=""1.5"" fill=""none"" />
    <circle cx=804.1800000000001 cy=471.8502631295225 r=22.992980846801764 stroke=""black"" stroke-width=""1.5"" fill=""none"" />
    <circle cx=716.3297368704776 cy=384 r=22.992980846801764 stroke=""black"" stroke-width=""1.5"" fill=""none"" />
    <circle cx=804.1800000000001 cy=296.1497368704775 r=22.992980846801764 stroke=""black"" stroke-width=""1.5"" fill=""none"" />
    <polygon points = ""804.1800000000001,384 810.6478105473012,361.00701915319826 797.7121894526989,361.00701915319826"" stroke=""white"" stroke-width=""3"" fill = ""white"" />
    
    </svg>
    </div>
        ","","","","","","","","","","","","stimulus","","","","","","","","","","","","","","","","",""
"html-keyboard-response","60","453494","0.0-60.0","226.5","arrowup","","
    <div style="" display: block;  position: relative;"">
    
    <svg width=1366 height=768>
    <circle cx=620 cy=384 r=16.095086592761234 stroke=""black"" stroke-width=""1"" fill=""black"" />
    <circle cx=892.0302631295225 cy=384 r=22.992980846801764 stroke=""none"" stroke-width=""1.5"" fill=""none"" />
    <circle cx=804.1800000000001 cy=471.8502631295225 r=22.992980846801764 stroke=""none"" stroke-width=""1.5"" fill=""none"" />
    <circle cx=716.3297368704776 cy=384 r=22.992980846801764 stroke=""none"" stroke-width=""1.5"" fill=""none"" />
    <circle cx=804.1800000000001 cy=296.1497368704775 r=22.992980846801764 stroke=""none"" stroke-width=""1.5"" fill=""none"" />
    <polygon points = ""804.1800000000001,384 810.6478105473012,361.00701915319826 797.7121894526989,361.00701915319826"" stroke=""none"" stroke-width=""3"" fill = ""none"" />
    
    </svg>
    </div>
        ","","","","","","","","","","","","get_response","true","29WmGHwoMXuxRb4r","","","false","true","false","184.18","4","602.036","87.85026312952247","1.91","1","0","","",""
"html-keyboard-response","61","454008","0.0-61.0","null","null","","
    <div style="" display: block;  position: relative;"">
    
    <svg width=1366 height=768>
    <circle cx=620 cy=384 r=16.095086592761234 stroke=""black"" stroke-width=""1"" fill=""black"" />
    <circle cx=892.0302631295225 cy=384 r=22.992980846801764 stroke=""none"" stroke-width=""1.5"" fill=""none"" />
    <circle cx=804.1800000000001 cy=471.8502631295225 r=22.992980846801764 stroke=""none"" stroke-width=""1.5"" fill=""none"" />
    <circle cx=716.3297368704776 cy=384 r=22.992980846801764 stroke=""none"" stroke-width=""1.5"" fill=""none"" />
    <circle cx=804.1800000000001 cy=296.1497368704775 r=22.992980846801764 stroke=""none"" stroke-width=""1.5"" fill=""none"" />
    <polygon points = ""804.1800000000001,384 810.6478105473012,361.00701915319826 797.7121894526989,361.00701915319826"" stroke=""none"" stroke-width=""3"" fill = ""none"" />
    
    </svg>
    </div>
        ","","","","","","","","","","","","","","","","","","","","","","","","","","","","",""
"html-keyboard-response","62","454168","0.0-62.0","null","null","","
    <div style="" display: block;  position: relative;"">
    <svg width=1366 height=768>
    
    <circle cx=620 cy=384 r=16.095086592761234 stroke=""black"" stroke-width=""1"" fill=""black"" />
    <circle cx=804.1800000000001 cy=384 r=22.992980846801764 stroke=""black"" stroke-width=""1.5"" fill=""none"" />
    <circle cx=884.0438755722932 cy=384 r=22.992980846801764 stroke=""black"" stroke-width=""1.5"" fill=""none"" />
    <circle cx=804.1800000000001 cy=463.8638755722932 r=22.992980846801764 stroke=""black"" stroke-width=""1.5"" fill=""none"" />
    <circle cx=724.3161244277069 cy=384 r=22.992980846801764 stroke=""black"" stroke-width=""1.5"" fill=""none"" />
    <circle cx=804.1800000000001 cy=304.1361244277068 r=22.992980846801764 stroke=""black"" stroke-width=""1.5"" fill=""none"" />
    <polygon points = ""804.1800000000001,384 810.6478105473012,406.99298084680174 797.7121894526989,406.99298084680174"" stroke=""white"" stroke-width=""3"" fill = ""white"" />
    
    </svg>
    </div>
        ","","","","","","","","","","","","stimulus","","","","","","","","","","","","","","","","",""
"html-keyboard-response","63","454476","0.0-63.0","305","arrowdown","","
    <div style="" display: block;  position: relative;"">
    
    <svg width=1366 height=768>
    <circle cx=620 cy=384 r=16.095086592761234 stroke=""black"" stroke-width=""1"" fill=""black"" />
    <circle cx=884.0438755722932 cy=384 r=22.992980846801764 stroke=""none"" stroke-width=""1.5"" fill=""none"" />
    <circle cx=804.1800000000001 cy=463.8638755722932 r=22.992980846801764 stroke=""none"" stroke-width=""1.5"" fill=""none"" />
    <circle cx=724.3161244277069 cy=384 r=22.992980846801764 stroke=""none"" stroke-width=""1.5"" fill=""none"" />
    <circle cx=804.1800000000001 cy=304.1361244277068 r=22.992980846801764 stroke=""none"" stroke-width=""1.5"" fill=""none"" />
    <polygon points = ""804.1800000000001,384 810.6478105473012,406.99298084680174 797.7121894526989,406.99298084680174"" stroke=""none"" stroke-width=""3"" fill = ""none"" />
    
    </svg>
    </div>
        ","","","","","","","","","","","","get_response","true","29WmGHwoMXuxRb4r","","","false","false","false","184.18","4","602.036","79.86387557229315","1.73","1","0","","",""
"html-keyboard-response","64","454985","0.0-64.0","null","null","","
    <div style="" display: block;  position: relative;"">
    
    <svg width=1366 height=768>
    <circle cx=620 cy=384 r=16.095086592761234 stroke=""black"" stroke-width=""1"" fill=""black"" />
    <circle cx=884.0438755722932 cy=384 r=22.992980846801764 stroke=""none"" stroke-width=""1.5"" fill=""none"" />
    <circle cx=804.1800000000001 cy=463.8638755722932 r=22.992980846801764 stroke=""none"" stroke-width=""1.5"" fill=""none"" />
    <circle cx=724.3161244277069 cy=384 r=22.992980846801764 stroke=""none"" stroke-width=""1.5"" fill=""none"" />
    <circle cx=804.1800000000001 cy=304.1361244277068 r=22.992980846801764 stroke=""none"" stroke-width=""1.5"" fill=""none"" />
    <polygon points = ""804.1800000000001,384 810.6478105473012,406.99298084680174 797.7121894526989,406.99298084680174"" stroke=""none"" stroke-width=""3"" fill = ""none"" />
    
    </svg>
    </div>
        ","","","","","","","","","","","","","","","","","","","","","","","","","","","","",""
"html-keyboard-response","65","455157","0.0-65.0","null","null","","
    <div style="" display: block;  position: relative;"">
    <svg width=1366 height=768>
    
    <circle cx=620 cy=384 r=16.095086592761234 stroke=""black"" stroke-width=""1"" fill=""black"" />
    <circle cx=804.1800000000001 cy=384 r=22.992980846801764 stroke=""black"" stroke-width=""1.5"" fill=""none"" />
    <circle cx=876.7835232475393 cy=384 r=22.992980846801764 stroke=""black"" stroke-width=""1.5"" fill=""none"" />
    <circle cx=804.1800000000001 cy=456.6035232475392 r=22.992980846801764 stroke=""black"" stroke-width=""1.5"" fill=""none"" />
    <circle cx=731.5764767524608 cy=384 r=22.992980846801764 stroke=""black"" stroke-width=""1.5"" fill=""none"" />
    <circle cx=804.1800000000001 cy=311.3964767524608 r=22.992980846801764 stroke=""black"" stroke-width=""1.5"" fill=""none"" />
    <polygon points = ""804.1800000000001,384 810.6478105473012,406.99298084680174 797.7121894526989,406.99298084680174"" stroke=""white"" stroke-width=""3"" fill = ""white"" />
    
    </svg>
    </div>
        ","","","","","","","","","","","","stimulus","","","","","","","","","","","","","","","","",""
"html-keyboard-response","66","455349","0.0-66.0","191.10000002384186","arrowdown","","
    <div style="" display: block;  position: relative;"">
    
    <svg width=1366 height=768>
    <circle cx=620 cy=384 r=16.095086592761234 stroke=""black"" stroke-width=""1"" fill=""black"" />
    <circle cx=876.7835232475393 cy=384 r=22.992980846801764 stroke=""none"" stroke-width=""1.5"" fill=""none"" />
    <circle cx=804.1800000000001 cy=456.6035232475392 r=22.992980846801764 stroke=""none"" stroke-width=""1.5"" fill=""none"" />
    <circle cx=731.5764767524608 cy=384 r=22.992980846801764 stroke=""none"" stroke-width=""1.5"" fill=""none"" />
    <circle cx=804.1800000000001 cy=311.3964767524608 r=22.992980846801764 stroke=""none"" stroke-width=""1.5"" fill=""none"" />
    <polygon points = ""804.1800000000001,384 810.6478105473012,406.99298084680174 797.7121894526989,406.99298084680174"" stroke=""none"" stroke-width=""3"" fill = ""none"" />
    
    </svg>
    </div>
        ","","","","","","","","","","","","get_response","true","29WmGHwoMXuxRb4r","","","false","false","false","184.18","4","602.036","72.60352324753923","1.57","1","0","","",""
"html-keyboard-response","67","455853","0.0-67.0","null","null","","
    <div style="" display: block;  position: relative;"">
    
    <svg width=1366 height=768>
    <circle cx=620 cy=384 r=16.095086592761234 stroke=""black"" stroke-width=""1"" fill=""black"" />
    <circle cx=876.7835232475393 cy=384 r=22.992980846801764 stroke=""none"" stroke-width=""1.5"" fill=""none"" />
    <circle cx=804.1800000000001 cy=456.6035232475392 r=22.992980846801764 stroke=""none"" stroke-width=""1.5"" fill=""none"" />
    <circle cx=731.5764767524608 cy=384 r=22.992980846801764 stroke=""none"" stroke-width=""1.5"" fill=""none"" />
    <circle cx=804.1800000000001 cy=311.3964767524608 r=22.992980846801764 stroke=""none"" stroke-width=""1.5"" fill=""none"" />
    <polygon points = ""804.1800000000001,384 810.6478105473012,406.99298084680174 797.7121894526989,406.99298084680174"" stroke=""none"" stroke-width=""3"" fill = ""none"" />
    
    </svg>
    </div>
        ","","","","","","","","","","","","","","","","","","","","","","","","","","","","",""
"html-keyboard-response","68","456008","0.0-68.0","null","null","","
    <div style="" display: block;  position: relative;"">
    <svg width=1366 height=768>
    
    <circle cx=620 cy=384 r=16.095086592761234 stroke=""black"" stroke-width=""1"" fill=""black"" />
    <circle cx=435.82 cy=384 r=22.992980846801764 stroke=""black"" stroke-width=""1.5"" fill=""none"" />
    <circle cx=501.8232029523084 cy=384 r=22.992980846801764 stroke=""black"" stroke-width=""1.5"" fill=""none"" />
    <circle cx=435.82 cy=450.00320295230836 r=22.992980846801764 stroke=""black"" stroke-width=""1.5"" fill=""none"" />
    <circle cx=369.8167970476916 cy=384 r=22.992980846801764 stroke=""black"" stroke-width=""1.5"" fill=""none"" />
    <circle cx=435.82 cy=317.99679704769164 r=22.992980846801764 stroke=""black"" stroke-width=""1.5"" fill=""none"" />
    <polygon points = ""435.82,384 442.2878105473011,361.00701915319826 429.3521894526989,361.00701915319826"" stroke=""white"" stroke-width=""3"" fill = ""white"" />
    
    </svg>
    </div>
        ","","","","","","","","","","","","stimulus","","","","","","","","","","","","","","","","",""
"html-keyboard-response","69","456490","0.0-69.0","480.5","arrowdown","","
    <div style="" display: block;  position: relative;"">
    
    <svg width=1366 height=768>
    <circle cx=620 cy=384 r=16.095086592761234 stroke=""black"" stroke-width=""1"" fill=""black"" />
    <circle cx=501.8232029523084 cy=384 r=22.992980846801764 stroke=""none"" stroke-width=""1.5"" fill=""none"" />
    <circle cx=435.82 cy=450.00320295230836 r=22.992980846801764 stroke=""none"" stroke-width=""1.5"" fill=""none"" />
    <circle cx=369.8167970476916 cy=384 r=22.992980846801764 stroke=""none"" stroke-width=""1.5"" fill=""none"" />
    <circle cx=435.82 cy=317.99679704769164 r=22.992980846801764 stroke=""none"" stroke-width=""1.5"" fill=""none"" />
    <polygon points = ""435.82,384 442.2878105473011,361.00701915319826 429.3521894526989,361.00701915319826"" stroke=""none"" stroke-width=""3"" fill = ""none"" />
    
    </svg>
    </div>
        ","","","","","","","","","","","","get_response","false","29WmGHwoMXuxRb4r","","","true","true","false","184.18","4","602.036","66.00320295230838","1.43","1","0","","",""
"html-keyboard-response","70","456994","0.0-70.0","null","null","","
    <div style="" display: block;  position: relative;"">
    
    <svg width=1366 height=768>
    <circle cx=620 cy=384 r=16.095086592761234 stroke=""black"" stroke-width=""1"" fill=""black"" />
    <circle cx=501.8232029523084 cy=384 r=22.992980846801764 stroke=""none"" stroke-width=""1.5"" fill=""none"" />
    <circle cx=435.82 cy=450.00320295230836 r=22.992980846801764 stroke=""none"" stroke-width=""1.5"" fill=""none"" />
    <circle cx=369.8167970476916 cy=384 r=22.992980846801764 stroke=""none"" stroke-width=""1.5"" fill=""none"" />
    <circle cx=435.82 cy=317.99679704769164 r=22.992980846801764 stroke=""none"" stroke-width=""1.5"" fill=""none"" />
    <polygon points = ""435.82,384 442.2878105473011,361.00701915319826 429.3521894526989,361.00701915319826"" stroke=""none"" stroke-width=""3"" fill = ""none"" />
    
    </svg>
    </div>
        ","","","","","","","","","","","","","","","","","","","","","","","","","","","","",""
"html-keyboard-response","71","457151","0.0-71.0","null","null","","
    <div style="" display: block;  position: relative;"">
    <svg width=1366 height=768>
    
    <circle cx=620 cy=384 r=16.095086592761234 stroke=""black"" stroke-width=""1"" fill=""black"" />
    <circle cx=435.82 cy=384 r=22.992980846801764 stroke=""black"" stroke-width=""1.5"" fill=""none"" />
    <circle cx=521.6241638380009 cy=384 r=22.992980846801764 stroke=""black"" stroke-width=""1.5"" fill=""none"" />
    <circle cx=435.82 cy=469.80416383800093 r=22.992980846801764 stroke=""black"" stroke-width=""1.5"" fill=""none"" />
    <circle cx=350.0158361619991 cy=384 r=22.992980846801764 stroke=""black"" stroke-width=""1.5"" fill=""none"" />
    <circle cx=435.82 cy=298.19583616199907 r=22.992980846801764 stroke=""black"" stroke-width=""1.5"" fill=""none"" />
    <polygon points = ""435.82,384 442.2878105473011,361.00701915319826 429.3521894526989,361.00701915319826"" stroke=""white"" stroke-width=""3"" fill = ""white"" />
    
    </svg>
    </div>
        ","","","","","","","","","","","","stimulus","","","","","","","","","","","","","","","","",""
"html-keyboard-response","72","457582","0.0-72.0","429.19999998807907","arrowup","","
    <div style="" display: block;  position: relative;"">
    
    <svg width=1366 height=768>
    <circle cx=620 cy=384 r=16.095086592761234 stroke=""black"" stroke-width=""1"" fill=""black"" />
    <circle cx=521.6241638380009 cy=384 r=22.992980846801764 stroke=""none"" stroke-width=""1.5"" fill=""none"" />
    <circle cx=435.82 cy=469.80416383800093 r=22.992980846801764 stroke=""none"" stroke-width=""1.5"" fill=""none"" />
    <circle cx=350.0158361619991 cy=384 r=22.992980846801764 stroke=""none"" stroke-width=""1.5"" fill=""none"" />
    <circle cx=435.82 cy=298.19583616199907 r=22.992980846801764 stroke=""none"" stroke-width=""1.5"" fill=""none"" />
    <polygon points = ""435.82,384 442.2878105473011,361.00701915319826 429.3521894526989,361.00701915319826"" stroke=""none"" stroke-width=""3"" fill = ""none"" />
    
    </svg>
    </div>
        ","","","","","","","","","","","","get_response","true","29WmGHwoMXuxRb4r","","","true","true","false","184.18","4","602.036","85.8041638380009","1.86","1","0","","",""
"html-keyboard-response","73","458098","0.0-73.0","null","null","","
    <div style="" display: block;  position: relative;"">
    
    <svg width=1366 height=768>
    <circle cx=620 cy=384 r=16.095086592761234 stroke=""black"" stroke-width=""1"" fill=""black"" />
    <circle cx=521.6241638380009 cy=384 r=22.992980846801764 stroke=""none"" stroke-width=""1.5"" fill=""none"" />
    <circle cx=435.82 cy=469.80416383800093 r=22.992980846801764 stroke=""none"" stroke-width=""1.5"" fill=""none"" />
    <circle cx=350.0158361619991 cy=384 r=22.992980846801764 stroke=""none"" stroke-width=""1.5"" fill=""none"" />
    <circle cx=435.82 cy=298.19583616199907 r=22.992980846801764 stroke=""none"" stroke-width=""1.5"" fill=""none"" />
    <polygon points = ""435.82,384 442.2878105473011,361.00701915319826 429.3521894526989,361.00701915319826"" stroke=""none"" stroke-width=""3"" fill = ""none"" />
    
    </svg>
    </div>
        ","","","","","","","","","","","","","","","","","","","","","","","","","","","","",""
"html-keyboard-response","74","458253","0.0-74.0","null","null","","
    <div style="" display: block;  position: relative;"">
    <svg width=1366 height=768>
    
    <circle cx=620 cy=384 r=16.095086592761234 stroke=""black"" stroke-width=""1"" fill=""black"" />
    <circle cx=435.82 cy=384 r=22.992980846801764 stroke=""black"" stroke-width=""1.5"" fill=""none"" />
    <circle cx=521.6241638380009 cy=384 r=22.992980846801764 stroke=""black"" stroke-width=""1.5"" fill=""none"" />
    <circle cx=435.82 cy=469.80416383800093 r=22.992980846801764 stroke=""black"" stroke-width=""1.5"" fill=""none"" />
    <circle cx=350.0158361619991 cy=384 r=22.992980846801764 stroke=""black"" stroke-width=""1.5"" fill=""none"" />
    <circle cx=435.82 cy=298.19583616199907 r=22.992980846801764 stroke=""black"" stroke-width=""1.5"" fill=""none"" />
    <polygon points = ""435.82,384 442.2878105473011,406.99298084680174 429.3521894526989,406.99298084680174"" stroke=""white"" stroke-width=""3"" fill = ""white"" />
    
    </svg>
    </div>
        ","","","","","","","","","","","","stimulus","","","","","","","","","","","","","","","","",""
"html-keyboard-response","75","458570","0.0-75.0","314.89999997615814","arrowdown","","
    <div style="" display: block;  position: relative;"">
    
    <svg width=1366 height=768>
    <circle cx=620 cy=384 r=16.095086592761234 stroke=""black"" stroke-width=""1"" fill=""black"" />
    <circle cx=521.6241638380009 cy=384 r=22.992980846801764 stroke=""none"" stroke-width=""1.5"" fill=""none"" />
    <circle cx=435.82 cy=469.80416383800093 r=22.992980846801764 stroke=""none"" stroke-width=""1.5"" fill=""none"" />
    <circle cx=350.0158361619991 cy=384 r=22.992980846801764 stroke=""none"" stroke-width=""1.5"" fill=""none"" />
    <circle cx=435.82 cy=298.19583616199907 r=22.992980846801764 stroke=""none"" stroke-width=""1.5"" fill=""none"" />
    <polygon points = ""435.82,384 442.2878105473011,406.99298084680174 429.3521894526989,406.99298084680174"" stroke=""none"" stroke-width=""3"" fill = ""none"" />
    
    </svg>
    </div>
        ","","","","","","","","","","","","get_response","true","29WmGHwoMXuxRb4r","","","true","false","false","184.18","4","602.036","85.8041638380009","1.86","1","0","","",""
"html-keyboard-response","76","459086","0.0-76.0","null","null","","
    <div style="" display: block;  position: relative;"">
    
    <svg width=1366 height=768>
    <circle cx=620 cy=384 r=16.095086592761234 stroke=""black"" stroke-width=""1"" fill=""black"" />
    <circle cx=521.6241638380009 cy=384 r=22.992980846801764 stroke=""none"" stroke-width=""1.5"" fill=""none"" />
    <circle cx=435.82 cy=469.80416383800093 r=22.992980846801764 stroke=""none"" stroke-width=""1.5"" fill=""none"" />
    <circle cx=350.0158361619991 cy=384 r=22.992980846801764 stroke=""none"" stroke-width=""1.5"" fill=""none"" />
    <circle cx=435.82 cy=298.19583616199907 r=22.992980846801764 stroke=""none"" stroke-width=""1.5"" fill=""none"" />
    <polygon points = ""435.82,384 442.2878105473011,406.99298084680174 429.3521894526989,406.99298084680174"" stroke=""none"" stroke-width=""3"" fill = ""none"" />
    
    </svg>
    </div>
        ","","","","","","","","","","","","","","","","","","","","","","","","","","","","",""
"html-keyboard-response","77","459243","0.0-77.0","null","null","","
    <div style="" display: block;  position: relative;"">
    <svg width=1366 height=768>
    
    <circle cx=620 cy=384 r=16.095086592761234 stroke=""black"" stroke-width=""1"" fill=""black"" />
    <circle cx=804.1800000000001 cy=384 r=22.992980846801764 stroke=""black"" stroke-width=""1.5"" fill=""none"" />
    <circle cx=889.984163838001 cy=384 r=22.992980846801764 stroke=""black"" stroke-width=""1.5"" fill=""none"" />
    <circle cx=804.1800000000001 cy=469.80416383800093 r=22.992980846801764 stroke=""black"" stroke-width=""1.5"" fill=""none"" />
    <circle cx=718.3758361619991 cy=384 r=22.992980846801764 stroke=""black"" stroke-width=""1.5"" fill=""none"" />
    <circle cx=804.1800000000001 cy=298.19583616199907 r=22.992980846801764 stroke=""black"" stroke-width=""1.5"" fill=""none"" />
    <polygon points = ""804.1800000000001,384 810.6478105473012,406.99298084680174 797.7121894526989,406.99298084680174"" stroke=""white"" stroke-width=""3"" fill = ""white"" />
    
    </svg>
    </div>
        ","","","","","","","","","","","","stimulus","","","","","","","","","","","","","","","","",""
"html-keyboard-response","78","459500","0.0-78.0","255","arrowdown","","
    <div style="" display: block;  position: relative;"">
    
    <svg width=1366 height=768>
    <circle cx=620 cy=384 r=16.095086592761234 stroke=""black"" stroke-width=""1"" fill=""black"" />
    <circle cx=889.984163838001 cy=384 r=22.992980846801764 stroke=""none"" stroke-width=""1.5"" fill=""none"" />
    <circle cx=804.1800000000001 cy=469.80416383800093 r=22.992980846801764 stroke=""none"" stroke-width=""1.5"" fill=""none"" />
    <circle cx=718.3758361619991 cy=384 r=22.992980846801764 stroke=""none"" stroke-width=""1.5"" fill=""none"" />
    <circle cx=804.1800000000001 cy=298.19583616199907 r=22.992980846801764 stroke=""none"" stroke-width=""1.5"" fill=""none"" />
    <polygon points = ""804.1800000000001,384 810.6478105473012,406.99298084680174 797.7121894526989,406.99298084680174"" stroke=""none"" stroke-width=""3"" fill = ""none"" />
    
    </svg>
    </div>
        ","","","","","","","","","","","","get_response","true","29WmGHwoMXuxRb4r","","","false","false","false","184.18","4","602.036","85.8041638380009","1.86","1","0","","",""
"html-keyboard-response","79","460004","0.0-79.0","null","null","","
    <div style="" display: block;  position: relative;"">
    
    <svg width=1366 height=768>
    <circle cx=620 cy=384 r=16.095086592761234 stroke=""black"" stroke-width=""1"" fill=""black"" />
    <circle cx=889.984163838001 cy=384 r=22.992980846801764 stroke=""none"" stroke-width=""1.5"" fill=""none"" />
    <circle cx=804.1800000000001 cy=469.80416383800093 r=22.992980846801764 stroke=""none"" stroke-width=""1.5"" fill=""none"" />
    <circle cx=718.3758361619991 cy=384 r=22.992980846801764 stroke=""none"" stroke-width=""1.5"" fill=""none"" />
    <circle cx=804.1800000000001 cy=298.19583616199907 r=22.992980846801764 stroke=""none"" stroke-width=""1.5"" fill=""none"" />
    <polygon points = ""804.1800000000001,384 810.6478105473012,406.99298084680174 797.7121894526989,406.99298084680174"" stroke=""none"" stroke-width=""3"" fill = ""none"" />
    
    </svg>
    </div>
        ","","","","","","","","","","","","","","","","","","","","","","","","","","","","",""
"html-keyboard-response","80","460162","0.0-80.0","null","null","","
    <div style="" display: block;  position: relative;"">
    <svg width=1366 height=768>
    
    <circle cx=620 cy=384 r=16.095086592761234 stroke=""black"" stroke-width=""1"" fill=""black"" />
    <circle cx=804.1800000000001 cy=384 r=22.992980846801764 stroke=""black"" stroke-width=""1.5"" fill=""none"" />
    <circle cx=882.1837853072736 cy=384 r=22.992980846801764 stroke=""black"" stroke-width=""1.5"" fill=""none"" />
    <circle cx=804.1800000000001 cy=462.0037853072736 r=22.992980846801764 stroke=""black"" stroke-width=""1.5"" fill=""none"" />
    <circle cx=726.1762146927265 cy=384 r=22.992980846801764 stroke=""black"" stroke-width=""1.5"" fill=""none"" />
    <circle cx=804.1800000000001 cy=305.9962146927264 r=22.992980846801764 stroke=""black"" stroke-width=""1.5"" fill=""none"" />
    <polygon points = ""804.1800000000001,384 810.6478105473012,406.99298084680174 797.7121894526989,406.99298084680174"" stroke=""white"" stroke-width=""3"" fill = ""white"" />
    
    </svg>
    </div>
        ","","","","","","","","","","","","stimulus","","","","","","","","","","","","","","","","",""
"html-keyboard-response","81","460421","0.0-81.0","256.39999997615814","arrowdown","","
    <div style="" display: block;  position: relative;"">
    
    <svg width=1366 height=768>
    <circle cx=620 cy=384 r=16.095086592761234 stroke=""black"" stroke-width=""1"" fill=""black"" />
    <circle cx=882.1837853072736 cy=384 r=22.992980846801764 stroke=""none"" stroke-width=""1.5"" fill=""none"" />
    <circle cx=804.1800000000001 cy=462.0037853072736 r=22.992980846801764 stroke=""none"" stroke-width=""1.5"" fill=""none"" />
    <circle cx=726.1762146927265 cy=384 r=22.992980846801764 stroke=""none"" stroke-width=""1.5"" fill=""none"" />
    <circle cx=804.1800000000001 cy=305.9962146927264 r=22.992980846801764 stroke=""none"" stroke-width=""1.5"" fill=""none"" />
    <polygon points = ""804.1800000000001,384 810.6478105473012,406.99298084680174 797.7121894526989,406.99298084680174"" stroke=""none"" stroke-width=""3"" fill = ""none"" />
    
    </svg>
    </div>
        ","","","","","","","","","","","","get_response","true","29WmGHwoMXuxRb4r","","","false","false","false","184.18","4","602.036","78.00378530727355","1.69","1","0","","",""
"html-keyboard-response","82","460929","0.0-82.0","null","null","","
    <div style="" display: block;  position: relative;"">
    
    <svg width=1366 height=768>
    <circle cx=620 cy=384 r=16.095086592761234 stroke=""black"" stroke-width=""1"" fill=""black"" />
    <circle cx=882.1837853072736 cy=384 r=22.992980846801764 stroke=""none"" stroke-width=""1.5"" fill=""none"" />
    <circle cx=804.1800000000001 cy=462.0037853072736 r=22.992980846801764 stroke=""none"" stroke-width=""1.5"" fill=""none"" />
    <circle cx=726.1762146927265 cy=384 r=22.992980846801764 stroke=""none"" stroke-width=""1.5"" fill=""none"" />
    <circle cx=804.1800000000001 cy=305.9962146927264 r=22.992980846801764 stroke=""none"" stroke-width=""1.5"" fill=""none"" />
    <polygon points = ""804.1800000000001,384 810.6478105473012,406.99298084680174 797.7121894526989,406.99298084680174"" stroke=""none"" stroke-width=""3"" fill = ""none"" />
    
    </svg>
    </div>
        ","","","","","","","","","","","","","","","","","","","","","","","","","","","","",""
"html-keyboard-response","83","461087","0.0-83.0","null","null","","
    <div style="" display: block;  position: relative;"">
    <svg width=1366 height=768>
    
    <circle cx=620 cy=384 r=16.095086592761234 stroke=""black"" stroke-width=""1"" fill=""black"" />
    <circle cx=435.82 cy=384 r=22.992980846801764 stroke=""black"" stroke-width=""1.5"" fill=""none"" />
    <circle cx=506.7325320975214 cy=384 r=22.992980846801764 stroke=""black"" stroke-width=""1.5"" fill=""none"" />
    <circle cx=435.82 cy=454.9125320975214 r=22.992980846801764 stroke=""black"" stroke-width=""1.5"" fill=""none"" />
    <circle cx=364.9074679024786 cy=384 r=22.992980846801764 stroke=""black"" stroke-width=""1.5"" fill=""none"" />
    <circle cx=435.82 cy=313.0874679024786 r=22.992980846801764 stroke=""black"" stroke-width=""1.5"" fill=""none"" />
    <polygon points = ""435.82,384 442.2878105473011,361.00701915319826 429.3521894526989,361.00701915319826"" stroke=""white"" stroke-width=""3"" fill = ""white"" />
    
    </svg>
    </div>
        ","","","","","","","","","","","","stimulus","","","","","","","","","","","","","","","","",""
"html-keyboard-response","84","461463","0.0-84.0","374.19999998807907","arrowup","","
    <div style="" display: block;  position: relative;"">
    
    <svg width=1366 height=768>
    <circle cx=620 cy=384 r=16.095086592761234 stroke=""black"" stroke-width=""1"" fill=""black"" />
    <circle cx=506.7325320975214 cy=384 r=22.992980846801764 stroke=""none"" stroke-width=""1.5"" fill=""none"" />
    <circle cx=435.82 cy=454.9125320975214 r=22.992980846801764 stroke=""none"" stroke-width=""1.5"" fill=""none"" />
    <circle cx=364.9074679024786 cy=384 r=22.992980846801764 stroke=""none"" stroke-width=""1.5"" fill=""none"" />
    <circle cx=435.82 cy=313.0874679024786 r=22.992980846801764 stroke=""none"" stroke-width=""1.5"" fill=""none"" />
    <polygon points = ""435.82,384 442.2878105473011,361.00701915319826 429.3521894526989,361.00701915319826"" stroke=""none"" stroke-width=""3"" fill = ""none"" />
    
    </svg>
    </div>
        ","","","","","","","","","","","","get_response","true","29WmGHwoMXuxRb4r","","","true","true","false","184.18","4","602.036","70.9125320975214","1.54","1","0","","",""
"html-keyboard-response","85","461977","0.0-85.0","null","null","","
    <div style="" display: block;  position: relative;"">
    
    <svg width=1366 height=768>
    <circle cx=620 cy=384 r=16.095086592761234 stroke=""black"" stroke-width=""1"" fill=""black"" />
    <circle cx=506.7325320975214 cy=384 r=22.992980846801764 stroke=""none"" stroke-width=""1.5"" fill=""none"" />
    <circle cx=435.82 cy=454.9125320975214 r=22.992980846801764 stroke=""none"" stroke-width=""1.5"" fill=""none"" />
    <circle cx=364.9074679024786 cy=384 r=22.992980846801764 stroke=""none"" stroke-width=""1.5"" fill=""none"" />
    <circle cx=435.82 cy=313.0874679024786 r=22.992980846801764 stroke=""none"" stroke-width=""1.5"" fill=""none"" />
    <polygon points = ""435.82,384 442.2878105473011,361.00701915319826 429.3521894526989,361.00701915319826"" stroke=""none"" stroke-width=""3"" fill = ""none"" />
    
    </svg>
    </div>
        ","","","","","","","","","","","","","","","","","","","","","","","","","","","","",""
"html-keyboard-response","86","462131","0.0-86.0","null","null","","
    <div style="" display: block;  position: relative;"">
    <svg width=1366 height=768>
    
    <circle cx=620 cy=384 r=16.095086592761234 stroke=""black"" stroke-width=""1"" fill=""black"" />
    <circle cx=804.1800000000001 cy=384 r=22.992980846801764 stroke=""black"" stroke-width=""1.5"" fill=""none"" />
    <circle cx=868.6459382704741 cy=384 r=22.992980846801764 stroke=""black"" stroke-width=""1.5"" fill=""none"" />
    <circle cx=804.1800000000001 cy=448.465938270474 r=22.992980846801764 stroke=""black"" stroke-width=""1.5"" fill=""none"" />
    <circle cx=739.7140617295261 cy=384 r=22.992980846801764 stroke=""black"" stroke-width=""1.5"" fill=""none"" />
    <circle cx=804.1800000000001 cy=319.534061729526 r=22.992980846801764 stroke=""black"" stroke-width=""1.5"" fill=""none"" />
    <polygon points = ""804.1800000000001,384 810.6478105473012,361.00701915319826 797.7121894526989,361.00701915319826"" stroke=""white"" stroke-width=""3"" fill = ""white"" />
    
    </svg>
    </div>
        ","","","","","","","","","","","","stimulus","","","","","","","","","","","","","","","","",""
"html-keyboard-response","87","462536","0.0-87.0","403.5","arrowup","","
    <div style="" display: block;  position: relative;"">
    
    <svg width=1366 height=768>
    <circle cx=620 cy=384 r=16.095086592761234 stroke=""black"" stroke-width=""1"" fill=""black"" />
    <circle cx=868.6459382704741 cy=384 r=22.992980846801764 stroke=""none"" stroke-width=""1.5"" fill=""none"" />
    <circle cx=804.1800000000001 cy=448.465938270474 r=22.992980846801764 stroke=""none"" stroke-width=""1.5"" fill=""none"" />
    <circle cx=739.7140617295261 cy=384 r=22.992980846801764 stroke=""none"" stroke-width=""1.5"" fill=""none"" />
    <circle cx=804.1800000000001 cy=319.534061729526 r=22.992980846801764 stroke=""none"" stroke-width=""1.5"" fill=""none"" />
    <polygon points = ""804.1800000000001,384 810.6478105473012,361.00701915319826 797.7121894526989,361.00701915319826"" stroke=""none"" stroke-width=""3"" fill = ""none"" />
    
    </svg>
    </div>
        ","","","","","","","","","","","","get_response","true","29WmGHwoMXuxRb4r","","","false","true","false","184.18","4","602.036","64.465938270474","1.4","1","0","","",""
"html-keyboard-response","88","463038","0.0-88.0","null","null","","
    <div style="" display: block;  position: relative;"">
    
    <svg width=1366 height=768>
    <circle cx=620 cy=384 r=16.095086592761234 stroke=""black"" stroke-width=""1"" fill=""black"" />
    <circle cx=868.6459382704741 cy=384 r=22.992980846801764 stroke=""none"" stroke-width=""1.5"" fill=""none"" />
    <circle cx=804.1800000000001 cy=448.465938270474 r=22.992980846801764 stroke=""none"" stroke-width=""1.5"" fill=""none"" />
    <circle cx=739.7140617295261 cy=384 r=22.992980846801764 stroke=""none"" stroke-width=""1.5"" fill=""none"" />
    <circle cx=804.1800000000001 cy=319.534061729526 r=22.992980846801764 stroke=""none"" stroke-width=""1.5"" fill=""none"" />
    <polygon points = ""804.1800000000001,384 810.6478105473012,361.00701915319826 797.7121894526989,361.00701915319826"" stroke=""none"" stroke-width=""3"" fill = ""none"" />
    
    </svg>
    </div>
        ","","","","","","","","","","","","","","","","","","","","","","","","","","","","",""
"html-keyboard-response","89","463195","0.0-89.0","null","null","","
    <div style="" display: block;  position: relative;"">
    <svg width=1366 height=768>
    
    <circle cx=620 cy=384 r=16.095086592761234 stroke=""black"" stroke-width=""1"" fill=""black"" />
    <circle cx=435.82 cy=384 r=22.992980846801764 stroke=""black"" stroke-width=""1.5"" fill=""none"" />
    <circle cx=494.4253984277036 cy=384 r=22.992980846801764 stroke=""black"" stroke-width=""1.5"" fill=""none"" />
    <circle cx=435.82 cy=442.6053984277036 r=22.992980846801764 stroke=""black"" stroke-width=""1.5"" fill=""none"" />
    <circle cx=377.2146015722964 cy=384 r=22.992980846801764 stroke=""black"" stroke-width=""1.5"" fill=""none"" />
    <circle cx=435.82 cy=325.3946015722964 r=22.992980846801764 stroke=""black"" stroke-width=""1.5"" fill=""none"" />
    <polygon points = ""435.82,384 442.2878105473011,406.99298084680174 429.3521894526989,406.99298084680174"" stroke=""white"" stroke-width=""3"" fill = ""white"" />
    
    </svg>
    </div>
        ","","","","","","","","","","","","stimulus","","","","","","","","","","","","","","","","",""
"html-keyboard-response","90","463512","0.0-90.0","315.30000001192093","arrowdown","","
    <div style="" display: block;  position: relative;"">
    
    <svg width=1366 height=768>
    <circle cx=620 cy=384 r=16.095086592761234 stroke=""black"" stroke-width=""1"" fill=""black"" />
    <circle cx=494.4253984277036 cy=384 r=22.992980846801764 stroke=""none"" stroke-width=""1.5"" fill=""none"" />
    <circle cx=435.82 cy=442.6053984277036 r=22.992980846801764 stroke=""none"" stroke-width=""1.5"" fill=""none"" />
    <circle cx=377.2146015722964 cy=384 r=22.992980846801764 stroke=""none"" stroke-width=""1.5"" fill=""none"" />
    <circle cx=435.82 cy=325.3946015722964 r=22.992980846801764 stroke=""none"" stroke-width=""1.5"" fill=""none"" />
    <polygon points = ""435.82,384 442.2878105473011,406.99298084680174 429.3521894526989,406.99298084680174"" stroke=""none"" stroke-width=""3"" fill = ""none"" />
    
    </svg>
    </div>
        ","","","","","","","","","","","","get_response","true","29WmGHwoMXuxRb4r","","","true","false","false","184.18","4","602.036","58.60539842770363","1.27","1","0","","",""
"html-keyboard-response","91","464017","0.0-91.0","null","null","","
    <div style="" display: block;  position: relative;"">
    
    <svg width=1366 height=768>
    <circle cx=620 cy=384 r=16.095086592761234 stroke=""black"" stroke-width=""1"" fill=""black"" />
    <circle cx=494.4253984277036 cy=384 r=22.992980846801764 stroke=""none"" stroke-width=""1.5"" fill=""none"" />
    <circle cx=435.82 cy=442.6053984277036 r=22.992980846801764 stroke=""none"" stroke-width=""1.5"" fill=""none"" />
    <circle cx=377.2146015722964 cy=384 r=22.992980846801764 stroke=""none"" stroke-width=""1.5"" fill=""none"" />
    <circle cx=435.82 cy=325.3946015722964 r=22.992980846801764 stroke=""none"" stroke-width=""1.5"" fill=""none"" />
    <polygon points = ""435.82,384 442.2878105473011,406.99298084680174 429.3521894526989,406.99298084680174"" stroke=""none"" stroke-width=""3"" fill = ""none"" />
    
    </svg>
    </div>
        ","","","","","","","","","","","","","","","","","","","","","","","","","","","","",""
"html-keyboard-response","92","464178","0.0-92.0","null","null","","
    <div style="" display: block;  position: relative;"">
    <svg width=1366 height=768>
    
    <circle cx=620 cy=384 r=16.095086592761234 stroke=""black"" stroke-width=""1"" fill=""black"" />
    <circle cx=435.82 cy=384 r=22.992980846801764 stroke=""black"" stroke-width=""1.5"" fill=""none"" />
    <circle cx=489.097634934276 cy=384 r=22.992980846801764 stroke=""black"" stroke-width=""1.5"" fill=""none"" />
    <circle cx=435.82 cy=437.277634934276 r=22.992980846801764 stroke=""black"" stroke-width=""1.5"" fill=""none"" />
    <circle cx=382.54236506572397 cy=384 r=22.992980846801764 stroke=""black"" stroke-width=""1.5"" fill=""none"" />
    <circle cx=435.82 cy=330.722365065724 r=22.992980846801764 stroke=""black"" stroke-width=""1.5"" fill=""none"" />
    <polygon points = ""435.82,384 442.2878105473011,361.00701915319826 429.3521894526989,361.00701915319826"" stroke=""white"" stroke-width=""3"" fill = ""white"" />
    
    </svg>
    </div>
        ","","","","","","","","","","","","stimulus","","","","","","","","","","","","","","","","",""
"html-keyboard-response","93","464620","0.0-93.0","439.9000000357628","arrowup","","
    <div style="" display: block;  position: relative;"">
    
    <svg width=1366 height=768>
    <circle cx=620 cy=384 r=16.095086592761234 stroke=""black"" stroke-width=""1"" fill=""black"" />
    <circle cx=489.097634934276 cy=384 r=22.992980846801764 stroke=""none"" stroke-width=""1.5"" fill=""none"" />
    <circle cx=435.82 cy=437.277634934276 r=22.992980846801764 stroke=""none"" stroke-width=""1.5"" fill=""none"" />
    <circle cx=382.54236506572397 cy=384 r=22.992980846801764 stroke=""none"" stroke-width=""1.5"" fill=""none"" />
    <circle cx=435.82 cy=330.722365065724 r=22.992980846801764 stroke=""none"" stroke-width=""1.5"" fill=""none"" />
    <polygon points = ""435.82,384 442.2878105473011,361.00701915319826 429.3521894526989,361.00701915319826"" stroke=""none"" stroke-width=""3"" fill = ""none"" />
    
    </svg>
    </div>
        ","","","","","","","","","","","","get_response","true","29WmGHwoMXuxRb4r","","","true","true","false","184.18","4","602.036","53.27763493427602","1.16","1","0","","",""
"html-keyboard-response","94","465126","0.0-94.0","null","null","","
    <div style="" display: block;  position: relative;"">
    
    <svg width=1366 height=768>
    <circle cx=620 cy=384 r=16.095086592761234 stroke=""black"" stroke-width=""1"" fill=""black"" />
    <circle cx=489.097634934276 cy=384 r=22.992980846801764 stroke=""none"" stroke-width=""1.5"" fill=""none"" />
    <circle cx=435.82 cy=437.277634934276 r=22.992980846801764 stroke=""none"" stroke-width=""1.5"" fill=""none"" />
    <circle cx=382.54236506572397 cy=384 r=22.992980846801764 stroke=""none"" stroke-width=""1.5"" fill=""none"" />
    <circle cx=435.82 cy=330.722365065724 r=22.992980846801764 stroke=""none"" stroke-width=""1.5"" fill=""none"" />
    <polygon points = ""435.82,384 442.2878105473011,361.00701915319826 429.3521894526989,361.00701915319826"" stroke=""none"" stroke-width=""3"" fill = ""none"" />
    
    </svg>
    </div>
        ","","","","","","","","","","","","","","","","","","","","","","","","","","","","",""
"html-keyboard-response","95","465287","0.0-95.0","null","null","","
    <div style="" display: block;  position: relative;"">
    <svg width=1366 height=768>
    
    <circle cx=620 cy=384 r=16.095086592761234 stroke=""black"" stroke-width=""1"" fill=""black"" />
    <circle cx=804.1800000000001 cy=384 r=22.992980846801764 stroke=""black"" stroke-width=""1.5"" fill=""none"" />
    <circle cx=852.6142135766146 cy=384 r=22.992980846801764 stroke=""black"" stroke-width=""1.5"" fill=""none"" />
