"trial_type","trial_index","time_elapsed","internal_node_id","rt","response","success","stimulus","start_time","start_time_unix","item_width_mm","item_height_mm","item_width_px","px2mm","view_dist_mm","item_width_deg","px2deg","win_width_deg","win_height_deg","trialType","correct","participantID","criticalSpacing","criticalSpacing_deg","isLeft","isUp","isEccen4","eccentricity","eccentricity_deg","viewingDistanceMean","critical_spacing","critical_spacing_deg","crowding_session","correctRate","viewDistance_1","viewDistance_2","viewDistance_3"
"pavlovia","0","19","0.0-0.0","","","","","","","","","","","","","","","","","","","","","","","","","","","","","","","","",""
"survey-text","1","6321","0.0-1.0","6159.699999999721","{""Q0"":""""}","","","","","","","","","","","","","","","","","","","","","","","","","","","","","","",""
"fullscreen","2","11403","0.0-2.0","","","true","","","","","","","","","","","","","","","","","","","","","","","","","","","","","",""
"html-keyboard-response","3","21807","0.0-3.0","10397.69999999972"," ","","<h1>Consent Form</h1>
       <p>By answering the following questions, you are participating in a study being performed by cognitive scientists in the Stanford Department of Psychology. If you have questions about this research, please contact us at stanfordpsych251@gmail.com. You must be at least 18 years old to participate. Your participation in this research is voluntary. You may decline to answer any or all of the following questions. You may decline further participation by closing the window, at any time, without adverse consequences. Your anonymity is assured; the researchers who have requested your participation will not receive any personal information about you.</p>
       <p>Press <b>any key</b> to start the experiment!</p>","","","","","","","","","","","","","","","","","","","","","","","","","","","","",""
"html-keyboard-response","4","25488","0.0-4.0","3677.6999999997206"," ","","<h1>Welcome to the Visual Crowding Experiment!</h1>
       <p>This test will take <b>10-12</b> minutes to complete.</p>
       <p>Press any key to start the experiment!</p>","12/1/2021, 7:58:57 AM","1638338337176","","","","","","","","","","","","","","","","","","","","","","","","","","",""
"html-keyboard-response","5","72844","0.0-5.0","47352.200000000186","arrowdown","","<div> 
<p> Before you begin this study, let&#39;s quickly test how far away you are sitting. You might know that vision tests at a doctor&#39;s practice often involve chinrests, the doctor basically asks you to sit away from a screen in a specific distance. We do this here with a <b>virtual chinrest</b>. </p>
<p> Please press the <b>down</b> arrow to continue.
</p>
</div>","","","","","","","","","","","","","","","","","","","","","","","","","","","","",""
"virtual-chinrest","6","398247","0.0-6.0","325397.5999999996","","","","","","85.6","53.98","344","4.02","537.32","9.108511167960419","37.766874701766284","36.16926237044748","20.335280747074425","","","","","","","","","","","","","","","","","",""
"html-keyboard-response","7","461334","0.0-7.0","63073.39999999991","arrowdown","","
	<h2 class=""bolded-blue"">Now, you will take a peripheral vision test!</h2>
<p> 
	<b>
		<font size=""140%"">1. </font>
	</b>
	<em><b>Please use both eyes for the following task.</b></em> First, you will see a screen (like the one in the image below) showing a <b>black dot</b> in the middle of the screen, with a group of circles displayed on either the <span class=""bolded-blue"">left</span> or <span class=""bolded-blue"">right</span> of the black dot for 150 ms. <span class=""bolded-blue"">Please make sure to focus on the black dot all the time!</span>

	<div>
		<img src=""example.png"" alt=""example"" style=""border: 2px solid black"" width=""600""/> 
	</div>
	
	<b>
		<font size=""140%"">2. </font>
	</b>
	Your task is to identify whether the opening of the <b class=""bolded-blue"">center circle</b> is upward by pressing UP or downward by pressing DOWN on your keyboard. The opening of the circle will only be upward or downward, not towards left or right.

	<div>
		<img src=""arrow_keys+.png"" alt=""arrows"" style=""border: 2px solid black"" width=""600""/>
	</div>
	<br>

<p>Please press the <b>down</b> arrow key to start the <span class=""bolded-blue"">practice task</span> (this first practice task will not count toward your final results).</p>
</p>
","","","","","","","","","","","","","","","","","","","","","","","","","","","","",""
"html-keyboard-response","8","461857","0.0-8.0","null","null","","
    <div style="" display: block;  position: relative;"">
    
    <svg width=1366 height=768>
    <circle cx=620 cy=384 r=13.80420429295509 stroke=""black"" stroke-width=""1"" fill=""black"" />
    <circle cx=NaN cy=384 r=19.720291847078702 stroke=""none"" stroke-width=""1.5"" fill=""none"" />
    <circle cx=462.03999999999996 cy=NaN r=19.720291847078702 stroke=""none"" stroke-width=""1.5"" fill=""none"" />
    <circle cx=NaN cy=384 r=19.720291847078702 stroke=""none"" stroke-width=""1.5"" fill=""none"" />
    <circle cx=462.03999999999996 cy=NaN r=19.720291847078702 stroke=""none"" stroke-width=""1.5"" fill=""none"" />
    <polygon points = ""462.03999999999996,384 467.587219495124,403.7202918470787 456.49278050487595,403.7202918470787"" stroke=""none"" stroke-width=""3"" fill = ""none"" />
    
    </svg>
    </div>
        ","","","","","","","","","","","","","","","","","","","","","","","","","","","","",""
"html-keyboard-response","9","462015","0.0-9.0","null","null","","
    <div style="" display: block;  position: relative;"">
    <svg width=1366 height=768>
    
    <circle cx=620 cy=384 r=13.80420429295509 stroke=""black"" stroke-width=""1"" fill=""black"" />
    <circle cx=462.03999999999996 cy=384 r=19.720291847078702 stroke=""black"" stroke-width=""1.5"" fill=""none"" />
    <circle cx=564.7139999999999 cy=384 r=19.720291847078702 stroke=""black"" stroke-width=""1.5"" fill=""none"" />
    <circle cx=462.03999999999996 cy=486.674 r=19.720291847078702 stroke=""black"" stroke-width=""1.5"" fill=""none"" />
    <circle cx=359.366 cy=384 r=19.720291847078702 stroke=""black"" stroke-width=""1.5"" fill=""none"" />
    <circle cx=462.03999999999996 cy=281.326 r=19.720291847078702 stroke=""black"" stroke-width=""1.5"" fill=""none"" />
    <polygon points = ""462.03999999999996,384 467.587219495124,364.2797081529213 456.49278050487595,364.2797081529213"" stroke=""white"" stroke-width=""3"" fill = ""white"" />
    
    </svg>
    </div>
        ","","","","","","","","","","","","stimulus","","","","","","","","","","","","","","","","",""
"html-keyboard-response","10","478874","0.0-10.0","16853.100000000093","arrowdown","","
    <div style="" display: block;  position: relative;"">
    
    <svg width=1366 height=768>
    <circle cx=620 cy=384 r=13.80420429295509 stroke=""black"" stroke-width=""1"" fill=""black"" />
    <circle cx=564.7139999999999 cy=384 r=19.720291847078702 stroke=""none"" stroke-width=""1.5"" fill=""none"" />
    <circle cx=462.03999999999996 cy=486.674 r=19.720291847078702 stroke=""none"" stroke-width=""1.5"" fill=""none"" />
    <circle cx=359.366 cy=384 r=19.720291847078702 stroke=""none"" stroke-width=""1.5"" fill=""none"" />
    <circle cx=462.03999999999996 cy=281.326 r=19.720291847078702 stroke=""none"" stroke-width=""1.5"" fill=""none"" />
    <polygon points = ""462.03999999999996,384 467.587219495124,364.2797081529213 456.49278050487595,364.2797081529213"" stroke=""none"" stroke-width=""3"" fill = ""none"" />
    
    </svg>
    </div>
        ","","","","","","","","","","","","practice_get_response","false","FXNEkK1nmwMknSyJ","102.674","2.6","true","true","true","157.96","4","563.87","","","","","","",""
"html-keyboard-response","11","479388","0.0-11.0","null","null","","
    <div style="" display: block;  position: relative;"">
    
    <svg width=1366 height=768>
    <circle cx=620 cy=384 r=13.80420429295509 stroke=""black"" stroke-width=""1"" fill=""black"" />
    <circle cx=564.7139999999999 cy=384 r=19.720291847078702 stroke=""none"" stroke-width=""1.5"" fill=""none"" />
    <circle cx=462.03999999999996 cy=486.674 r=19.720291847078702 stroke=""none"" stroke-width=""1.5"" fill=""none"" />
    <circle cx=359.366 cy=384 r=19.720291847078702 stroke=""none"" stroke-width=""1.5"" fill=""none"" />
    <circle cx=462.03999999999996 cy=281.326 r=19.720291847078702 stroke=""none"" stroke-width=""1.5"" fill=""none"" />
    <polygon points = ""462.03999999999996,384 467.587219495124,364.2797081529213 456.49278050487595,364.2797081529213"" stroke=""none"" stroke-width=""3"" fill = ""none"" />
    
    </svg>
    </div>
        ","","","","","","","","","","","","","","","","","","","","","","","","","","","","",""
"html-keyboard-response","12","479545","0.0-12.0","null","null","","
    <div style="" display: block;  position: relative;"">
    <svg width=1366 height=768>
    
    <circle cx=620 cy=384 r=13.80420429295509 stroke=""black"" stroke-width=""1"" fill=""black"" />
    <circle cx=462.03999999999996 cy=384 r=19.720291847078702 stroke=""black"" stroke-width=""1.5"" fill=""none"" />
    <circle cx=580.5594163058425 cy=384 r=19.720291847078702 stroke=""black"" stroke-width=""1.5"" fill=""none"" />
    <circle cx=462.03999999999996 cy=502.5194163058426 r=19.720291847078702 stroke=""black"" stroke-width=""1.5"" fill=""none"" />
    <circle cx=343.5205836941574 cy=384 r=19.720291847078702 stroke=""black"" stroke-width=""1.5"" fill=""none"" />
    <circle cx=462.03999999999996 cy=265.4805836941574 r=19.720291847078702 stroke=""black"" stroke-width=""1.5"" fill=""none"" />
    <polygon points = ""462.03999999999996,384 467.587219495124,403.7202918470787 456.49278050487595,403.7202918470787"" stroke=""white"" stroke-width=""3"" fill = ""white"" />
    
    </svg>
    </div>
        ","","","","","","","","","","","","stimulus","","","","","","","","","","","","","","","","",""
"html-keyboard-response","13","479578","0.0-13.0","29.299999999813735","arrowdown","","
    <div style="" display: block;  position: relative;"">
    
    <svg width=1366 height=768>
    <circle cx=620 cy=384 r=13.80420429295509 stroke=""black"" stroke-width=""1"" fill=""black"" />
    <circle cx=580.5594163058425 cy=384 r=19.720291847078702 stroke=""none"" stroke-width=""1.5"" fill=""none"" />
    <circle cx=462.03999999999996 cy=502.5194163058426 r=19.720291847078702 stroke=""none"" stroke-width=""1.5"" fill=""none"" />
    <circle cx=343.5205836941574 cy=384 r=19.720291847078702 stroke=""none"" stroke-width=""1.5"" fill=""none"" />
    <circle cx=462.03999999999996 cy=265.4805836941574 r=19.720291847078702 stroke=""none"" stroke-width=""1.5"" fill=""none"" />
    <polygon points = ""462.03999999999996,384 467.587219495124,403.7202918470787 456.49278050487595,403.7202918470787"" stroke=""none"" stroke-width=""3"" fill = ""none"" />
    
    </svg>
    </div>
        ","","","","","","","","","","","","practice_get_response","true","FXNEkK1nmwMknSyJ","118.51941630584261","3","true","false","true","157.96","4","563.87","","","","","","",""
"html-keyboard-response","14","480084","0.0-14.0","null","null","","
    <div style="" display: block;  position: relative;"">
    
    <svg width=1366 height=768>
    <circle cx=620 cy=384 r=13.80420429295509 stroke=""black"" stroke-width=""1"" fill=""black"" />
    <circle cx=580.5594163058425 cy=384 r=19.720291847078702 stroke=""none"" stroke-width=""1.5"" fill=""none"" />
    <circle cx=462.03999999999996 cy=502.5194163058426 r=19.720291847078702 stroke=""none"" stroke-width=""1.5"" fill=""none"" />
    <circle cx=343.5205836941574 cy=384 r=19.720291847078702 stroke=""none"" stroke-width=""1.5"" fill=""none"" />
    <circle cx=462.03999999999996 cy=265.4805836941574 r=19.720291847078702 stroke=""none"" stroke-width=""1.5"" fill=""none"" />
    <polygon points = ""462.03999999999996,384 467.587219495124,403.7202918470787 456.49278050487595,403.7202918470787"" stroke=""none"" stroke-width=""3"" fill = ""none"" />
    
    </svg>
    </div>
        ","","","","","","","","","","","","","","","","","","","","","","","","","","","","",""
"html-keyboard-response","15","480240","0.0-15.0","null","null","","
    <div style="" display: block;  position: relative;"">
    <svg width=1366 height=768>
    
    <circle cx=620 cy=384 r=13.80420429295509 stroke=""black"" stroke-width=""1"" fill=""black"" />
    <circle cx=777.96 cy=384 r=19.720291847078702 stroke=""black"" stroke-width=""1.5"" fill=""none"" />
    <circle cx=896.4794163058426 cy=384 r=19.720291847078702 stroke=""black"" stroke-width=""1.5"" fill=""none"" />
    <circle cx=777.96 cy=502.5194163058426 r=19.720291847078702 stroke=""black"" stroke-width=""1.5"" fill=""none"" />
    <circle cx=659.4405836941575 cy=384 r=19.720291847078702 stroke=""black"" stroke-width=""1.5"" fill=""none"" />
    <circle cx=777.96 cy=265.4805836941574 r=19.720291847078702 stroke=""black"" stroke-width=""1.5"" fill=""none"" />
    <polygon points = ""777.96,384 783.507219495124,403.7202918470787 772.4127805048761,403.7202918470787"" stroke=""white"" stroke-width=""3"" fill = ""white"" />
    
    </svg>
    </div>
        ","","","","","","","","","","","","stimulus","","","","","","","","","","","","","","","","",""
"html-keyboard-response","16","483969","0.0-16.0","3725","arrowdown","","
    <div style="" display: block;  position: relative;"">
    
    <svg width=1366 height=768>
    <circle cx=620 cy=384 r=13.80420429295509 stroke=""black"" stroke-width=""1"" fill=""black"" />
    <circle cx=896.4794163058426 cy=384 r=19.720291847078702 stroke=""none"" stroke-width=""1.5"" fill=""none"" />
    <circle cx=777.96 cy=502.5194163058426 r=19.720291847078702 stroke=""none"" stroke-width=""1.5"" fill=""none"" />
    <circle cx=659.4405836941575 cy=384 r=19.720291847078702 stroke=""none"" stroke-width=""1.5"" fill=""none"" />
    <circle cx=777.96 cy=265.4805836941574 r=19.720291847078702 stroke=""none"" stroke-width=""1.5"" fill=""none"" />
    <polygon points = ""777.96,384 783.507219495124,403.7202918470787 772.4127805048761,403.7202918470787"" stroke=""none"" stroke-width=""3"" fill = ""none"" />
    
    </svg>
    </div>
        ","","","","","","","","","","","","practice_get_response","true","FXNEkK1nmwMknSyJ","118.51941630584261","3","false","false","true","157.96","4","563.87","","","","","","",""
"html-keyboard-response","17","484486","0.0-17.0","null","null","","
    <div style="" display: block;  position: relative;"">
    
    <svg width=1366 height=768>
    <circle cx=620 cy=384 r=13.80420429295509 stroke=""black"" stroke-width=""1"" fill=""black"" />
    <circle cx=896.4794163058426 cy=384 r=19.720291847078702 stroke=""none"" stroke-width=""1.5"" fill=""none"" />
    <circle cx=777.96 cy=502.5194163058426 r=19.720291847078702 stroke=""none"" stroke-width=""1.5"" fill=""none"" />
    <circle cx=659.4405836941575 cy=384 r=19.720291847078702 stroke=""none"" stroke-width=""1.5"" fill=""none"" />
    <circle cx=777.96 cy=265.4805836941574 r=19.720291847078702 stroke=""none"" stroke-width=""1.5"" fill=""none"" />
    <polygon points = ""777.96,384 783.507219495124,403.7202918470787 772.4127805048761,403.7202918470787"" stroke=""none"" stroke-width=""3"" fill = ""none"" />
    
    </svg>
    </div>
        ","","","","","","","","","","","","","","","","","","","","","","","","","","","","",""
"html-keyboard-response","18","484605","0.0-18.0","114.6999999997206","arrowup","","
    <div style="" display: block;  position: relative;"">
    <svg width=1366 height=768>
    
    <circle cx=620 cy=384 r=13.80420429295509 stroke=""black"" stroke-width=""1"" fill=""black"" />
    <circle cx=462.03999999999996 cy=384 r=19.720291847078702 stroke=""black"" stroke-width=""1.5"" fill=""none"" />
    <circle cx=580.5594163058425 cy=384 r=19.720291847078702 stroke=""black"" stroke-width=""1.5"" fill=""none"" />
    <circle cx=462.03999999999996 cy=502.5194163058426 r=19.720291847078702 stroke=""black"" stroke-width=""1.5"" fill=""none"" />
    <circle cx=343.5205836941574 cy=384 r=19.720291847078702 stroke=""black"" stroke-width=""1.5"" fill=""none"" />
    <circle cx=462.03999999999996 cy=265.4805836941574 r=19.720291847078702 stroke=""black"" stroke-width=""1.5"" fill=""none"" />
    <polygon points = ""462.03999999999996,384 467.587219495124,364.2797081529213 456.49278050487595,364.2797081529213"" stroke=""white"" stroke-width=""3"" fill = ""white"" />
    
    </svg>
    </div>
        ","","","","","","","","","","","","stimulus","","","","","","","","","","","","","","","","",""
"html-keyboard-response","19","491401","0.0-19.0","6791.600000000093","arrowdown","","
    <div style="" display: block;  position: relative;"">
    
    <svg width=1366 height=768>
    <circle cx=620 cy=384 r=13.80420429295509 stroke=""black"" stroke-width=""1"" fill=""black"" />
    <circle cx=580.5594163058425 cy=384 r=19.720291847078702 stroke=""none"" stroke-width=""1.5"" fill=""none"" />
    <circle cx=462.03999999999996 cy=502.5194163058426 r=19.720291847078702 stroke=""none"" stroke-width=""1.5"" fill=""none"" />
    <circle cx=343.5205836941574 cy=384 r=19.720291847078702 stroke=""none"" stroke-width=""1.5"" fill=""none"" />
    <circle cx=462.03999999999996 cy=265.4805836941574 r=19.720291847078702 stroke=""none"" stroke-width=""1.5"" fill=""none"" />
    <polygon points = ""462.03999999999996,384 467.587219495124,364.2797081529213 456.49278050487595,364.2797081529213"" stroke=""none"" stroke-width=""3"" fill = ""none"" />
    
    </svg>
    </div>
        ","","","","","","","","","","","","practice_get_response","false","FXNEkK1nmwMknSyJ","118.51941630584261","3","true","true","true","157.96","4","563.87","","","","","","",""
"html-keyboard-response","20","491911","0.0-20.0","null","null","","
    <div style="" display: block;  position: relative;"">
    
    <svg width=1366 height=768>
    <circle cx=620 cy=384 r=13.80420429295509 stroke=""black"" stroke-width=""1"" fill=""black"" />
    <circle cx=580.5594163058425 cy=384 r=19.720291847078702 stroke=""none"" stroke-width=""1.5"" fill=""none"" />
    <circle cx=462.03999999999996 cy=502.5194163058426 r=19.720291847078702 stroke=""none"" stroke-width=""1.5"" fill=""none"" />
    <circle cx=343.5205836941574 cy=384 r=19.720291847078702 stroke=""none"" stroke-width=""1.5"" fill=""none"" />
    <circle cx=462.03999999999996 cy=265.4805836941574 r=19.720291847078702 stroke=""none"" stroke-width=""1.5"" fill=""none"" />
    <polygon points = ""462.03999999999996,384 467.587219495124,364.2797081529213 456.49278050487595,364.2797081529213"" stroke=""none"" stroke-width=""3"" fill = ""none"" />
    
    </svg>
    </div>
        ","","","","","","","","","","","","","","","","","","","","","","","","","","","","",""
"html-keyboard-response","21","491939","0.0-21.0","23.600000000093132","arrowup","","
    <div style="" display: block;  position: relative;"">
    <svg width=1366 height=768>
    
    <circle cx=620 cy=384 r=13.80420429295509 stroke=""black"" stroke-width=""1"" fill=""black"" />
    <circle cx=462.03999999999996 cy=384 r=19.720291847078702 stroke=""black"" stroke-width=""1.5"" fill=""none"" />
    <circle cx=580.5594163058425 cy=384 r=19.720291847078702 stroke=""black"" stroke-width=""1.5"" fill=""none"" />
    <circle cx=462.03999999999996 cy=502.5194163058426 r=19.720291847078702 stroke=""black"" stroke-width=""1.5"" fill=""none"" />
    <circle cx=343.5205836941574 cy=384 r=19.720291847078702 stroke=""black"" stroke-width=""1.5"" fill=""none"" />
    <circle cx=462.03999999999996 cy=265.4805836941574 r=19.720291847078702 stroke=""black"" stroke-width=""1.5"" fill=""none"" />
    <polygon points = ""462.03999999999996,384 467.587219495124,403.7202918470787 456.49278050487595,403.7202918470787"" stroke=""white"" stroke-width=""3"" fill = ""white"" />
    
    </svg>
    </div>
        ","","","","","","","","","","","","stimulus","","","","","","","","","","","","","","","","",""
"html-keyboard-response","22","492969","0.0-22.0","1018.3999999999069","arrowup","","
    <div style="" display: block;  position: relative;"">
    
    <svg width=1366 height=768>
    <circle cx=620 cy=384 r=13.80420429295509 stroke=""black"" stroke-width=""1"" fill=""black"" />
    <circle cx=580.5594163058425 cy=384 r=19.720291847078702 stroke=""none"" stroke-width=""1.5"" fill=""none"" />
    <circle cx=462.03999999999996 cy=502.5194163058426 r=19.720291847078702 stroke=""none"" stroke-width=""1.5"" fill=""none"" />
    <circle cx=343.5205836941574 cy=384 r=19.720291847078702 stroke=""none"" stroke-width=""1.5"" fill=""none"" />
    <circle cx=462.03999999999996 cy=265.4805836941574 r=19.720291847078702 stroke=""none"" stroke-width=""1.5"" fill=""none"" />
    <polygon points = ""462.03999999999996,384 467.587219495124,403.7202918470787 456.49278050487595,403.7202918470787"" stroke=""none"" stroke-width=""3"" fill = ""none"" />
    
    </svg>
    </div>
        ","","","","","","","","","","","","practice_get_response","false","FXNEkK1nmwMknSyJ","118.51941630584261","3","true","false","true","157.96","4","563.87","","","","","","",""
"html-keyboard-response","23","502547","0.0-23.0","9575","arrowdown","","<div> 
<h2 class=""bolded-blue"">Well done!</h2>
<p> Now that you have the hang of it, we&#39;ll start the study. This session has 25 trials and takes about 2 minute to complete. </p> 
<p>If you are ready for the real deal, please press the <b>down</b> arrow to continue.
</p>
</div>","","","","","","","","","","","","","","","","","","","","","","","","","","","","",""
"html-keyboard-response","24","517074","0.0-24.0","14519.100000000093","arrowdown","","<div id=""continue""> 
<p>Again, please keep the <b>full screen</b> mode for the best experience.</p>
<p>Please do not move around and keep your eye on the black dot. Click <b>up</b> or <b>down</b> key on your keyboard to indicate the opening of the center circle. Make your best guess!</p>
<p>Please press the <b>down</b> arrow key to start the session 1. </p>
</div>","","","","","","","","","","","","","","","","","","","","","","","","","","","","",""
"html-keyboard-response","25","517594","0.0-25.0","null","null","","
    <div style="" display: block;  position: relative;"">
    
    <svg width=1366 height=768>
    <circle cx=620 cy=384 r=13.80420429295509 stroke=""black"" stroke-width=""1"" fill=""black"" />
    <circle cx=580.5594163058425 cy=384 r=19.720291847078702 stroke=""none"" stroke-width=""1.5"" fill=""none"" />
    <circle cx=462.03999999999996 cy=502.5194163058426 r=19.720291847078702 stroke=""none"" stroke-width=""1.5"" fill=""none"" />
    <circle cx=343.5205836941574 cy=384 r=19.720291847078702 stroke=""none"" stroke-width=""1.5"" fill=""none"" />
    <circle cx=462.03999999999996 cy=265.4805836941574 r=19.720291847078702 stroke=""none"" stroke-width=""1.5"" fill=""none"" />
    <polygon points = ""462.03999999999996,384 467.587219495124,403.7202918470787 456.49278050487595,403.7202918470787"" stroke=""none"" stroke-width=""3"" fill = ""none"" />
    
    </svg>
    </div>
        ","","","","","","","","","","","","","","","","","","","","","","","","","","","","",""
"html-keyboard-response","26","517753","0.0-26.0","null","null","","
    <div style="" display: block;  position: relative;"">
    <svg width=1366 height=768>
    
    <circle cx=620 cy=384 r=13.80420429295509 stroke=""black"" stroke-width=""1"" fill=""black"" />
    <circle cx=462.03999999999996 cy=384 r=19.720291847078702 stroke=""black"" stroke-width=""1.5"" fill=""none"" />
    <circle cx=564.7139999999999 cy=384 r=19.720291847078702 stroke=""black"" stroke-width=""1.5"" fill=""none"" />
    <circle cx=462.03999999999996 cy=486.674 r=19.720291847078702 stroke=""black"" stroke-width=""1.5"" fill=""none"" />
    <circle cx=359.366 cy=384 r=19.720291847078702 stroke=""black"" stroke-width=""1.5"" fill=""none"" />
    <circle cx=462.03999999999996 cy=281.326 r=19.720291847078702 stroke=""black"" stroke-width=""1.5"" fill=""none"" />
    <polygon points = ""462.03999999999996,384 467.587219495124,364.2797081529213 456.49278050487595,364.2797081529213"" stroke=""white"" stroke-width=""3"" fill = ""white"" />
    
    </svg>
    </div>
        ","","","","","","","","","","","","stimulus","","","","","","","","","","","","","","","","",""
"html-keyboard-response","27","520350","0.0-27.0","2591.4000000003725","arrowdown","","
    <div style="" display: block;  position: relative;"">
    
    <svg width=1366 height=768>
    <circle cx=620 cy=384 r=13.80420429295509 stroke=""black"" stroke-width=""1"" fill=""black"" />
    <circle cx=564.7139999999999 cy=384 r=19.720291847078702 stroke=""none"" stroke-width=""1.5"" fill=""none"" />
    <circle cx=462.03999999999996 cy=486.674 r=19.720291847078702 stroke=""none"" stroke-width=""1.5"" fill=""none"" />
    <circle cx=359.366 cy=384 r=19.720291847078702 stroke=""none"" stroke-width=""1.5"" fill=""none"" />
    <circle cx=462.03999999999996 cy=281.326 r=19.720291847078702 stroke=""none"" stroke-width=""1.5"" fill=""none"" />
    <polygon points = ""462.03999999999996,384 467.587219495124,364.2797081529213 456.49278050487595,364.2797081529213"" stroke=""none"" stroke-width=""3"" fill = ""none"" />
    
    </svg>
    </div>
        ","","","","","","","","","","","","get_response","false","FXNEkK1nmwMknSyJ","","","true","true","true","157.96","4","563.87","102.674","2.6","1","0","","",""
"html-keyboard-response","28","520863","0.0-28.0","null","null","","
    <div style="" display: block;  position: relative;"">
    
    <svg width=1366 height=768>
    <circle cx=620 cy=384 r=13.80420429295509 stroke=""black"" stroke-width=""1"" fill=""black"" />
    <circle cx=564.7139999999999 cy=384 r=19.720291847078702 stroke=""none"" stroke-width=""1.5"" fill=""none"" />
    <circle cx=462.03999999999996 cy=486.674 r=19.720291847078702 stroke=""none"" stroke-width=""1.5"" fill=""none"" />
    <circle cx=359.366 cy=384 r=19.720291847078702 stroke=""none"" stroke-width=""1.5"" fill=""none"" />
    <circle cx=462.03999999999996 cy=281.326 r=19.720291847078702 stroke=""none"" stroke-width=""1.5"" fill=""none"" />
    <polygon points = ""462.03999999999996,384 467.587219495124,364.2797081529213 456.49278050487595,364.2797081529213"" stroke=""none"" stroke-width=""3"" fill = ""none"" />
    
    </svg>
    </div>
        ","","","","","","","","","","","","","","","","","","","","","","","","","","","","",""
"html-keyboard-response","29","520990","0.0-29.0","123.10000000009313","arrowup","","
    <div style="" display: block;  position: relative;"">
    <svg width=1366 height=768>
    
    <circle cx=620 cy=384 r=13.80420429295509 stroke=""black"" stroke-width=""1"" fill=""black"" />
    <circle cx=777.96 cy=384 r=19.720291847078702 stroke=""black"" stroke-width=""1.5"" fill=""none"" />
    <circle cx=896.4794163058426 cy=384 r=19.720291847078702 stroke=""black"" stroke-width=""1.5"" fill=""none"" />
    <circle cx=777.96 cy=502.5194163058426 r=19.720291847078702 stroke=""black"" stroke-width=""1.5"" fill=""none"" />
    <circle cx=659.4405836941575 cy=384 r=19.720291847078702 stroke=""black"" stroke-width=""1.5"" fill=""none"" />
    <circle cx=777.96 cy=265.4805836941574 r=19.720291847078702 stroke=""black"" stroke-width=""1.5"" fill=""none"" />
    <polygon points = ""777.96,384 783.507219495124,403.7202918470787 772.4127805048761,403.7202918470787"" stroke=""white"" stroke-width=""3"" fill = ""white"" />
    
    </svg>
    </div>
        ","","","","","","","","","","","","stimulus","","","","","","","","","","","","","","","","",""
"html-keyboard-response","30","523720","0.0-30.0","2725.2000000001863","arrowdown","","
    <div style="" display: block;  position: relative;"">
    
    <svg width=1366 height=768>
    <circle cx=620 cy=384 r=13.80420429295509 stroke=""black"" stroke-width=""1"" fill=""black"" />
    <circle cx=896.4794163058426 cy=384 r=19.720291847078702 stroke=""none"" stroke-width=""1.5"" fill=""none"" />
    <circle cx=777.96 cy=502.5194163058426 r=19.720291847078702 stroke=""none"" stroke-width=""1.5"" fill=""none"" />
    <circle cx=659.4405836941575 cy=384 r=19.720291847078702 stroke=""none"" stroke-width=""1.5"" fill=""none"" />
    <circle cx=777.96 cy=265.4805836941574 r=19.720291847078702 stroke=""none"" stroke-width=""1.5"" fill=""none"" />
    <polygon points = ""777.96,384 783.507219495124,403.7202918470787 772.4127805048761,403.7202918470787"" stroke=""none"" stroke-width=""3"" fill = ""none"" />
    
    </svg>
    </div>
        ","","","","","","","","","","","","get_response","true","FXNEkK1nmwMknSyJ","","","false","false","true","157.96","4","563.87","118.51941630584261","3","1","0","","",""
"html-keyboard-response","31","524167","0.0-31.0","441.79999999981374","arrowup","","
    <div style="" display: block;  position: relative;"">
    
    <svg width=1366 height=768>
    <circle cx=620 cy=384 r=13.80420429295509 stroke=""black"" stroke-width=""1"" fill=""black"" />
    <circle cx=896.4794163058426 cy=384 r=19.720291847078702 stroke=""none"" stroke-width=""1.5"" fill=""none"" />
    <circle cx=777.96 cy=502.5194163058426 r=19.720291847078702 stroke=""none"" stroke-width=""1.5"" fill=""none"" />
    <circle cx=659.4405836941575 cy=384 r=19.720291847078702 stroke=""none"" stroke-width=""1.5"" fill=""none"" />
    <circle cx=777.96 cy=265.4805836941574 r=19.720291847078702 stroke=""none"" stroke-width=""1.5"" fill=""none"" />
    <polygon points = ""777.96,384 783.507219495124,403.7202918470787 772.4127805048761,403.7202918470787"" stroke=""none"" stroke-width=""3"" fill = ""none"" />
    
    </svg>
    </div>
        ","","","","","","","","","","","","","","","","","","","","","","","","","","","","",""
"html-keyboard-response","32","524323","0.0-32.0","null","null","","
    <div style="" display: block;  position: relative;"">
    <svg width=1366 height=768>
    
    <circle cx=620 cy=384 r=13.80420429295509 stroke=""black"" stroke-width=""1"" fill=""black"" />
    <circle cx=462.03999999999996 cy=384 r=19.720291847078702 stroke=""black"" stroke-width=""1.5"" fill=""none"" />
    <circle cx=580.5594163058425 cy=384 r=19.720291847078702 stroke=""black"" stroke-width=""1.5"" fill=""none"" />
    <circle cx=462.03999999999996 cy=502.5194163058426 r=19.720291847078702 stroke=""black"" stroke-width=""1.5"" fill=""none"" />
    <circle cx=343.5205836941574 cy=384 r=19.720291847078702 stroke=""black"" stroke-width=""1.5"" fill=""none"" />
    <circle cx=462.03999999999996 cy=265.4805836941574 r=19.720291847078702 stroke=""black"" stroke-width=""1.5"" fill=""none"" />
    <polygon points = ""462.03999999999996,384 467.587219495124,364.2797081529213 456.49278050487595,364.2797081529213"" stroke=""white"" stroke-width=""3"" fill = ""white"" />
    
    </svg>
    </div>
        ","","","","","","","","","","","","stimulus","","","","","","","","","","","","","","","","",""
"html-keyboard-response","33","530807","0.0-33.0","6479.899999999907","arrowdown","","
    <div style="" display: block;  position: relative;"">
    
    <svg width=1366 height=768>
    <circle cx=620 cy=384 r=13.80420429295509 stroke=""black"" stroke-width=""1"" fill=""black"" />
    <circle cx=580.5594163058425 cy=384 r=19.720291847078702 stroke=""none"" stroke-width=""1.5"" fill=""none"" />
    <circle cx=462.03999999999996 cy=502.5194163058426 r=19.720291847078702 stroke=""none"" stroke-width=""1.5"" fill=""none"" />
    <circle cx=343.5205836941574 cy=384 r=19.720291847078702 stroke=""none"" stroke-width=""1.5"" fill=""none"" />
    <circle cx=462.03999999999996 cy=265.4805836941574 r=19.720291847078702 stroke=""none"" stroke-width=""1.5"" fill=""none"" />
    <polygon points = ""462.03999999999996,384 467.587219495124,364.2797081529213 456.49278050487595,364.2797081529213"" stroke=""none"" stroke-width=""3"" fill = ""none"" />
    
    </svg>
    </div>
        ","","","","","","","","","","","","get_response","false","FXNEkK1nmwMknSyJ","","","true","true","true","157.96","4","563.87","118.51941630584261","3","1","0","","",""
"html-keyboard-response","34","531300","0.0-34.0","485.59999999962747","arrowup","","
    <div style="" display: block;  position: relative;"">
    
    <svg width=1366 height=768>
    <circle cx=620 cy=384 r=13.80420429295509 stroke=""black"" stroke-width=""1"" fill=""black"" />
    <circle cx=580.5594163058425 cy=384 r=19.720291847078702 stroke=""none"" stroke-width=""1.5"" fill=""none"" />
    <circle cx=462.03999999999996 cy=502.5194163058426 r=19.720291847078702 stroke=""none"" stroke-width=""1.5"" fill=""none"" />
    <circle cx=343.5205836941574 cy=384 r=19.720291847078702 stroke=""none"" stroke-width=""1.5"" fill=""none"" />
    <circle cx=462.03999999999996 cy=265.4805836941574 r=19.720291847078702 stroke=""none"" stroke-width=""1.5"" fill=""none"" />
    <polygon points = ""462.03999999999996,384 467.587219495124,364.2797081529213 456.49278050487595,364.2797081529213"" stroke=""none"" stroke-width=""3"" fill = ""none"" />
    
    </svg>
    </div>
        ","","","","","","","","","","","","","","","","","","","","","","","","","","","","",""
"html-keyboard-response","35","531468","0.0-35.0","null","null","","
    <div style="" display: block;  position: relative;"">
    <svg width=1366 height=768>
    
    <circle cx=620 cy=384 r=13.80420429295509 stroke=""black"" stroke-width=""1"" fill=""black"" />
    <circle cx=462.03999999999996 cy=384 r=19.720291847078702 stroke=""black"" stroke-width=""1.5"" fill=""none"" />
    <circle cx=580.5594163058425 cy=384 r=19.720291847078702 stroke=""black"" stroke-width=""1.5"" fill=""none"" />
    <circle cx=462.03999999999996 cy=502.5194163058426 r=19.720291847078702 stroke=""black"" stroke-width=""1.5"" fill=""none"" />
    <circle cx=343.5205836941574 cy=384 r=19.720291847078702 stroke=""black"" stroke-width=""1.5"" fill=""none"" />
    <circle cx=462.03999999999996 cy=265.4805836941574 r=19.720291847078702 stroke=""black"" stroke-width=""1.5"" fill=""none"" />
    <polygon points = ""462.03999999999996,384 467.587219495124,364.2797081529213 456.49278050487595,364.2797081529213"" stroke=""white"" stroke-width=""3"" fill = ""white"" />
    
    </svg>
    </div>
        ","","","","","","","","","","","","stimulus","","","","","","","","","","","","","","","","",""
"html-keyboard-response","36","535396","0.0-36.0","3917.899999999907","arrowdown","","
    <div style="" display: block;  position: relative;"">
    
    <svg width=1366 height=768>
    <circle cx=620 cy=384 r=13.80420429295509 stroke=""black"" stroke-width=""1"" fill=""black"" />
    <circle cx=580.5594163058425 cy=384 r=19.720291847078702 stroke=""none"" stroke-width=""1.5"" fill=""none"" />
    <circle cx=462.03999999999996 cy=502.5194163058426 r=19.720291847078702 stroke=""none"" stroke-width=""1.5"" fill=""none"" />
    <circle cx=343.5205836941574 cy=384 r=19.720291847078702 stroke=""none"" stroke-width=""1.5"" fill=""none"" />
    <circle cx=462.03999999999996 cy=265.4805836941574 r=19.720291847078702 stroke=""none"" stroke-width=""1.5"" fill=""none"" />
    <polygon points = ""462.03999999999996,384 467.587219495124,364.2797081529213 456.49278050487595,364.2797081529213"" stroke=""none"" stroke-width=""3"" fill = ""none"" />
    
    </svg>
    </div>
        ","","","","","","","","","","","","get_response","false","FXNEkK1nmwMknSyJ","","","true","true","true","157.96","4","563.87","118.51941630584261","3","1","0","","",""
"html-keyboard-response","37","535914","0.0-37.0","null","null","","
    <div style="" display: block;  position: relative;"">
    
    <svg width=1366 height=768>
    <circle cx=620 cy=384 r=13.80420429295509 stroke=""black"" stroke-width=""1"" fill=""black"" />
    <circle cx=580.5594163058425 cy=384 r=19.720291847078702 stroke=""none"" stroke-width=""1.5"" fill=""none"" />
    <circle cx=462.03999999999996 cy=502.5194163058426 r=19.720291847078702 stroke=""none"" stroke-width=""1.5"" fill=""none"" />
    <circle cx=343.5205836941574 cy=384 r=19.720291847078702 stroke=""none"" stroke-width=""1.5"" fill=""none"" />
    <circle cx=462.03999999999996 cy=265.4805836941574 r=19.720291847078702 stroke=""none"" stroke-width=""1.5"" fill=""none"" />
    <polygon points = ""462.03999999999996,384 467.587219495124,364.2797081529213 456.49278050487595,364.2797081529213"" stroke=""none"" stroke-width=""3"" fill = ""none"" />
    
    </svg>
    </div>
        ","","","","","","","","","","","","","","","","","","","","","","","","","","","","",""
"html-keyboard-response","38","536010","0.0-38.0","91.89999999990687","arrowright","","
    <div style="" display: block;  position: relative;"">
    <svg width=1366 height=768>
    
    <circle cx=620 cy=384 r=13.80420429295509 stroke=""black"" stroke-width=""1"" fill=""black"" />
    <circle cx=462.03999999999996 cy=384 r=19.720291847078702 stroke=""black"" stroke-width=""1.5"" fill=""none"" />
    <circle cx=580.5594163058425 cy=384 r=19.720291847078702 stroke=""black"" stroke-width=""1.5"" fill=""none"" />
    <circle cx=462.03999999999996 cy=502.5194163058426 r=19.720291847078702 stroke=""black"" stroke-width=""1.5"" fill=""none"" />
    <circle cx=343.5205836941574 cy=384 r=19.720291847078702 stroke=""black"" stroke-width=""1.5"" fill=""none"" />
    <circle cx=462.03999999999996 cy=265.4805836941574 r=19.720291847078702 stroke=""black"" stroke-width=""1.5"" fill=""none"" />
    <polygon points = ""462.03999999999996,384 467.587219495124,364.2797081529213 456.49278050487595,364.2797081529213"" stroke=""white"" stroke-width=""3"" fill = ""white"" />
    
    </svg>
    </div>
        ","","","","","","","","","","","","stimulus","","","","","","","","","","","","","","","","",""
"html-keyboard-response","39","537085","0.0-39.0","1070.2999999998137","arrowup","","
    <div style="" display: block;  position: relative;"">
    
    <svg width=1366 height=768>
    <circle cx=620 cy=384 r=13.80420429295509 stroke=""black"" stroke-width=""1"" fill=""black"" />
    <circle cx=580.5594163058425 cy=384 r=19.720291847078702 stroke=""none"" stroke-width=""1.5"" fill=""none"" />
    <circle cx=462.03999999999996 cy=502.5194163058426 r=19.720291847078702 stroke=""none"" stroke-width=""1.5"" fill=""none"" />
    <circle cx=343.5205836941574 cy=384 r=19.720291847078702 stroke=""none"" stroke-width=""1.5"" fill=""none"" />
    <circle cx=462.03999999999996 cy=265.4805836941574 r=19.720291847078702 stroke=""none"" stroke-width=""1.5"" fill=""none"" />
    <polygon points = ""462.03999999999996,384 467.587219495124,364.2797081529213 456.49278050487595,364.2797081529213"" stroke=""none"" stroke-width=""3"" fill = ""none"" />
    
    </svg>
    </div>
        ","","","","","","","","","","","","get_response","true","FXNEkK1nmwMknSyJ","","","true","true","true","157.96","4","563.87","118.51941630584261","3","1","0","","",""
"html-keyboard-response","40","537597","0.0-40.0","null","null","","
    <div style="" display: block;  position: relative;"">
    
    <svg width=1366 height=768>
    <circle cx=620 cy=384 r=13.80420429295509 stroke=""black"" stroke-width=""1"" fill=""black"" />
    <circle cx=580.5594163058425 cy=384 r=19.720291847078702 stroke=""none"" stroke-width=""1.5"" fill=""none"" />
    <circle cx=462.03999999999996 cy=502.5194163058426 r=19.720291847078702 stroke=""none"" stroke-width=""1.5"" fill=""none"" />
    <circle cx=343.5205836941574 cy=384 r=19.720291847078702 stroke=""none"" stroke-width=""1.5"" fill=""none"" />
    <circle cx=462.03999999999996 cy=265.4805836941574 r=19.720291847078702 stroke=""none"" stroke-width=""1.5"" fill=""none"" />
    <polygon points = ""462.03999999999996,384 467.587219495124,364.2797081529213 456.49278050487595,364.2797081529213"" stroke=""none"" stroke-width=""3"" fill = ""none"" />
    
    </svg>
    </div>
        ","","","","","","","","","","","","","","","","","","","","","","","","","","","","",""
"html-keyboard-response","41","537698","0.0-41.0","96.10000000009313","arrowdown","","
    <div style="" display: block;  position: relative;"">
    <svg width=1366 height=768>
    
    <circle cx=620 cy=384 r=13.80420429295509 stroke=""black"" stroke-width=""1"" fill=""black"" />
    <circle cx=462.03999999999996 cy=384 r=19.720291847078702 stroke=""black"" stroke-width=""1.5"" fill=""none"" />
    <circle cx=580.5594163058425 cy=384 r=19.720291847078702 stroke=""black"" stroke-width=""1.5"" fill=""none"" />
    <circle cx=462.03999999999996 cy=502.5194163058426 r=19.720291847078702 stroke=""black"" stroke-width=""1.5"" fill=""none"" />
    <circle cx=343.5205836941574 cy=384 r=19.720291847078702 stroke=""black"" stroke-width=""1.5"" fill=""none"" />
    <circle cx=462.03999999999996 cy=265.4805836941574 r=19.720291847078702 stroke=""black"" stroke-width=""1.5"" fill=""none"" />
    <polygon points = ""462.03999999999996,384 467.587219495124,364.2797081529213 456.49278050487595,364.2797081529213"" stroke=""white"" stroke-width=""3"" fill = ""white"" />
    
    </svg>
    </div>
        ","","","","","","","","","","","","stimulus","","","","","","","","","","","","","","","","",""
"html-keyboard-response","42","539106","0.0-42.0","1403.0999999996275","arrowdown","","
    <div style="" display: block;  position: relative;"">
    
    <svg width=1366 height=768>
    <circle cx=620 cy=384 r=13.80420429295509 stroke=""black"" stroke-width=""1"" fill=""black"" />
    <circle cx=580.5594163058425 cy=384 r=19.720291847078702 stroke=""none"" stroke-width=""1.5"" fill=""none"" />
    <circle cx=462.03999999999996 cy=502.5194163058426 r=19.720291847078702 stroke=""none"" stroke-width=""1.5"" fill=""none"" />
    <circle cx=343.5205836941574 cy=384 r=19.720291847078702 stroke=""none"" stroke-width=""1.5"" fill=""none"" />
    <circle cx=462.03999999999996 cy=265.4805836941574 r=19.720291847078702 stroke=""none"" stroke-width=""1.5"" fill=""none"" />
    <polygon points = ""462.03999999999996,384 467.587219495124,364.2797081529213 456.49278050487595,364.2797081529213"" stroke=""none"" stroke-width=""3"" fill = ""none"" />
    
    </svg>
    </div>
        ","","","","","","","","","","","","get_response","false","FXNEkK1nmwMknSyJ","","","true","true","true","157.96","4","563.87","118.51941630584261","3","1","0","","",""
"html-keyboard-response","43","539572","0.0-43.0","461.90000000037253","arrowright","","
    <div style="" display: block;  position: relative;"">
    
    <svg width=1366 height=768>
    <circle cx=620 cy=384 r=13.80420429295509 stroke=""black"" stroke-width=""1"" fill=""black"" />
    <circle cx=580.5594163058425 cy=384 r=19.720291847078702 stroke=""none"" stroke-width=""1.5"" fill=""none"" />
    <circle cx=462.03999999999996 cy=502.5194163058426 r=19.720291847078702 stroke=""none"" stroke-width=""1.5"" fill=""none"" />
    <circle cx=343.5205836941574 cy=384 r=19.720291847078702 stroke=""none"" stroke-width=""1.5"" fill=""none"" />
    <circle cx=462.03999999999996 cy=265.4805836941574 r=19.720291847078702 stroke=""none"" stroke-width=""1.5"" fill=""none"" />
    <polygon points = ""462.03999999999996,384 467.587219495124,364.2797081529213 456.49278050487595,364.2797081529213"" stroke=""none"" stroke-width=""3"" fill = ""none"" />
    
    </svg>
    </div>
        ","","","","","","","","","","","","","","","","","","","","","","","","","","","","",""
"html-keyboard-response","44","539741","0.0-44.0","null","null","","
    <div style="" display: block;  position: relative;"">
    <svg width=1366 height=768>
    
    <circle cx=620 cy=384 r=13.80420429295509 stroke=""black"" stroke-width=""1"" fill=""black"" />
    <circle cx=777.96 cy=384 r=19.720291847078702 stroke=""black"" stroke-width=""1.5"" fill=""none"" />
    <circle cx=896.4794163058426 cy=384 r=19.720291847078702 stroke=""black"" stroke-width=""1.5"" fill=""none"" />
    <circle cx=777.96 cy=502.5194163058426 r=19.720291847078702 stroke=""black"" stroke-width=""1.5"" fill=""none"" />
    <circle cx=659.4405836941575 cy=384 r=19.720291847078702 stroke=""black"" stroke-width=""1.5"" fill=""none"" />
    <circle cx=777.96 cy=265.4805836941574 r=19.720291847078702 stroke=""black"" stroke-width=""1.5"" fill=""none"" />
    <polygon points = ""777.96,384 783.507219495124,364.2797081529213 772.4127805048761,364.2797081529213"" stroke=""white"" stroke-width=""3"" fill = ""white"" />
    
    </svg>
    </div>
        ","","","","","","","","","","","","stimulus","","","","","","","","","","","","","","","","",""
"html-keyboard-response","45","541575","0.0-45.0","1827.0999999996275","arrowup","","
    <div style="" display: block;  position: relative;"">
    
    <svg width=1366 height=768>
    <circle cx=620 cy=384 r=13.80420429295509 stroke=""black"" stroke-width=""1"" fill=""black"" />
    <circle cx=896.4794163058426 cy=384 r=19.720291847078702 stroke=""none"" stroke-width=""1.5"" fill=""none"" />
    <circle cx=777.96 cy=502.5194163058426 r=19.720291847078702 stroke=""none"" stroke-width=""1.5"" fill=""none"" />
    <circle cx=659.4405836941575 cy=384 r=19.720291847078702 stroke=""none"" stroke-width=""1.5"" fill=""none"" />
    <circle cx=777.96 cy=265.4805836941574 r=19.720291847078702 stroke=""none"" stroke-width=""1.5"" fill=""none"" />
    <polygon points = ""777.96,384 783.507219495124,364.2797081529213 772.4127805048761,364.2797081529213"" stroke=""none"" stroke-width=""3"" fill = ""none"" />
    
    </svg>
    </div>
        ","","","","","","","","","","","","get_response","true","FXNEkK1nmwMknSyJ","","","false","true","true","157.96","4","563.87","118.51941630584261","3","1","0","","",""
"html-keyboard-response","46","542094","0.0-46.0","null","null","","
    <div style="" display: block;  position: relative;"">
    
    <svg width=1366 height=768>
    <circle cx=620 cy=384 r=13.80420429295509 stroke=""black"" stroke-width=""1"" fill=""black"" />
    <circle cx=896.4794163058426 cy=384 r=19.720291847078702 stroke=""none"" stroke-width=""1.5"" fill=""none"" />
    <circle cx=777.96 cy=502.5194163058426 r=19.720291847078702 stroke=""none"" stroke-width=""1.5"" fill=""none"" />
    <circle cx=659.4405836941575 cy=384 r=19.720291847078702 stroke=""none"" stroke-width=""1.5"" fill=""none"" />
    <circle cx=777.96 cy=265.4805836941574 r=19.720291847078702 stroke=""none"" stroke-width=""1.5"" fill=""none"" />
    <polygon points = ""777.96,384 783.507219495124,364.2797081529213 772.4127805048761,364.2797081529213"" stroke=""none"" stroke-width=""3"" fill = ""none"" />
    
    </svg>
    </div>
        ","","","","","","","","","","","","","","","","","","","","","","","","","","","","",""
"html-keyboard-response","47","542252","0.0-47.0","null","null","","
    <div style="" display: block;  position: relative;"">
    <svg width=1366 height=768>
    
    <circle cx=620 cy=384 r=13.80420429295509 stroke=""black"" stroke-width=""1"" fill=""black"" />
    <circle cx=777.96 cy=384 r=19.720291847078702 stroke=""black"" stroke-width=""1.5"" fill=""none"" />
    <circle cx=896.4794163058426 cy=384 r=19.720291847078702 stroke=""black"" stroke-width=""1.5"" fill=""none"" />
    <circle cx=777.96 cy=502.5194163058426 r=19.720291847078702 stroke=""black"" stroke-width=""1.5"" fill=""none"" />
    <circle cx=659.4405836941575 cy=384 r=19.720291847078702 stroke=""black"" stroke-width=""1.5"" fill=""none"" />
    <circle cx=777.96 cy=265.4805836941574 r=19.720291847078702 stroke=""black"" stroke-width=""1.5"" fill=""none"" />
    <polygon points = ""777.96,384 783.507219495124,403.7202918470787 772.4127805048761,403.7202918470787"" stroke=""white"" stroke-width=""3"" fill = ""white"" />
    
    </svg>
    </div>
        ","","","","","","","","","","","","stimulus","","","","","","","","","","","","","","","","",""
"html-keyboard-response","48","546233","0.0-48.0","3978","arrowdown","","
    <div style="" display: block;  position: relative;"">
    
    <svg width=1366 height=768>
    <circle cx=620 cy=384 r=13.80420429295509 stroke=""black"" stroke-width=""1"" fill=""black"" />
    <circle cx=896.4794163058426 cy=384 r=19.720291847078702 stroke=""none"" stroke-width=""1.5"" fill=""none"" />
    <circle cx=777.96 cy=502.5194163058426 r=19.720291847078702 stroke=""none"" stroke-width=""1.5"" fill=""none"" />
    <circle cx=659.4405836941575 cy=384 r=19.720291847078702 stroke=""none"" stroke-width=""1.5"" fill=""none"" />
    <circle cx=777.96 cy=265.4805836941574 r=19.720291847078702 stroke=""none"" stroke-width=""1.5"" fill=""none"" />
    <polygon points = ""777.96,384 783.507219495124,403.7202918470787 772.4127805048761,403.7202918470787"" stroke=""none"" stroke-width=""3"" fill = ""none"" />
    
    </svg>
    </div>
        ","","","","","","","","","","","","get_response","true","FXNEkK1nmwMknSyJ","","","false","false","true","157.96","4","563.87","118.51941630584261","3","1","0","","",""
"html-keyboard-response","49","546732","0.0-49.0","492.70000000018626","arrowup","","
    <div style="" display: block;  position: relative;"">
    
    <svg width=1366 height=768>
    <circle cx=620 cy=384 r=13.80420429295509 stroke=""black"" stroke-width=""1"" fill=""black"" />
    <circle cx=896.4794163058426 cy=384 r=19.720291847078702 stroke=""none"" stroke-width=""1.5"" fill=""none"" />
    <circle cx=777.96 cy=502.5194163058426 r=19.720291847078702 stroke=""none"" stroke-width=""1.5"" fill=""none"" />
    <circle cx=659.4405836941575 cy=384 r=19.720291847078702 stroke=""none"" stroke-width=""1.5"" fill=""none"" />
    <circle cx=777.96 cy=265.4805836941574 r=19.720291847078702 stroke=""none"" stroke-width=""1.5"" fill=""none"" />
    <polygon points = ""777.96,384 783.507219495124,403.7202918470787 772.4127805048761,403.7202918470787"" stroke=""none"" stroke-width=""3"" fill = ""none"" />
    
    </svg>
    </div>
        ","","","","","","","","","","","","","","","","","","","","","","","","","","","","",""
"html-keyboard-response","50","546891","0.0-50.0","null","null","","
    <div style="" display: block;  position: relative;"">
    <svg width=1366 height=768>
    
    <circle cx=620 cy=384 r=13.80420429295509 stroke=""black"" stroke-width=""1"" fill=""black"" />
    <circle cx=462.03999999999996 cy=384 r=19.720291847078702 stroke=""black"" stroke-width=""1.5"" fill=""none"" />
    <circle cx=580.5594163058425 cy=384 r=19.720291847078702 stroke=""black"" stroke-width=""1.5"" fill=""none"" />
    <circle cx=462.03999999999996 cy=502.5194163058426 r=19.720291847078702 stroke=""black"" stroke-width=""1.5"" fill=""none"" />
    <circle cx=343.5205836941574 cy=384 r=19.720291847078702 stroke=""black"" stroke-width=""1.5"" fill=""none"" />
    <circle cx=462.03999999999996 cy=265.4805836941574 r=19.720291847078702 stroke=""black"" stroke-width=""1.5"" fill=""none"" />
    <polygon points = ""462.03999999999996,384 467.587219495124,364.2797081529213 456.49278050487595,364.2797081529213"" stroke=""white"" stroke-width=""3"" fill = ""white"" />
    
    </svg>
    </div>
        ","","","","","","","","","","","","stimulus","","","","","","","","","","","","","","","","",""
"html-keyboard-response","51","550855","0.0-51.0","3959.2000000001863","arrowup","","
    <div style="" display: block;  position: relative;"">
    
    <svg width=1366 height=768>
    <circle cx=620 cy=384 r=13.80420429295509 stroke=""black"" stroke-width=""1"" fill=""black"" />
    <circle cx=580.5594163058425 cy=384 r=19.720291847078702 stroke=""none"" stroke-width=""1.5"" fill=""none"" />
    <circle cx=462.03999999999996 cy=502.5194163058426 r=19.720291847078702 stroke=""none"" stroke-width=""1.5"" fill=""none"" />
    <circle cx=343.5205836941574 cy=384 r=19.720291847078702 stroke=""none"" stroke-width=""1.5"" fill=""none"" />
    <circle cx=462.03999999999996 cy=265.4805836941574 r=19.720291847078702 stroke=""none"" stroke-width=""1.5"" fill=""none"" />
    <polygon points = ""462.03999999999996,384 467.587219495124,364.2797081529213 456.49278050487595,364.2797081529213"" stroke=""none"" stroke-width=""3"" fill = ""none"" />
    
    </svg>
    </div>
        ","","","","","","","","","","","","get_response","true","FXNEkK1nmwMknSyJ","","","true","true","true","157.96","4","563.87","118.51941630584261","3","1","0","","",""
"html-keyboard-response","52","551161","0.0-52.0","293.89999999990687","arrowup","","
    <div style="" display: block;  position: relative;"">
    
    <svg width=1366 height=768>
    <circle cx=620 cy=384 r=13.80420429295509 stroke=""black"" stroke-width=""1"" fill=""black"" />
    <circle cx=580.5594163058425 cy=384 r=19.720291847078702 stroke=""none"" stroke-width=""1.5"" fill=""none"" />
    <circle cx=462.03999999999996 cy=502.5194163058426 r=19.720291847078702 stroke=""none"" stroke-width=""1.5"" fill=""none"" />
    <circle cx=343.5205836941574 cy=384 r=19.720291847078702 stroke=""none"" stroke-width=""1.5"" fill=""none"" />
    <circle cx=462.03999999999996 cy=265.4805836941574 r=19.720291847078702 stroke=""none"" stroke-width=""1.5"" fill=""none"" />
    <polygon points = ""462.03999999999996,384 467.587219495124,364.2797081529213 456.49278050487595,364.2797081529213"" stroke=""none"" stroke-width=""3"" fill = ""none"" />
    
    </svg>
    </div>
        ","","","","","","","","","","","","","","","","","","","","","","","","","","","","",""
"html-keyboard-response","53","551324","0.0-53.0","null","null","","
    <div style="" display: block;  position: relative;"">
    <svg width=1366 height=768>
    
    <circle cx=620 cy=384 r=13.80420429295509 stroke=""black"" stroke-width=""1"" fill=""black"" />
    <circle cx=462.03999999999996 cy=384 r=19.720291847078702 stroke=""black"" stroke-width=""1.5"" fill=""none"" />
    <circle cx=569.7849239144023 cy=384 r=19.720291847078702 stroke=""black"" stroke-width=""1.5"" fill=""none"" />
    <circle cx=462.03999999999996 cy=491.74492391440236 r=19.720291847078702 stroke=""black"" stroke-width=""1.5"" fill=""none"" />
    <circle cx=354.2950760855976 cy=384 r=19.720291847078702 stroke=""black"" stroke-width=""1.5"" fill=""none"" />
    <circle cx=462.03999999999996 cy=276.25507608559764 r=19.720291847078702 stroke=""black"" stroke-width=""1.5"" fill=""none"" />
    <polygon points = ""462.03999999999996,384 467.587219495124,403.7202918470787 456.49278050487595,403.7202918470787"" stroke=""white"" stroke-width=""3"" fill = ""white"" />
    
    </svg>
    </div>
        ","","","","","","","","","","","","stimulus","","","","","","","","","","","","","","","","",""
"html-keyboard-response","54","556920","0.0-54.0","5592","arrowdown","","
    <div style="" display: block;  position: relative;"">
    
    <svg width=1366 height=768>
    <circle cx=620 cy=384 r=13.80420429295509 stroke=""black"" stroke-width=""1"" fill=""black"" />
    <circle cx=569.7849239144023 cy=384 r=19.720291847078702 stroke=""none"" stroke-width=""1.5"" fill=""none"" />
    <circle cx=462.03999999999996 cy=491.74492391440236 r=19.720291847078702 stroke=""none"" stroke-width=""1.5"" fill=""none"" />
    <circle cx=354.2950760855976 cy=384 r=19.720291847078702 stroke=""none"" stroke-width=""1.5"" fill=""none"" />
    <circle cx=462.03999999999996 cy=276.25507608559764 r=19.720291847078702 stroke=""none"" stroke-width=""1.5"" fill=""none"" />
    <polygon points = ""462.03999999999996,384 467.587219495124,403.7202918470787 456.49278050487595,403.7202918470787"" stroke=""none"" stroke-width=""3"" fill = ""none"" />
    
    </svg>
    </div>
        ","","","","","","","","","","","","get_response","true","FXNEkK1nmwMknSyJ","","","true","false","true","157.96","4","563.87","107.74492391440236","2.73","1","0","","",""
"html-keyboard-response","55","557326","0.0-55.0","399.90000000037253","arrowup","","
    <div style="" display: block;  position: relative;"">
    
    <svg width=1366 height=768>
    <circle cx=620 cy=384 r=13.80420429295509 stroke=""black"" stroke-width=""1"" fill=""black"" />
    <circle cx=569.7849239144023 cy=384 r=19.720291847078702 stroke=""none"" stroke-width=""1.5"" fill=""none"" />
    <circle cx=462.03999999999996 cy=491.74492391440236 r=19.720291847078702 stroke=""none"" stroke-width=""1.5"" fill=""none"" />
    <circle cx=354.2950760855976 cy=384 r=19.720291847078702 stroke=""none"" stroke-width=""1.5"" fill=""none"" />
    <circle cx=462.03999999999996 cy=276.25507608559764 r=19.720291847078702 stroke=""none"" stroke-width=""1.5"" fill=""none"" />
    <polygon points = ""462.03999999999996,384 467.587219495124,403.7202918470787 456.49278050487595,403.7202918470787"" stroke=""none"" stroke-width=""3"" fill = ""none"" />
    
    </svg>
    </div>
        ","","","","","","","","","","","","","","","","","","","","","","","","","","","","",""
"html-keyboard-response","56","557521","0.0-56.0","null","null","","
    <div style="" display: block;  position: relative;"">
    <svg width=1366 height=768>
    
    <circle cx=620 cy=384 r=13.80420429295509 stroke=""black"" stroke-width=""1"" fill=""black"" />
    <circle cx=777.96 cy=384 r=19.720291847078702 stroke=""black"" stroke-width=""1.5"" fill=""none"" />
    <circle cx=875.9099308312749 cy=384 r=19.720291847078702 stroke=""black"" stroke-width=""1.5"" fill=""none"" />
    <circle cx=777.96 cy=481.94993083127486 r=19.720291847078702 stroke=""black"" stroke-width=""1.5"" fill=""none"" />
    <circle cx=680.0100691687252 cy=384 r=19.720291847078702 stroke=""black"" stroke-width=""1.5"" fill=""none"" />
    <circle cx=777.96 cy=286.05006916872514 r=19.720291847078702 stroke=""black"" stroke-width=""1.5"" fill=""none"" />
    <polygon points = ""777.96,384 783.507219495124,364.2797081529213 772.4127805048761,364.2797081529213"" stroke=""white"" stroke-width=""3"" fill = ""white"" />
    
    </svg>
    </div>
        ","","","","","","","","","","","","stimulus","","","","","","","","","","","","","","","","",""
"html-keyboard-response","57","569885","0.0-57.0","12349.899999999907","arrowdown","","
    <div style="" display: block;  position: relative;"">
    
    <svg width=1366 height=768>
    <circle cx=620 cy=384 r=13.80420429295509 stroke=""black"" stroke-width=""1"" fill=""black"" />
    <circle cx=875.9099308312749 cy=384 r=19.720291847078702 stroke=""none"" stroke-width=""1.5"" fill=""none"" />
    <circle cx=777.96 cy=481.94993083127486 r=19.720291847078702 stroke=""none"" stroke-width=""1.5"" fill=""none"" />
    <circle cx=680.0100691687252 cy=384 r=19.720291847078702 stroke=""none"" stroke-width=""1.5"" fill=""none"" />
    <circle cx=777.96 cy=286.05006916872514 r=19.720291847078702 stroke=""none"" stroke-width=""1.5"" fill=""none"" />
    <polygon points = ""777.96,384 783.507219495124,364.2797081529213 772.4127805048761,364.2797081529213"" stroke=""none"" stroke-width=""3"" fill = ""none"" />
    
    </svg>
    </div>
        ","","","","","","","","","","","","get_response","false","FXNEkK1nmwMknSyJ","","","false","true","true","157.96","4","563.87","97.94993083127487","2.48","1","0","","",""
"html-keyboard-response","58","570395","0.0-58.0","null","null","","
    <div style="" display: block;  position: relative;"">
    
    <svg width=1366 height=768>
    <circle cx=620 cy=384 r=13.80420429295509 stroke=""black"" stroke-width=""1"" fill=""black"" />
    <circle cx=875.9099308312749 cy=384 r=19.720291847078702 stroke=""none"" stroke-width=""1.5"" fill=""none"" />
    <circle cx=777.96 cy=481.94993083127486 r=19.720291847078702 stroke=""none"" stroke-width=""1.5"" fill=""none"" />
    <circle cx=680.0100691687252 cy=384 r=19.720291847078702 stroke=""none"" stroke-width=""1.5"" fill=""none"" />
    <circle cx=777.96 cy=286.05006916872514 r=19.720291847078702 stroke=""none"" stroke-width=""1.5"" fill=""none"" />
    <polygon points = ""777.96,384 783.507219495124,364.2797081529213 772.4127805048761,364.2797081529213"" stroke=""none"" stroke-width=""3"" fill = ""none"" />
    
    </svg>
    </div>
        ","","","","","","","","","","","","","","","","","","","","","","","","","","","","",""
"html-keyboard-response","59","570459","0.0-59.0","59.39999999990687","arrowup","","
    <div style="" display: block;  position: relative;"">
    <svg width=1366 height=768>
    
    <circle cx=620 cy=384 r=13.80420429295509 stroke=""black"" stroke-width=""1"" fill=""black"" />
    <circle cx=777.96 cy=384 r=19.720291847078702 stroke=""black"" stroke-width=""1.5"" fill=""none"" />
    <circle cx=896.4794163058426 cy=384 r=19.720291847078702 stroke=""black"" stroke-width=""1.5"" fill=""none"" />
    <circle cx=777.96 cy=502.5194163058426 r=19.720291847078702 stroke=""black"" stroke-width=""1.5"" fill=""none"" />
    <circle cx=659.4405836941575 cy=384 r=19.720291847078702 stroke=""black"" stroke-width=""1.5"" fill=""none"" />
    <circle cx=777.96 cy=265.4805836941574 r=19.720291847078702 stroke=""black"" stroke-width=""1.5"" fill=""none"" />
    <polygon points = ""777.96,384 783.507219495124,403.7202918470787 772.4127805048761,403.7202918470787"" stroke=""white"" stroke-width=""3"" fill = ""white"" />
    
    </svg>
    </div>
        ","","","","","","","","","","","","stimulus","","","","","","","","","","","","","","","","",""
"html-keyboard-response","60","571716","0.0-60.0","1253.4000000003725","arrowup","","
    <div style="" display: block;  position: relative;"">
    
    <svg width=1366 height=768>
    <circle cx=620 cy=384 r=13.80420429295509 stroke=""black"" stroke-width=""1"" fill=""black"" />
    <circle cx=896.4794163058426 cy=384 r=19.720291847078702 stroke=""none"" stroke-width=""1.5"" fill=""none"" />
    <circle cx=777.96 cy=502.5194163058426 r=19.720291847078702 stroke=""none"" stroke-width=""1.5"" fill=""none"" />
    <circle cx=659.4405836941575 cy=384 r=19.720291847078702 stroke=""none"" stroke-width=""1.5"" fill=""none"" />
    <circle cx=777.96 cy=265.4805836941574 r=19.720291847078702 stroke=""none"" stroke-width=""1.5"" fill=""none"" />
    <polygon points = ""777.96,384 783.507219495124,403.7202918470787 772.4127805048761,403.7202918470787"" stroke=""none"" stroke-width=""3"" fill = ""none"" />
    
    </svg>
    </div>
        ","","","","","","","","","","","","get_response","false","FXNEkK1nmwMknSyJ","","","false","false","true","157.96","4","563.87","118.51941630584261","3","1","0","","",""
"html-keyboard-response","61","572228","0.0-61.0","null","null","","
    <div style="" display: block;  position: relative;"">
    
    <svg width=1366 height=768>
    <circle cx=620 cy=384 r=13.80420429295509 stroke=""black"" stroke-width=""1"" fill=""black"" />
    <circle cx=896.4794163058426 cy=384 r=19.720291847078702 stroke=""none"" stroke-width=""1.5"" fill=""none"" />
    <circle cx=777.96 cy=502.5194163058426 r=19.720291847078702 stroke=""none"" stroke-width=""1.5"" fill=""none"" />
    <circle cx=659.4405836941575 cy=384 r=19.720291847078702 stroke=""none"" stroke-width=""1.5"" fill=""none"" />
    <circle cx=777.96 cy=265.4805836941574 r=19.720291847078702 stroke=""none"" stroke-width=""1.5"" fill=""none"" />
    <polygon points = ""777.96,384 783.507219495124,403.7202918470787 772.4127805048761,403.7202918470787"" stroke=""none"" stroke-width=""3"" fill = ""none"" />
    
    </svg>
    </div>
        ","","","","","","","","","","","","","","","","","","","","","","","","","","","","",""
"html-keyboard-response","62","572246","0.0-62.0","12.900000000372529","arrowright","","
    <div style="" display: block;  position: relative;"">
    <svg width=1366 height=768>
    
    <circle cx=620 cy=384 r=13.80420429295509 stroke=""black"" stroke-width=""1"" fill=""black"" />
    <circle cx=777.96 cy=384 r=19.720291847078702 stroke=""black"" stroke-width=""1.5"" fill=""none"" />
    <circle cx=896.4794163058426 cy=384 r=19.720291847078702 stroke=""black"" stroke-width=""1.5"" fill=""none"" />
    <circle cx=777.96 cy=502.5194163058426 r=19.720291847078702 stroke=""black"" stroke-width=""1.5"" fill=""none"" />
    <circle cx=659.4405836941575 cy=384 r=19.720291847078702 stroke=""black"" stroke-width=""1.5"" fill=""none"" />
    <circle cx=777.96 cy=265.4805836941574 r=19.720291847078702 stroke=""black"" stroke-width=""1.5"" fill=""none"" />
    <polygon points = ""777.96,384 783.507219495124,364.2797081529213 772.4127805048761,364.2797081529213"" stroke=""white"" stroke-width=""3"" fill = ""white"" />
    
    </svg>
    </div>
        ","","","","","","","","","","","","stimulus","","","","","","","","","","","","","","","","",""
"html-keyboard-response","63","584123","0.0-63.0","11872.19999999972","arrowdown","","
    <div style="" display: block;  position: relative;"">
    
    <svg width=1366 height=768>
    <circle cx=620 cy=384 r=13.80420429295509 stroke=""black"" stroke-width=""1"" fill=""black"" />
    <circle cx=896.4794163058426 cy=384 r=19.720291847078702 stroke=""none"" stroke-width=""1.5"" fill=""none"" />
    <circle cx=777.96 cy=502.5194163058426 r=19.720291847078702 stroke=""none"" stroke-width=""1.5"" fill=""none"" />
    <circle cx=659.4405836941575 cy=384 r=19.720291847078702 stroke=""none"" stroke-width=""1.5"" fill=""none"" />
    <circle cx=777.96 cy=265.4805836941574 r=19.720291847078702 stroke=""none"" stroke-width=""1.5"" fill=""none"" />
    <polygon points = ""777.96,384 783.507219495124,364.2797081529213 772.4127805048761,364.2797081529213"" stroke=""none"" stroke-width=""3"" fill = ""none"" />
    
    </svg>
    </div>
        ","","","","","","","","","","","","get_response","false","FXNEkK1nmwMknSyJ","","","false","true","true","157.96","4","563.87","118.51941630584261","3","1","0","","",""
"html-keyboard-response","64","584635","0.0-64.0","null","null","","
    <div style="" display: block;  position: relative;"">
    
    <svg width=1366 height=768>
    <circle cx=620 cy=384 r=13.80420429295509 stroke=""black"" stroke-width=""1"" fill=""black"" />
    <circle cx=896.4794163058426 cy=384 r=19.720291847078702 stroke=""none"" stroke-width=""1.5"" fill=""none"" />
    <circle cx=777.96 cy=502.5194163058426 r=19.720291847078702 stroke=""none"" stroke-width=""1.5"" fill=""none"" />
    <circle cx=659.4405836941575 cy=384 r=19.720291847078702 stroke=""none"" stroke-width=""1.5"" fill=""none"" />
    <circle cx=777.96 cy=265.4805836941574 r=19.720291847078702 stroke=""none"" stroke-width=""1.5"" fill=""none"" />
    <polygon points = ""777.96,384 783.507219495124,364.2797081529213 772.4127805048761,364.2797081529213"" stroke=""none"" stroke-width=""3"" fill = ""none"" />
    
    </svg>
    </div>
        ","","","","","","","","","","","","","","","","","","","","","","","","","","","","",""
"html-keyboard-response","65","584711","0.0-65.0","71.70000000018626","arrowup","","
    <div style="" display: block;  position: relative;"">
    <svg width=1366 height=768>
    
    <circle cx=620 cy=384 r=13.80420429295509 stroke=""black"" stroke-width=""1"" fill=""black"" />
    <circle cx=777.96 cy=384 r=19.720291847078702 stroke=""black"" stroke-width=""1.5"" fill=""none"" />
    <circle cx=896.4794163058426 cy=384 r=19.720291847078702 stroke=""black"" stroke-width=""1.5"" fill=""none"" />
    <circle cx=777.96 cy=502.5194163058426 r=19.720291847078702 stroke=""black"" stroke-width=""1.5"" fill=""none"" />
    <circle cx=659.4405836941575 cy=384 r=19.720291847078702 stroke=""black"" stroke-width=""1.5"" fill=""none"" />
    <circle cx=777.96 cy=265.4805836941574 r=19.720291847078702 stroke=""black"" stroke-width=""1.5"" fill=""none"" />
    <polygon points = ""777.96,384 783.507219495124,364.2797081529213 772.4127805048761,364.2797081529213"" stroke=""white"" stroke-width=""3"" fill = ""white"" />
    
    </svg>
    </div>
        ","","","","","","","","","","","","stimulus","","","","","","","","","","","","","","","","",""
"html-keyboard-response","66","590679","0.0-66.0","5965.399999999907","arrowdown","","
    <div style="" display: block;  position: relative;"">
    
    <svg width=1366 height=768>
    <circle cx=620 cy=384 r=13.80420429295509 stroke=""black"" stroke-width=""1"" fill=""black"" />
    <circle cx=896.4794163058426 cy=384 r=19.720291847078702 stroke=""none"" stroke-width=""1.5"" fill=""none"" />
    <circle cx=777.96 cy=502.5194163058426 r=19.720291847078702 stroke=""none"" stroke-width=""1.5"" fill=""none"" />
    <circle cx=659.4405836941575 cy=384 r=19.720291847078702 stroke=""none"" stroke-width=""1.5"" fill=""none"" />
    <circle cx=777.96 cy=265.4805836941574 r=19.720291847078702 stroke=""none"" stroke-width=""1.5"" fill=""none"" />
    <polygon points = ""777.96,384 783.507219495124,364.2797081529213 772.4127805048761,364.2797081529213"" stroke=""none"" stroke-width=""3"" fill = ""none"" />
    
    </svg>
    </div>
        ","","","","","","","","","","","","get_response","false","FXNEkK1nmwMknSyJ","","","false","true","true","157.96","4","563.87","118.51941630584261","3","1","0","","",""
"html-keyboard-response","67","591189","0.0-67.0","null","null","","
    <div style="" display: block;  position: relative;"">
    
    <svg width=1366 height=768>
    <circle cx=620 cy=384 r=13.80420429295509 stroke=""black"" stroke-width=""1"" fill=""black"" />
    <circle cx=896.4794163058426 cy=384 r=19.720291847078702 stroke=""none"" stroke-width=""1.5"" fill=""none"" />
    <circle cx=777.96 cy=502.5194163058426 r=19.720291847078702 stroke=""none"" stroke-width=""1.5"" fill=""none"" />
    <circle cx=659.4405836941575 cy=384 r=19.720291847078702 stroke=""none"" stroke-width=""1.5"" fill=""none"" />
    <circle cx=777.96 cy=265.4805836941574 r=19.720291847078702 stroke=""none"" stroke-width=""1.5"" fill=""none"" />
    <polygon points = ""777.96,384 783.507219495124,364.2797081529213 772.4127805048761,364.2797081529213"" stroke=""none"" stroke-width=""3"" fill = ""none"" />
    
    </svg>
    </div>
        ","","","","","","","","","","","","","","","","","","","","","","","","","","","","",""
"html-keyboard-response","68","591349","0.0-68.0","null","null","","
    <div style="" display: block;  position: relative;"">
    <svg width=1366 height=768>
    
    <circle cx=620 cy=384 r=13.80420429295509 stroke=""black"" stroke-width=""1"" fill=""black"" />
    <circle cx=777.96 cy=384 r=19.720291847078702 stroke=""black"" stroke-width=""1.5"" fill=""none"" />
    <circle cx=896.4794163058426 cy=384 r=19.720291847078702 stroke=""black"" stroke-width=""1.5"" fill=""none"" />
    <circle cx=777.96 cy=502.5194163058426 r=19.720291847078702 stroke=""black"" stroke-width=""1.5"" fill=""none"" />
    <circle cx=659.4405836941575 cy=384 r=19.720291847078702 stroke=""black"" stroke-width=""1.5"" fill=""none"" />
    <circle cx=777.96 cy=265.4805836941574 r=19.720291847078702 stroke=""black"" stroke-width=""1.5"" fill=""none"" />
    <polygon points = ""777.96,384 783.507219495124,403.7202918470787 772.4127805048761,403.7202918470787"" stroke=""white"" stroke-width=""3"" fill = ""white"" />
    
    </svg>
    </div>
        ","","","","","","","","","","","","stimulus","","","","","","","","","","","","","","","","",""
"html-keyboard-response","69","593649","0.0-69.0","2295","arrowup","","
    <div style="" display: block;  position: relative;"">
    
    <svg width=1366 height=768>
    <circle cx=620 cy=384 r=13.80420429295509 stroke=""black"" stroke-width=""1"" fill=""black"" />
    <circle cx=896.4794163058426 cy=384 r=19.720291847078702 stroke=""none"" stroke-width=""1.5"" fill=""none"" />
    <circle cx=777.96 cy=502.5194163058426 r=19.720291847078702 stroke=""none"" stroke-width=""1.5"" fill=""none"" />
    <circle cx=659.4405836941575 cy=384 r=19.720291847078702 stroke=""none"" stroke-width=""1.5"" fill=""none"" />
    <circle cx=777.96 cy=265.4805836941574 r=19.720291847078702 stroke=""none"" stroke-width=""1.5"" fill=""none"" />
    <polygon points = ""777.96,384 783.507219495124,403.7202918470787 772.4127805048761,403.7202918470787"" stroke=""none"" stroke-width=""3"" fill = ""none"" />
    
    </svg>
    </div>
        ","","","","","","","","","","","","get_response","false","FXNEkK1nmwMknSyJ","","","false","false","true","157.96","4","563.87","118.51941630584261","3","1","0","","",""
"html-keyboard-response","70","593894","0.0-70.0","242","arrowup","","
    <div style="" display: block;  position: relative;"">
    
    <svg width=1366 height=768>
    <circle cx=620 cy=384 r=13.80420429295509 stroke=""black"" stroke-width=""1"" fill=""black"" />
    <circle cx=896.4794163058426 cy=384 r=19.720291847078702 stroke=""none"" stroke-width=""1.5"" fill=""none"" />
    <circle cx=777.96 cy=502.5194163058426 r=19.720291847078702 stroke=""none"" stroke-width=""1.5"" fill=""none"" />
    <circle cx=659.4405836941575 cy=384 r=19.720291847078702 stroke=""none"" stroke-width=""1.5"" fill=""none"" />
    <circle cx=777.96 cy=265.4805836941574 r=19.720291847078702 stroke=""none"" stroke-width=""1.5"" fill=""none"" />
    <polygon points = ""777.96,384 783.507219495124,403.7202918470787 772.4127805048761,403.7202918470787"" stroke=""none"" stroke-width=""3"" fill = ""none"" />
    
    </svg>
    </div>
        ","","","","","","","","","","","","","","","","","","","","","","","","","","","","",""
"html-keyboard-response","71","594059","0.0-71.0","null","null","","
    <div style="" display: block;  position: relative;"">
    <svg width=1366 height=768>
    
    <circle cx=620 cy=384 r=13.80420429295509 stroke=""black"" stroke-width=""1"" fill=""black"" />
    <circle cx=777.96 cy=384 r=19.720291847078702 stroke=""black"" stroke-width=""1.5"" fill=""none"" />
    <circle cx=896.4794163058426 cy=384 r=19.720291847078702 stroke=""black"" stroke-width=""1.5"" fill=""none"" />
    <circle cx=777.96 cy=502.5194163058426 r=19.720291847078702 stroke=""black"" stroke-width=""1.5"" fill=""none"" />
    <circle cx=659.4405836941575 cy=384 r=19.720291847078702 stroke=""black"" stroke-width=""1.5"" fill=""none"" />
    <circle cx=777.96 cy=265.4805836941574 r=19.720291847078702 stroke=""black"" stroke-width=""1.5"" fill=""none"" />
    <polygon points = ""777.96,384 783.507219495124,364.2797081529213 772.4127805048761,364.2797081529213"" stroke=""white"" stroke-width=""3"" fill = ""white"" />
    
    </svg>
    </div>
        ","","","","","","","","","","","","stimulus","","","","","","","","","","","","","","","","",""
"html-keyboard-response","72","594135","0.0-72.0","73.60000000009313","arrowup","","
    <div style="" display: block;  position: relative;"">
    
    <svg width=1366 height=768>
    <circle cx=620 cy=384 r=13.80420429295509 stroke=""black"" stroke-width=""1"" fill=""black"" />
    <circle cx=896.4794163058426 cy=384 r=19.720291847078702 stroke=""none"" stroke-width=""1.5"" fill=""none"" />
    <circle cx=777.96 cy=502.5194163058426 r=19.720291847078702 stroke=""none"" stroke-width=""1.5"" fill=""none"" />
    <circle cx=659.4405836941575 cy=384 r=19.720291847078702 stroke=""none"" stroke-width=""1.5"" fill=""none"" />
    <circle cx=777.96 cy=265.4805836941574 r=19.720291847078702 stroke=""none"" stroke-width=""1.5"" fill=""none"" />
    <polygon points = ""777.96,384 783.507219495124,364.2797081529213 772.4127805048761,364.2797081529213"" stroke=""none"" stroke-width=""3"" fill = ""none"" />
    
    </svg>
    </div>
        ","","","","","","","","","","","","get_response","true","FXNEkK1nmwMknSyJ","","","false","true","true","157.96","4","563.87","118.51941630584261","3","1","0","","",""
"html-keyboard-response","73","594633","0.0-73.0","495.10000000009313","arrowdown","","
    <div style="" display: block;  position: relative;"">
    
    <svg width=1366 height=768>
    <circle cx=620 cy=384 r=13.80420429295509 stroke=""black"" stroke-width=""1"" fill=""black"" />
    <circle cx=896.4794163058426 cy=384 r=19.720291847078702 stroke=""none"" stroke-width=""1.5"" fill=""none"" />
    <circle cx=777.96 cy=502.5194163058426 r=19.720291847078702 stroke=""none"" stroke-width=""1.5"" fill=""none"" />
    <circle cx=659.4405836941575 cy=384 r=19.720291847078702 stroke=""none"" stroke-width=""1.5"" fill=""none"" />
    <circle cx=777.96 cy=265.4805836941574 r=19.720291847078702 stroke=""none"" stroke-width=""1.5"" fill=""none"" />
    <polygon points = ""777.96,384 783.507219495124,364.2797081529213 772.4127805048761,364.2797081529213"" stroke=""none"" stroke-width=""3"" fill = ""none"" />
    
    </svg>
    </div>
        ","","","","","","","","","","","","","","","","","","","","","","","","","","","","",""
"html-keyboard-response","74","594792","0.0-74.0","null","null","","
    <div style="" display: block;  position: relative;"">
    <svg width=1366 height=768>
    
    <circle cx=620 cy=384 r=13.80420429295509 stroke=""black"" stroke-width=""1"" fill=""black"" />
    <circle cx=777.96 cy=384 r=19.720291847078702 stroke=""black"" stroke-width=""1.5"" fill=""none"" />
    <circle cx=896.4794163058426 cy=384 r=19.720291847078702 stroke=""black"" stroke-width=""1.5"" fill=""none"" />
    <circle cx=777.96 cy=502.5194163058426 r=19.720291847078702 stroke=""black"" stroke-width=""1.5"" fill=""none"" />
    <circle cx=659.4405836941575 cy=384 r=19.720291847078702 stroke=""black"" stroke-width=""1.5"" fill=""none"" />
    <circle cx=777.96 cy=265.4805836941574 r=19.720291847078702 stroke=""black"" stroke-width=""1.5"" fill=""none"" />
    <polygon points = ""777.96,384 783.507219495124,364.2797081529213 772.4127805048761,364.2797081529213"" stroke=""white"" stroke-width=""3"" fill = ""white"" />
    
    </svg>
    </div>
        ","","","","","","","","","","","","stimulus","","","","","","","","","","","","","","","","",""
"html-keyboard-response","75","595058","0.0-75.0","262.5","arrowdown","","
    <div style="" display: block;  position: relative;"">
    
    <svg width=1366 height=768>
    <circle cx=620 cy=384 r=13.80420429295509 stroke=""black"" stroke-width=""1"" fill=""black"" />
    <circle cx=896.4794163058426 cy=384 r=19.720291847078702 stroke=""none"" stroke-width=""1.5"" fill=""none"" />
    <circle cx=777.96 cy=502.5194163058426 r=19.720291847078702 stroke=""none"" stroke-width=""1.5"" fill=""none"" />
    <circle cx=659.4405836941575 cy=384 r=19.720291847078702 stroke=""none"" stroke-width=""1.5"" fill=""none"" />
    <circle cx=777.96 cy=265.4805836941574 r=19.720291847078702 stroke=""none"" stroke-width=""1.5"" fill=""none"" />
    <polygon points = ""777.96,384 783.507219495124,364.2797081529213 772.4127805048761,364.2797081529213"" stroke=""none"" stroke-width=""3"" fill = ""none"" />
    
    </svg>
    </div>
        ","","","","","","","","","","","","get_response","false","FXNEkK1nmwMknSyJ","","","false","true","true","157.96","4","563.87","118.51941630584261","3","1","0","","",""
"html-keyboard-response","76","595404","0.0-76.0","343","arrowdown","","
    <div style="" display: block;  position: relative;"">
    
    <svg width=1366 height=768>
    <circle cx=620 cy=384 r=13.80420429295509 stroke=""black"" stroke-width=""1"" fill=""black"" />
    <circle cx=896.4794163058426 cy=384 r=19.720291847078702 stroke=""none"" stroke-width=""1.5"" fill=""none"" />
    <circle cx=777.96 cy=502.5194163058426 r=19.720291847078702 stroke=""none"" stroke-width=""1.5"" fill=""none"" />
    <circle cx=659.4405836941575 cy=384 r=19.720291847078702 stroke=""none"" stroke-width=""1.5"" fill=""none"" />
    <circle cx=777.96 cy=265.4805836941574 r=19.720291847078702 stroke=""none"" stroke-width=""1.5"" fill=""none"" />
    <polygon points = ""777.96,384 783.507219495124,364.2797081529213 772.4127805048761,364.2797081529213"" stroke=""none"" stroke-width=""3"" fill = ""none"" />
    
    </svg>
    </div>
        ","","","","","","","","","","","","","","","","","","","","","","","","","","","","",""
"html-keyboard-response","77","595565","0.0-77.0","null","null","","
    <div style="" display: block;  position: relative;"">
    <svg width=1366 height=768>
    
    <circle cx=620 cy=384 r=13.80420429295509 stroke=""black"" stroke-width=""1"" fill=""black"" />
    <circle cx=777.96 cy=384 r=19.720291847078702 stroke=""black"" stroke-width=""1.5"" fill=""none"" />
    <circle cx=896.4794163058426 cy=384 r=19.720291847078702 stroke=""black"" stroke-width=""1.5"" fill=""none"" />
    <circle cx=777.96 cy=502.5194163058426 r=19.720291847078702 stroke=""black"" stroke-width=""1.5"" fill=""none"" />
    <circle cx=659.4405836941575 cy=384 r=19.720291847078702 stroke=""black"" stroke-width=""1.5"" fill=""none"" />
    <circle cx=777.96 cy=265.4805836941574 r=19.720291847078702 stroke=""black"" stroke-width=""1.5"" fill=""none"" />
    <polygon points = ""777.96,384 783.507219495124,403.7202918470787 772.4127805048761,403.7202918470787"" stroke=""white"" stroke-width=""3"" fill = ""white"" />
    
    </svg>
    </div>
        ","","","","","","","","","","","","stimulus","","","","","","","","","","","","","","","","",""
"html-keyboard-response","78","601213","0.0-78.0","5643.699999999721","arrowdown","","
    <div style="" display: block;  position: relative;"">
    
    <svg width=1366 height=768>
    <circle cx=620 cy=384 r=13.80420429295509 stroke=""black"" stroke-width=""1"" fill=""black"" />
    <circle cx=896.4794163058426 cy=384 r=19.720291847078702 stroke=""none"" stroke-width=""1.5"" fill=""none"" />
    <circle cx=777.96 cy=502.5194163058426 r=19.720291847078702 stroke=""none"" stroke-width=""1.5"" fill=""none"" />
    <circle cx=659.4405836941575 cy=384 r=19.720291847078702 stroke=""none"" stroke-width=""1.5"" fill=""none"" />
    <circle cx=777.96 cy=265.4805836941574 r=19.720291847078702 stroke=""none"" stroke-width=""1.5"" fill=""none"" />
    <polygon points = ""777.96,384 783.507219495124,403.7202918470787 772.4127805048761,403.7202918470787"" stroke=""none"" stroke-width=""3"" fill = ""none"" />
    
    </svg>
    </div>
        ","","","","","","","","","","","","get_response","true","FXNEkK1nmwMknSyJ","","","false","false","true","157.96","4","563.87","118.51941630584261","3","1","0","","",""
"html-keyboard-response","79","601719","0.0-79.0","null","null","","
    <div style="" display: block;  position: relative;"">
    
    <svg width=1366 height=768>
    <circle cx=620 cy=384 r=13.80420429295509 stroke=""black"" stroke-width=""1"" fill=""black"" />
    <circle cx=896.4794163058426 cy=384 r=19.720291847078702 stroke=""none"" stroke-width=""1.5"" fill=""none"" />
    <circle cx=777.96 cy=502.5194163058426 r=19.720291847078702 stroke=""none"" stroke-width=""1.5"" fill=""none"" />
    <circle cx=659.4405836941575 cy=384 r=19.720291847078702 stroke=""none"" stroke-width=""1.5"" fill=""none"" />
    <circle cx=777.96 cy=265.4805836941574 r=19.720291847078702 stroke=""none"" stroke-width=""1.5"" fill=""none"" />
    <polygon points = ""777.96,384 783.507219495124,403.7202918470787 772.4127805048761,403.7202918470787"" stroke=""none"" stroke-width=""3"" fill = ""none"" />
    
    </svg>
    </div>
        ","","","","","","","","","","","","","","","","","","","","","","","","","","","","",""
"html-keyboard-response","80","601802","0.0-80.0","78.89999999990687","arrowdown","","
    <div style="" display: block;  position: relative;"">
    <svg width=1366 height=768>
    
    <circle cx=620 cy=384 r=13.80420429295509 stroke=""black"" stroke-width=""1"" fill=""black"" />
    <circle cx=462.03999999999996 cy=384 r=19.720291847078702 stroke=""black"" stroke-width=""1.5"" fill=""none"" />
    <circle cx=580.5594163058425 cy=384 r=19.720291847078702 stroke=""black"" stroke-width=""1.5"" fill=""none"" />
    <circle cx=462.03999999999996 cy=502.5194163058426 r=19.720291847078702 stroke=""black"" stroke-width=""1.5"" fill=""none"" />
    <circle cx=343.5205836941574 cy=384 r=19.720291847078702 stroke=""black"" stroke-width=""1.5"" fill=""none"" />
    <circle cx=462.03999999999996 cy=265.4805836941574 r=19.720291847078702 stroke=""black"" stroke-width=""1.5"" fill=""none"" />
    <polygon points = ""462.03999999999996,384 467.587219495124,403.7202918470787 456.49278050487595,403.7202918470787"" stroke=""white"" stroke-width=""3"" fill = ""white"" />
    
    </svg>
    </div>
        ","","","","","","","","","","","","stimulus","","","","","","","","","","","","","","","","",""
"html-keyboard-response","81","603229","0.0-81.0","1423.3000000002794","arrowdown","","
    <div style="" display: block;  position: relative;"">
    
    <svg width=1366 height=768>
    <circle cx=620 cy=384 r=13.80420429295509 stroke=""black"" stroke-width=""1"" fill=""black"" />
    <circle cx=580.5594163058425 cy=384 r=19.720291847078702 stroke=""none"" stroke-width=""1.5"" fill=""none"" />
    <circle cx=462.03999999999996 cy=502.5194163058426 r=19.720291847078702 stroke=""none"" stroke-width=""1.5"" fill=""none"" />
    <circle cx=343.5205836941574 cy=384 r=19.720291847078702 stroke=""none"" stroke-width=""1.5"" fill=""none"" />
    <circle cx=462.03999999999996 cy=265.4805836941574 r=19.720291847078702 stroke=""none"" stroke-width=""1.5"" fill=""none"" />
    <polygon points = ""462.03999999999996,384 467.587219495124,403.7202918470787 456.49278050487595,403.7202918470787"" stroke=""none"" stroke-width=""3"" fill = ""none"" />
    
    </svg>
    </div>
        ","","","","","","","","","","","","get_response","true","FXNEkK1nmwMknSyJ","","","true","false","true","157.96","4","563.87","118.51941630584261","3","1","0","","",""
"html-keyboard-response","82","603635","0.0-82.0","403.3000000002794","arrowdown","","
    <div style="" display: block;  position: relative;"">
    
    <svg width=1366 height=768>
    <circle cx=620 cy=384 r=13.80420429295509 stroke=""black"" stroke-width=""1"" fill=""black"" />
    <circle cx=580.5594163058425 cy=384 r=19.720291847078702 stroke=""none"" stroke-width=""1.5"" fill=""none"" />
    <circle cx=462.03999999999996 cy=502.5194163058426 r=19.720291847078702 stroke=""none"" stroke-width=""1.5"" fill=""none"" />
    <circle cx=343.5205836941574 cy=384 r=19.720291847078702 stroke=""none"" stroke-width=""1.5"" fill=""none"" />
    <circle cx=462.03999999999996 cy=265.4805836941574 r=19.720291847078702 stroke=""none"" stroke-width=""1.5"" fill=""none"" />
    <polygon points = ""462.03999999999996,384 467.587219495124,403.7202918470787 456.49278050487595,403.7202918470787"" stroke=""none"" stroke-width=""3"" fill = ""none"" />
    
    </svg>
    </div>
        ","","","","","","","","","","","","","","","","","","","","","","","","","","","","",""
"html-keyboard-response","83","603802","0.0-83.0","null","null","","
    <div style="" display: block;  position: relative;"">
    <svg width=1366 height=768>
    
    <circle cx=620 cy=384 r=13.80420429295509 stroke=""black"" stroke-width=""1"" fill=""black"" />
    <circle cx=777.96 cy=384 r=19.720291847078702 stroke=""black"" stroke-width=""1.5"" fill=""none"" />
    <circle cx=896.4794163058426 cy=384 r=19.720291847078702 stroke=""black"" stroke-width=""1.5"" fill=""none"" />
    <circle cx=777.96 cy=502.5194163058426 r=19.720291847078702 stroke=""black"" stroke-width=""1.5"" fill=""none"" />
    <circle cx=659.4405836941575 cy=384 r=19.720291847078702 stroke=""black"" stroke-width=""1.5"" fill=""none"" />
    <circle cx=777.96 cy=265.4805836941574 r=19.720291847078702 stroke=""black"" stroke-width=""1.5"" fill=""none"" />
    <polygon points = ""777.96,384 783.507219495124,364.2797081529213 772.4127805048761,364.2797081529213"" stroke=""white"" stroke-width=""3"" fill = ""white"" />
    
    </svg>
    </div>
        ","","","","","","","","","","","","stimulus","","","","","","","","","","","","","","","","",""
"html-keyboard-response","84","619763","0.0-84.0","15956.900000000373","arrowdown","","
    <div style="" display: block;  position: relative;"">
    
    <svg width=1366 height=768>
    <circle cx=620 cy=384 r=13.80420429295509 stroke=""black"" stroke-width=""1"" fill=""black"" />
    <circle cx=896.4794163058426 cy=384 r=19.720291847078702 stroke=""none"" stroke-width=""1.5"" fill=""none"" />
    <circle cx=777.96 cy=502.5194163058426 r=19.720291847078702 stroke=""none"" stroke-width=""1.5"" fill=""none"" />
    <circle cx=659.4405836941575 cy=384 r=19.720291847078702 stroke=""none"" stroke-width=""1.5"" fill=""none"" />
    <circle cx=777.96 cy=265.4805836941574 r=19.720291847078702 stroke=""none"" stroke-width=""1.5"" fill=""none"" />
    <polygon points = ""777.96,384 783.507219495124,364.2797081529213 772.4127805048761,364.2797081529213"" stroke=""none"" stroke-width=""3"" fill = ""none"" />
    
    </svg>
    </div>
        ","","","","","","","","","","","","get_response","false","FXNEkK1nmwMknSyJ","","","false","true","true","157.96","4","563.87","118.51941630584261","3","1","0","","",""
"html-keyboard-response","85","620270","0.0-85.0","null","null","","
    <div style="" display: block;  position: relative;"">
    
    <svg width=1366 height=768>
    <circle cx=620 cy=384 r=13.80420429295509 stroke=""black"" stroke-width=""1"" fill=""black"" />
    <circle cx=896.4794163058426 cy=384 r=19.720291847078702 stroke=""none"" stroke-width=""1.5"" fill=""none"" />
    <circle cx=777.96 cy=502.5194163058426 r=19.720291847078702 stroke=""none"" stroke-width=""1.5"" fill=""none"" />
    <circle cx=659.4405836941575 cy=384 r=19.720291847078702 stroke=""none"" stroke-width=""1.5"" fill=""none"" />
    <circle cx=777.96 cy=265.4805836941574 r=19.720291847078702 stroke=""none"" stroke-width=""1.5"" fill=""none"" />
    <polygon points = ""777.96,384 783.507219495124,364.2797081529213 772.4127805048761,364.2797081529213"" stroke=""none"" stroke-width=""3"" fill = ""none"" />
    
    </svg>
    </div>
        ","","","","","","","","","","","","","","","","","","","","","","","","","","","","",""
"html-keyboard-response","86","620429","0.0-86.0","null","null","","
    <div style="" display: block;  position: relative;"">
    <svg width=1366 height=768>
    
    <circle cx=620 cy=384 r=13.80420429295509 stroke=""black"" stroke-width=""1"" fill=""black"" />
    <circle cx=462.03999999999996 cy=384 r=19.720291847078702 stroke=""black"" stroke-width=""1.5"" fill=""none"" />
    <circle cx=580.5594163058425 cy=384 r=19.720291847078702 stroke=""black"" stroke-width=""1.5"" fill=""none"" />
    <circle cx=462.03999999999996 cy=502.5194163058426 r=19.720291847078702 stroke=""black"" stroke-width=""1.5"" fill=""none"" />
    <circle cx=343.5205836941574 cy=384 r=19.720291847078702 stroke=""black"" stroke-width=""1.5"" fill=""none"" />
    <circle cx=462.03999999999996 cy=265.4805836941574 r=19.720291847078702 stroke=""black"" stroke-width=""1.5"" fill=""none"" />
    <polygon points = ""462.03999999999996,384 467.587219495124,403.7202918470787 456.49278050487595,403.7202918470787"" stroke=""white"" stroke-width=""3"" fill = ""white"" />
    
    </svg>
    </div>
        ","","","","","","","","","","","","stimulus","","","","","","","","","","","","","","","","",""
"html-keyboard-response","87","621873","0.0-87.0","1441.1999999997206","arrowup","","
    <div style="" display: block;  position: relative;"">
    
    <svg width=1366 height=768>
    <circle cx=620 cy=384 r=13.80420429295509 stroke=""black"" stroke-width=""1"" fill=""black"" />
    <circle cx=580.5594163058425 cy=384 r=19.720291847078702 stroke=""none"" stroke-width=""1.5"" fill=""none"" />
    <circle cx=462.03999999999996 cy=502.5194163058426 r=19.720291847078702 stroke=""none"" stroke-width=""1.5"" fill=""none"" />
    <circle cx=343.5205836941574 cy=384 r=19.720291847078702 stroke=""none"" stroke-width=""1.5"" fill=""none"" />
    <circle cx=462.03999999999996 cy=265.4805836941574 r=19.720291847078702 stroke=""none"" stroke-width=""1.5"" fill=""none"" />
    <polygon points = ""462.03999999999996,384 467.587219495124,403.7202918470787 456.49278050487595,403.7202918470787"" stroke=""none"" stroke-width=""3"" fill = ""none"" />
    
    </svg>
    </div>
        ","","","","","","","","","","","","get_response","false","FXNEkK1nmwMknSyJ","","","true","false","true","157.96","4","563.87","118.51941630584261","3","1","0","","",""
"html-keyboard-response","88","622160","0.0-88.0","284","arrowup","","
    <div style="" display: block;  position: relative;"">
    
    <svg width=1366 height=768>
    <circle cx=620 cy=384 r=13.80420429295509 stroke=""black"" stroke-width=""1"" fill=""black"" />
    <circle cx=580.5594163058425 cy=384 r=19.720291847078702 stroke=""none"" stroke-width=""1.5"" fill=""none"" />
    <circle cx=462.03999999999996 cy=502.5194163058426 r=19.720291847078702 stroke=""none"" stroke-width=""1.5"" fill=""none"" />
    <circle cx=343.5205836941574 cy=384 r=19.720291847078702 stroke=""none"" stroke-width=""1.5"" fill=""none"" />
    <circle cx=462.03999999999996 cy=265.4805836941574 r=19.720291847078702 stroke=""none"" stroke-width=""1.5"" fill=""none"" />
    <polygon points = ""462.03999999999996,384 467.587219495124,403.7202918470787 456.49278050487595,403.7202918470787"" stroke=""none"" stroke-width=""3"" fill = ""none"" />
    
    </svg>
    </div>
        ","","","","","","","","","","","","","","","","","","","","","","","","","","","","",""
"html-keyboard-response","89","622321","0.0-89.0","null","null","","
    <div style="" display: block;  position: relative;"">
    <svg width=1366 height=768>
    
    <circle cx=620 cy=384 r=13.80420429295509 stroke=""black"" stroke-width=""1"" fill=""black"" />
    <circle cx=777.96 cy=384 r=19.720291847078702 stroke=""black"" stroke-width=""1.5"" fill=""none"" />
    <circle cx=896.4794163058426 cy=384 r=19.720291847078702 stroke=""black"" stroke-width=""1.5"" fill=""none"" />
    <circle cx=777.96 cy=502.5194163058426 r=19.720291847078702 stroke=""black"" stroke-width=""1.5"" fill=""none"" />
    <circle cx=659.4405836941575 cy=384 r=19.720291847078702 stroke=""black"" stroke-width=""1.5"" fill=""none"" />
    <circle cx=777.96 cy=265.4805836941574 r=19.720291847078702 stroke=""black"" stroke-width=""1.5"" fill=""none"" />
    <polygon points = ""777.96,384 783.507219495124,403.7202918470787 772.4127805048761,403.7202918470787"" stroke=""white"" stroke-width=""3"" fill = ""white"" />
    
    </svg>
    </div>
        ","","","","","","","","","","","","stimulus","","","","","","","","","","","","","","","","",""
"html-keyboard-response","90","622404","0.0-90.0","78.29999999981374","arrowup","","
    <div style="" display: block;  position: relative;"">
    
    <svg width=1366 height=768>
    <circle cx=620 cy=384 r=13.80420429295509 stroke=""black"" stroke-width=""1"" fill=""black"" />
    <circle cx=896.4794163058426 cy=384 r=19.720291847078702 stroke=""none"" stroke-width=""1.5"" fill=""none"" />
    <circle cx=777.96 cy=502.5194163058426 r=19.720291847078702 stroke=""none"" stroke-width=""1.5"" fill=""none"" />
    <circle cx=659.4405836941575 cy=384 r=19.720291847078702 stroke=""none"" stroke-width=""1.5"" fill=""none"" />
    <circle cx=777.96 cy=265.4805836941574 r=19.720291847078702 stroke=""none"" stroke-width=""1.5"" fill=""none"" />
    <polygon points = ""777.96,384 783.507219495124,403.7202918470787 772.4127805048761,403.7202918470787"" stroke=""none"" stroke-width=""3"" fill = ""none"" />
    
    </svg>
    </div>
        ","","","","","","","","","","","","get_response","false","FXNEkK1nmwMknSyJ","","","false","false","true","157.96","4","563.87","118.51941630584261","3","1","0","","",""
"html-keyboard-response","91","622919","0.0-91.0","null","null","","
    <div style="" display: block;  position: relative;"">
    
    <svg width=1366 height=768>
    <circle cx=620 cy=384 r=13.80420429295509 stroke=""black"" stroke-width=""1"" fill=""black"" />
    <circle cx=896.4794163058426 cy=384 r=19.720291847078702 stroke=""none"" stroke-width=""1.5"" fill=""none"" />
    <circle cx=777.96 cy=502.5194163058426 r=19.720291847078702 stroke=""none"" stroke-width=""1.5"" fill=""none"" />
    <circle cx=659.4405836941575 cy=384 r=19.720291847078702 stroke=""none"" stroke-width=""1.5"" fill=""none"" />
    <circle cx=777.96 cy=265.4805836941574 r=19.720291847078702 stroke=""none"" stroke-width=""1.5"" fill=""none"" />
    <polygon points = ""777.96,384 783.507219495124,403.7202918470787 772.4127805048761,403.7202918470787"" stroke=""none"" stroke-width=""3"" fill = ""none"" />
    
    </svg>
    </div>
        ","","","","","","","","","","","","","","","","","","","","","","","","","","","","",""
"html-keyboard-response","92","623076","0.0-92.0","null","null","","
    <div style="" display: block;  position: relative;"">
    <svg width=1366 height=768>
    
    <circle cx=620 cy=384 r=13.80420429295509 stroke=""black"" stroke-width=""1"" fill=""black"" />
    <circle cx=462.03999999999996 cy=384 r=19.720291847078702 stroke=""black"" stroke-width=""1.5"" fill=""none"" />
    <circle cx=580.5594163058425 cy=384 r=19.720291847078702 stroke=""black"" stroke-width=""1.5"" fill=""none"" />
    <circle cx=462.03999999999996 cy=502.5194163058426 r=19.720291847078702 stroke=""black"" stroke-width=""1.5"" fill=""none"" />
    <circle cx=343.5205836941574 cy=384 r=19.720291847078702 stroke=""black"" stroke-width=""1.5"" fill=""none"" />
    <circle cx=462.03999999999996 cy=265.4805836941574 r=19.720291847078702 stroke=""black"" stroke-width=""1.5"" fill=""none"" />
    <polygon points = ""462.03999999999996,384 467.587219495124,364.2797081529213 456.49278050487595,364.2797081529213"" stroke=""white"" stroke-width=""3"" fill = ""white"" />
    
    </svg>
    </div>
        ","","","","","","","","","","","","stimulus","","","","","","","","","","","","","","","","",""
"html-keyboard-response","93","623906","0.0-93.0","825.7000000001863","arrowdown","","
    <div style="" display: block;  position: relative;"">
    
    <svg width=1366 height=768>
    <circle cx=620 cy=384 r=13.80420429295509 stroke=""black"" stroke-width=""1"" fill=""black"" />
    <circle cx=580.5594163058425 cy=384 r=19.720291847078702 stroke=""none"" stroke-width=""1.5"" fill=""none"" />
    <circle cx=462.03999999999996 cy=502.5194163058426 r=19.720291847078702 stroke=""none"" stroke-width=""1.5"" fill=""none"" />
    <circle cx=343.5205836941574 cy=384 r=19.720291847078702 stroke=""none"" stroke-width=""1.5"" fill=""none"" />
    <circle cx=462.03999999999996 cy=265.4805836941574 r=19.720291847078702 stroke=""none"" stroke-width=""1.5"" fill=""none"" />
    <polygon points = ""462.03999999999996,384 467.587219495124,364.2797081529213 456.49278050487595,364.2797081529213"" stroke=""none"" stroke-width=""3"" fill = ""none"" />
    
    </svg>
    </div>
        ","","","","","","","","","","","","get_response","false","FXNEkK1nmwMknSyJ","","","true","true","true","157.96","4","563.87","118.51941630584261","3","1","0","","",""
"html-keyboard-response","94","624313","0.0-94.0","404.3000000002794","arrowdown","","
    <div style="" display: block;  position: relative;"">
    
    <svg width=1366 height=768>
    <circle cx=620 cy=384 r=13.80420429295509 stroke=""black"" stroke-width=""1"" fill=""black"" />
    <circle cx=580.5594163058425 cy=384 r=19.720291847078702 stroke=""none"" stroke-width=""1.5"" fill=""none"" />
    <circle cx=462.03999999999996 cy=502.5194163058426 r=19.720291847078702 stroke=""none"" stroke-width=""1.5"" fill=""none"" />
    <circle cx=343.5205836941574 cy=384 r=19.720291847078702 stroke=""none"" stroke-width=""1.5"" fill=""none"" />
    <circle cx=462.03999999999996 cy=265.4805836941574 r=19.720291847078702 stroke=""none"" stroke-width=""1.5"" fill=""none"" />
    <polygon points = ""462.03999999999996,384 467.587219495124,364.2797081529213 456.49278050487595,364.2797081529213"" stroke=""none"" stroke-width=""3"" fill = ""none"" />
    
    </svg>
    </div>
        ","","","","","","","","","","","","","","","","","","","","","","","","","","","","",""
"html-keyboard-response","95","624480","0.0-95.0","null","null","","
    <div style="" display: block;  position: relative;"">
    <svg width=1366 height=768>
    
